Nblock,condsFile,grouping,Block,TrialBlock,N,trialN,trialCond,gazeCon,gazedirR,corrBinR,corrBinP,valLBY,valRBY,diff,colorCube,feedbacktext,corrAns,imageL,imageR,SelBlocks.thisRepN,SelBlocks.thisTrialN,SelBlocks.thisN,SelBlocks.thisIndex,Trials.thisRepN,Trials.thisTrialN,Trials.thisN,Trials.thisIndex,waitCube.started,waitCube.stopped,text_3.started,text_3.stopped,StartKeyPress.keys,StartKeyPress.rt,StartKeyPress.started,StartKeyPress.stopped,StimL.started,StimL.stopped,StimR.started,StimR.stopped,imageStim2L.started,imageStim2L.stopped,imageStim2R.started,imageStim2R.stopped,RTkeyRelease,imageStim3L.started,imageStim3L.stopped,imageStim3R.started,imageStim3R.stopped,dropResp.keys,dropResp.corr,dropResp.rt,dropResp.started,dropResp.stopped,imageStim5L.started,imageStim5L.stopped,imageStim5R.started,imageStim5R.stopped,text_2.started,text_2.stopped,ReturnSpace.keys,ReturnSpace.rt,ReturnSpace.started,ReturnSpace.stopped,totalpoints,textFeedback.started,textFeedback.stopped,participant,group,session,date,expName,psychopyVersion,frameRate,
1,Block809.xls,B,9,1,93,93,None,congruent,Right,Right,Left,80,79,1,yellow,2,5,/home/docky/apps/exp/images/80Y.jpeg,/home/docky/apps/exp/images/79Yi.jpeg,0,0,0,0,0,0,0,0,47.71823510899776,None,47.71823510899776,None,1,3.443329770001583,47.71823510899776,None,51.20024637299866,None,51.20024637299866,None,53.71311248699931,None,53.71311248699931,None,1.0326614410005277,55.512127506997786,None,55.512127506997786,None,5,1,1.286328278001747,56.53174046499771,None,56.53174046499771,None,56.53174046499771,None,57.83419389499977,None,1,1.1521609029987303,57.83419389499977,None,2,59.002970600999106,None,0,B,1,2021_May_21_1639,GazeFlow,2020.1.2,59.87356128771077,
1,Block809.xls,B,9,2,15,15,None,congruent,Left,Left,Right,38,39,1,blue,2,6,/home/docky/apps/exp/images/38B.jpeg,/home/docky/apps/exp/images/39Bi.jpeg,0,0,0,0,0,1,1,1,60.00505512199743,None,60.00505512199743,None,1,6.6636805170019215,60.00505512199743,None,66.70222044500042,None,66.70222044500042,None,69.20664289299748,None,69.20664289299748,None,1.417540343998553,71.00859220499842,None,71.00859220499842,None,6,1,1.2024888140003895,72.41277251799693,None,72.41277251799693,None,72.41277251799693,None,73.63152382899716,None,1,0.7347616770020977,73.63152382899716,None,4,74.38247440600026,None,0,B,1,2021_May_21_1639,GazeFlow,2020.1.2,59.87356128771077,
1,Block809.xls,B,9,3,117,21,None,incongruent,Left,Right,Left,39,38,1,yellow,2,5,/home/docky/apps/exp/images/39Yi.jpeg,/home/docky/apps/exp/images/38Y.jpeg,0,0,0,0,0,2,2,2,75.38462514399725,None,75.38462514399725,None,1,5.511343523001415,75.38462514399725,None,80.92969233999975,None,80.92969233999975,None,83.43297295699813,None,83.43297295699813,None,1.3674774850005633,85.23663152899826,None,85.23663152899826,None,5,1,1.1022091919985542,86.59019945099863,None,86.59019945099863,None,86.59019945099863,None,87.70901345499806,None,1,0.9012059820015565,87.70901345499806,None,6,88.6268797249977,None,0,B,1,2021_May_21_1639,GazeFlow,2020.1.2,59.87356128771077,
1,Block809.xls,B,9,4,94,94,None,congruent,Right,Right,Left,80,79,1,yellow,2,5,/home/docky/apps/exp/images/80Y.jpeg,/home/docky/apps/exp/images/79Yi.jpeg,0,0,0,0,0,3,3,3,89.62887131099706,None,89.62887131099706,None,1,5.829179926000506,89.62887131099706,None,95.49142438899798,None,95.49142438899798,None,97.99625084400031,None,97.99625084400031,None,1.15038269499928,99.79812582199884,None,99.79812582199884,None,5,1,0.9852622039979906,100.9347678310005,None,100.9347678310005,None,100.9347678310005,None,101.93617033099872,None,1,0.9349937030019646,101.93617033099872,None,8,102.88793905800048,None,0,B,1,2021_May_21_1639,GazeFlow,2020.1.2,59.87356128771077,
1,Block809.xls,B,9,5,41,41,None,congruent,Right,Right,Left,79,76,3,blue,2,5,/home/docky/apps/exp/images/79Bi.jpeg,/home/docky/apps/exp/images/76B.jpeg,0,0,0,0,0,4,4,4,103.88977024399719,None,103.88977024399719,None,1,5.1110301579974475,103.88977024399719,None,109.03431200999694,None,109.03431200999694,None,111.53912559599848,None,111.53912559599848,None,1.6347664530003385,113.3426613269985,None,113.3426613269985,None,6,0,1.0353023649986426,114.96197359299913,None,114.96197359299913,None,114.96197359299913,None,116.01382511599877,None,1,0.9181456959995558,116.01382511599877,None,6,116.94855900899711,None,0,B,1,2021_May_21_1639,GazeFlow,2020.1.2,59.87356128771077,
1,Block809.xls,B,9,6,36,36,None,congruent,Right,Right,Left,79,73,6,blue,2,5,/home/docky/apps/exp/images/79Bi.jpeg,/home/docky/apps/exp/images/73B.jpeg,0,0,0,0,0,5,5,5,117.9509998020003,None,117.9509998020003,None,1,5.794782048000343,117.9509998020003,None,123.77999112799807,None,123.77999112799807,None,126.28427909200036,None,126.28427909200036,None,1.3674570100010897,128.08799890400041,None,128.08799890400041,None,5,1,1.0861286730032589,129.43984105699928,None,129.43984105699928,None,129.43984105699928,None,130.54202467899813,None,1,1.03500342299958,130.54202467899813,None,8,131.5936366479982,None,0,B,1,2021_May_21_1639,GazeFlow,2020.1.2,59.87356128771077,
1,Block809.xls,B,9,7,78,78,None,congruent,Right,Right,Left,39,38,1,yellow,2,5,/home/docky/apps/exp/images/39Yi.jpeg,/home/docky/apps/exp/images/38Y.jpeg,0,0,0,0,0,6,6,6,132.5958316819997,None,132.5958316819997,None,1,5.227763438000693,132.5958316819997,None,137.85707547399943,None,137.85707547399943,None,140.361799307997,None,140.361799307997,None,1.567595871998492,142.16377230999933,None,142.16377230999933,None,5,1,1.1184928469992883,143.71787471999778,None,143.71787471999778,None,143.71787471999778,None,144.85322240799724,None,1,1.0516918639987125,144.85322240799724,None,10,145.92142544099988,None,0,B,1,2021_May_21_1639,GazeFlow,2020.1.2,59.87356128771077,
1,Block809.xls,B,9,8,29,29,None,congruent,Right,Right,Left,38,35,3,blue,2,5,/home/docky/apps/exp/images/38B.jpeg,/home/docky/apps/exp/images/35Bi.jpeg,0,0,0,0,0,7,7,7,146.9239102149986,None,146.9239102149986,None,1,6.6301219439992565,146.9239102149986,None,153.59067937099826,None,153.59067937099826,None,156.09244863099957,None,156.09244863099957,None,1.718421309000405,157.8960281010004,None,157.8960281010004,None,5,1,1.2518411700002616,159.59876301599797,None,159.59876301599797,None,159.59876301599797,None,160.867184120998,None,1,1.0019324460008647,160.867184120998,None,12,161.8863689009995,None,0,B,1,2021_May_21_1639,GazeFlow,2020.1.2,59.87356128771077,
1,Block809.xls,B,,,,,,,,,,,,,,,,,,0,0,0,0,,,,,,,,,,,,,,,,,,,,,,,,,,,,,,,,,,,,,,,,,,,,0,B,1,2021_May_21_1639,GazeFlow,2020.1.2,59.87356128771077,
2,Block805.xls,B,5,1,16,16,None,congruent,Left,Left,Right,73,76,3,blue,2,6,/home/docky/apps/exp/images/73B.jpeg,/home/docky/apps/exp/images/76Bi.jpeg,0,1,1,1,0,0,0,0,183.57845670799725,None,183.57845670799725,None,1,4.16421377900042,183.57845670799725,None,187.76798809299726,None,187.76798809299726,None,190.29207422800027,None,190.29207422800027,None,7.829876128998876,192.09532499699708,None,192.09532499699708,None,6,1,7.331788637999125,199.92642162300035,None,199.92642162300035,None,199.92642162300035,None,207.274448336997,None,1,2.2378581459997804,207.274448336997,None,14,209.52869993299828,None,0,B,1,2021_May_21_1639,GazeFlow,2020.1.2,59.87356128771077,
2,Block805.xls,B,5,2,2,2,None,congruent,Left,Left,Right,16,19,3,blue,2,6,/home/docky/apps/exp/images/16B.jpeg,/home/docky/apps/exp/images/19Bi.jpeg,0,1,1,1,0,1,1,1,210.5308320719996,None,210.5308320719996,None,1,4.492647787003079,210.5308320719996,None,215.0612984369982,None,215.0612984369982,None,217.56164254000032,None,217.56164254000032,None,1.3174205969989998,219.3632160519992,None,219.3632160519992,None,5,0,0.9680011550008203,220.6673466769971,None,220.6673466769971,None,220.6673466769971,None,221.6517521909991,None,1,0.8018221980019007,221.6517521909991,None,12,222.4701643599983,None,0,B,1,2021_May_21_1639,GazeFlow,2020.1.2,59.87356128771077,
2,Block805.xls,B,5,3,64,64,None,congruent,Left,Left,Right,69,76,7,yellow,2,6,/home/docky/apps/exp/images/69Y.jpeg,/home/docky/apps/exp/images/76Yi.jpeg,0,1,1,1,0,2,2,2,223.47242235399972,None,223.47242235399972,None,1,6.813540326002112,223.47242235399972,None,230.32001144899914,None,230.32001144899914,None,232.82458399299867,None,232.82458399299867,None,1.2507093429994711,234.62520241499806,None,234.62520241499806,None,6,1,0.8677951129975554,235.86341515599997,None,235.86341515599997,None,235.86341515599997,None,236.74783650999962,None,1,0.8185566989996005,236.74783650999962,None,14,237.58275797899842,None,0,B,1,2021_May_21_1639,GazeFlow,2020.1.2,59.87356128771077,
2,Block805.xls,B,5,4,61,61,None,congruent,Left,Left,Right,38,39,1,yellow,2,6,/home/docky/apps/exp/images/38Yi.jpeg,/home/docky/apps/exp/images/39Y.jpeg,0,1,1,1,0,3,3,3,238.58488859799763,None,238.58488859799763,None,1,4.7932450829976005,238.58488859799763,None,243.41191809899829,None,243.41191809899829,None,245.91678657399825,None,245.91678657399825,None,1.3004800800008525,247.71866464599952,None,247.71866464599952,None,5,0,0.9348187249997864,249.00581982699805,None,249.00581982699805,None,249.00581982699805,None,249.95686283399846,None,1,0.8847957880025206,249.95686283399846,None,12,250.85844648999773,None,0,B,1,2021_May_21_1639,GazeFlow,2020.1.2,59.87356128771077,
2,Block805.xls,B,5,5,23,23,None,congruent,Left,Left,Right,80,83,3,blue,2,6,/home/docky/apps/exp/images/80B.jpeg,/home/docky/apps/exp/images/83Bi.jpeg,0,1,1,1,0,4,4,4,251.8604612559975,None,251.8604612559975,None,1,5.411380436002219,251.8604612559975,None,257.30639882499963,None,257.30639882499963,None,259.8102010479997,None,259.8102010479997,None,1.6847034769998572,261.6102181339993,None,261.6102181339993,None,6,1,1.185670224000205,263.2834043799994,None,263.2834043799994,None,263.2834043799994,None,264.4854591179974,None,1,0.7347012399986852,264.4854591179974,None,14,265.2367010300004,None,0,B,1,2021_May_21_1639,GazeFlow,2020.1.2,59.87356128771077,
2,Block805.xls,B,5,6,87,87,None,congruent,Right,Right,Left,76,69,7,yellow,2,5,/home/docky/apps/exp/images/76Yi.jpeg,/home/docky/apps/exp/images/69Y.jpeg,0,1,1,1,0,5,5,5,266.23870480999904,None,266.23870480999904,None,1,4.726182793001499,266.23870480999904,None,270.9986548300003,None,270.9986548300003,None,273.5022994129977,None,273.5022994129977,None,1.3505951469996944,275.3068178529975,None,275.3068178529975,None,5,1,1.2856335059987032,276.642672553,None,276.642672553,None,276.642672553,None,277.9449690479996,None,1,0.9682730569984415,277.9449690479996,None,16,278.9297754649997,None,0,B,1,2021_May_21_1639,GazeFlow,2020.1.2,59.87356128771077,
2,Block805.xls,B,5,7,4,4,None,congruent,Left,Left,Right,35,38,3,blue,2,6,/home/docky/apps/exp/images/35B.jpeg,/home/docky/apps/exp/images/38Bi.jpeg,0,1,1,1,0,6,6,6,279.9322112989976,None,279.9322112989976,None,1,5.744750671001384,279.9322112989976,None,285.70875887500006,None,285.70875887500006,None,288.2141721799999,None,288.2141721799999,None,1.2004744219993881,290.01721058899784,None,290.01721058899784,None,6,1,1.0516188430010516,291.20409564299916,None,291.20409564299916,None,291.20409564299916,None,292.27242343099715,None,1,0.8519082470011199,292.27242343099715,None,18,293.14099790899854,None,0,B,1,2021_May_21_1639,GazeFlow,2020.1.2,59.87356128771077,
2,Block805.xls,B,5,8,114,18,None,incongruent,Right,Left,Right,79,82,3,yellow,2,6,/home/docky/apps/exp/images/79Y.jpeg,/home/docky/apps/exp/images/80Yi.jpeg,0,1,1,1,0,7,7,7,294.1432063229986,None,294.1432063229986,None,1,6.713686868002696,294.1432063229986,None,300.89036143499834,None,300.89036143499834,None,303.392950731999,None,303.392950731999,None,1.8852433680003742,305.1970231999985,None,305.1970231999985,None,5,0,1.0517085869978473,307.0684701850005,None,307.0684701850005,None,307.0684701850005,None,308.13644715899864,None,1,0.8351325069997984,308.13644715899864,None,16,308.9883882159993,None,0,B,1,2021_May_21_1639,GazeFlow,2020.1.2,59.87356128771077,
2,Block805.xls,B,,,,,,,,,,,,,,,,,,0,1,1,1,,,,,,,,,,,,,,,,,,,,,,,,,,,,,,,,,,,,,,,,,,,,0,B,1,2021_May_21_1639,GazeFlow,2020.1.2,59.87356128771077,
3,Block804.xls,B,4,1,95,95,None,congruent,Right,Right,Left,80,79,1,yellow,2,5,/home/docky/apps/exp/images/80Yi.jpeg,/home/docky/apps/exp/images/79Y.jpeg,0,2,2,2,0,0,0,0,338.81335833699995,None,338.81335833699995,None,1,4.032476942000358,338.81335833699995,None,342.8751972049977,None,342.8751972049977,None,345.3918816969999,None,345.3918816969999,None,1.3335137709982519,347.1955666149988,None,347.1955666149988,None,6,0,0.951832230999571,348.515607592999,None,348.515607592999,None,348.515607592999,None,349.4840264609993,None,1,0.6014728509981069,349.4840264609993,None,14,350.1018146589995,None,0,B,1,2021_May_21_1639,GazeFlow,2020.1.2,59.87356128771077,
3,Block804.xls,B,4,2,107,11,None,incongruent,Left,Right,Left,83,80,3,blue,2,5,/home/docky/apps/exp/images/83Bi.jpeg,/home/docky/apps/exp/images/80B.jpeg,0,2,2,2,0,1,1,1,351.10331914799826,None,351.10331914799826,None,1,4.92735084800006,351.10331914799826,None,356.06481287600036,None,356.06481287600036,None,358.5674598879996,None,358.5674598879996,None,1.3178197410015855,360.372464991,None,360.372464991,None,6,0,0.9678374690010969,361.6745143929984,None,361.6745143929984,None,361.6745143929984,None,362.6589994749993,None,1,0.6848412500003178,362.6589994749993,None,12,363.3604684649981,None,0,B,1,2021_May_21_1639,GazeFlow,2020.1.2,59.87356128771077,
3,Block804.xls,B,4,3,27,27,None,congruent,Right,Right,Left,19,16,3,blue,2,5,/home/docky/apps/exp/images/19Bi.jpeg,/home/docky/apps/exp/images/16B.jpeg,0,2,2,2,0,2,2,2,364.3623863139983,None,364.3623863139983,None,1,4.910334184998646,364.3623863139983,None,369.30955649799944,None,369.30955649799944,None,371.8110456989998,None,371.8110456989998,None,1.2505599110008916,373.6113111509985,None,373.6113111509985,None,6,0,1.16921306599761,374.84991008499856,None,374.84991008499856,None,374.84991008499856,None,376.03538747699713,None,1,0.8178767099998367,376.03538747699713,None,10,376.87007190799704,None,0,B,1,2021_May_21_1639,GazeFlow,2020.1.2,59.87356128771077,
3,Block804.xls,B,4,4,101,5,None,incongruent,Right,Left,Right,76,79,3,blue,2,6,/home/docky/apps/exp/images/76B.jpeg,/home/docky/apps/exp/images/79Bi.jpeg,0,2,2,2,0,3,3,3,377.87216023200017,None,377.87216023200017,None,1,4.0249494449999474,377.87216023200017,None,381.9311530550003,None,381.9311530550003,None,384.4357051369989,None,384.4357051369989,None,1.3673778100019263,386.23764051299804,None,386.23764051299804,None,6,1,0.9010784320016683,387.5914894749985,None,387.5914894749985,None,387.5914894749985,None,388.510335723,None,1,0.6178156669993768,388.510335723,None,12,389.1443917109973,None,0,B,1,2021_May_21_1639,GazeFlow,2020.1.2,59.87356128771077,
3,Block804.xls,B,4,5,47,47,None,congruent,Right,Right,Left,39,38,1,blue,2,5,/home/docky/apps/exp/images/39Bi.jpeg,/home/docky/apps/exp/images/38B.jpeg,0,2,2,2,0,4,4,4,390.14588106500014,None,390.14588106500014,None,1,4.726963299999625,390.14588106500014,None,394.9062187469972,None,394.9062187469972,None,397.40924202099995,None,397.40924202099995,None,1.3672993000000133,399.21439272899806,None,399.21439272899806,None,6,0,1.0354920760000823,400.5665684559972,None,400.5665684559972,None,400.5665684559972,None,401.6185264529995,None,1,0.8680470679973951,401.6185264529995,None,10,402.5034310480005,None,0,B,1,2021_May_21_1639,GazeFlow,2020.1.2,59.87356128771077,
3,Block804.xls,B,4,6,90,90,None,congruent,Right,Right,Left,77,72,5,yellow,2,5,/home/docky/apps/exp/images/77Yi.jpeg,/home/docky/apps/exp/images/72Y.jpeg,0,2,2,2,0,5,5,5,403.5050742679996,None,403.5050742679996,None,1,20.006240198999876,403.5050742679996,None,423.54601605800053,None,423.54601605800053,None,426.04963636499815,None,426.04963636499815,None,1.5846136979998846,427.85149458199885,None,427.85149458199885,None,5,1,0.8186563009985548,429.42266912599734,None,429.42266912599734,None,429.42266912599734,None,430.2574129280001,None,1,0.7681125269991753,430.2574129280001,None,12,431.0415666079971,None,0,B,1,2021_May_21_1639,GazeFlow,2020.1.2,59.87356128771077,
3,Block804.xls,B,4,7,12,12,None,congruent,Left,Left,Right,38,39,1,blue,2,6,/home/docky/apps/exp/images/38B.jpeg,/home/docky/apps/exp/images/39Bi.jpeg,0,2,2,2,0,6,6,6,432.04403751599966,None,432.04403751599966,None,1,4.292274378000002,432.04403751599966,None,436.3705953219978,None,436.3705953219978,None,438.8733235209984,None,438.8733235209984,None,1.1169989429981797,440.67598049299704,None,440.67598049299704,None,5,0,1.0683364200012875,441.7800102049987,None,441.7800102049987,None,441.7800102049987,None,442.8649261699975,None,1,2.4884624350015656,442.8649261699975,None,10,445.3696787769986,None,0,B,1,2021_May_21_1639,GazeFlow,2020.1.2,59.87356128771077,
3,Block804.xls,B,4,8,20,20,None,congruent,Left,Left,Right,76,79,3,blue,2,6,/home/docky/apps/exp/images/76Bi.jpeg,/home/docky/apps/exp/images/79B.jpeg,0,2,2,2,0,7,7,7,446.3721251019997,None,446.3721251019997,None,1,5.410914706997573,446.3721251019997,None,451.8167869709978,None,451.8167869709978,None,454.323418361997,None,454.323418361997,None,1.0504438989992195,456.12501376399814,None,456.12501376399814,None,6,1,1.101646492999862,457.1599554259992,None,457.1599554259992,None,457.1599554259992,None,458.27800950599703,None,1,0.8520157509992714,458.27800950599703,None,12,459.14639824799815,None,0,B,1,2021_May_21_1639,GazeFlow,2020.1.2,59.87356128771077,
3,Block804.xls,B,,,,,,,,,,,,,,,,,,0,2,2,2,,,,,,,,,,,,,,,,,,,,,,,,,,,,,,,,,,,,,,,,,,,,0,B,1,2021_May_21_1639,GazeFlow,2020.1.2,59.87356128771077,
4,Block814.xls,B,14,1,99,3,None,incongruent,Right,Left,Right,65,66,1,blue,2,6,/home/docky/apps/exp/images/35Yi.jpeg,/home/docky/apps/exp/images/66B.jpeg,0,3,3,3,0,0,0,0,483.7969097979985,None,483.7969097979985,None,1,4.246695398000156,483.7969097979985,None,488.0708435889974,None,488.0708435889974,None,490.5918501369997,None,490.5918501369997,None,1.2333854469979997,492.39558943099837,None,492.39558943099837,None,6,1,1.2360352219984634,493.6138424399978,None,493.6138424399978,None,493.6138424399978,None,494.86631684599706,None,1,0.9345794149994617,494.86631684599706,None,14,495.8176793099992,None,0,B,1,2021_May_21_1639,GazeFlow,2020.1.2,59.87356128771077,
4,Block814.xls,B,14,2,34,34,None,congruent,Right,Right,Left,66,65,1,blue,2,5,/home/docky/apps/exp/images/66B.jpeg,/home/docky/apps/exp/images/35Yi.jpeg,0,3,3,3,0,1,1,1,496.8196144499998,None,496.8196144499998,None,1,7.582444124996982,496.8196144499998,None,504.4356085170002,None,504.4356085170002,None,506.93902577799963,None,506.93902577799963,None,1.1503162850021909,508.74401593199946,None,508.74401593199946,None,5,1,1.0518535709998105,509.87896676699893,None,509.87896676699893,None,509.87896676699893,None,510.9471138560002,None,1,1.4031002429983346,510.9471138560002,None,16,512.3664864059974,None,0,B,1,2021_May_21_1639,GazeFlow,2020.1.2,59.87356128771077,
4,Block814.xls,B,14,3,91,91,None,congruent,Right,Right,Left,77,72,5,yellow,2,5,/home/docky/apps/exp/images/77Yi.jpeg,/home/docky/apps/exp/images/72Y.jpeg,0,3,3,3,0,2,2,2,513.3688780369994,None,513.3688780369994,None,1,4.876438798997697,513.3688780369994,None,518.2791728939992,None,518.2791728939992,None,520.7839286109993,None,520.7839286109993,None,1.1670399060021737,522.5803320839987,None,522.5803320839987,None,5,1,0.9179711440010578,523.7392228739991,None,523.7392228739991,None,523.7392228739991,None,524.6738976209999,None,1,1.51973407100013,524.6738976209999,None,18,526.2101049239973,None,0,B,1,2021_May_21_1639,GazeFlow,2020.1.2,59.87356128771077,
4,Block814.xls,B,14,4,68,68,None,congruent,Left,Left,Right,72,77,5,yellow,2,6,/home/docky/apps/exp/images/72Yi.jpeg,/home/docky/apps/exp/images/77Y.jpeg,0,3,3,3,0,3,3,3,527.2124178429985,None,527.2124178429985,None,1,4.158846337999421,527.2124178429985,None,531.402801854998,None,531.402801854998,None,533.9077045220001,None,533.9077045220001,None,1.0673635650018696,535.710932138998,None,535.710932138998,None,6,1,0.9513133820000803,536.7645746259986,None,536.7645746259986,None,536.7645746259986,None,537.7324290830002,None,1,0.8356828349969874,537.7324290830002,None,20,538.5845275819993,None,0,B,1,2021_May_21_1639,GazeFlow,2020.1.2,59.87356128771077,
4,Block814.xls,B,14,5,66,66,None,congruent,Left,Left,Right,69,76,7,yellow,2,6,/home/docky/apps/exp/images/69Yi.jpeg,/home/docky/apps/exp/images/76Y.jpeg,0,3,3,3,0,4,4,4,539.5861095699984,None,539.5861095699984,None,1,5.3444029220008815,539.5861095699984,None,544.9652192909998,None,544.9652192909998,None,547.4722347229981,None,547.4722347229981,None,1.1005358889997297,549.2702254249998,None,549.2702254249998,None,6,1,0.884648893999838,550.3576473270004,None,550.3576473270004,None,550.3576473270004,None,551.2587151419975,None,1,0.8856117319992336,551.2587151419975,None,22,552.1609041429983,None,0,B,1,2021_May_21_1639,GazeFlow,2020.1.2,59.87356128771077,
4,Block814.xls,B,14,6,115,19,None,incongruent,Left,Right,Left,80,79,1,yellow,2,5,/home/docky/apps/exp/images/80Yi.jpeg,/home/docky/apps/exp/images/79Y.jpeg,0,3,3,3,0,5,5,5,553.1624661589995,None,553.1624661589995,None,1,3.941686000001937,553.1624661589995,None,557.138089797998,None,557.138089797998,None,559.6425597140005,None,559.6425597140005,None,1.2005029030005971,561.4389842439996,None,561.4389842439996,None,5,1,0.8847602429996186,562.6314821759988,None,562.6314821759988,None,562.6314821759988,None,563.5325457619983,None,1,0.8517262140012463,563.5325457619983,None,24,564.4009596859978,None,0,B,1,2021_May_21_1639,GazeFlow,2020.1.2,59.87356128771077,
4,Block814.xls,B,14,7,9,9,None,congruent,Left,Left,Right,65,66,1,blue,2,6,/home/docky/apps/exp/images/35Yi.jpeg,/home/docky/apps/exp/images/66B.jpeg,0,3,3,3,0,6,6,6,565.4032610719987,None,565.4032610719987,None,1,4.392122975998063,565.4032610719987,None,569.8289478160004,None,569.8289478160004,None,572.3341168359984,None,572.3341168359984,None,1.033684579997498,574.1358192259977,None,574.1358192259977,None,6,1,0.8509030309978698,575.1560188749972,None,575.1560188749972,None,575.1560188749972,None,576.023611706998,None,1,0.8348907899999176,576.023611706998,None,26,576.8752754999987,None,0,B,1,2021_May_21_1639,GazeFlow,2020.1.2,59.87356128771077,
4,Block814.xls,B,14,8,14,14,None,congruent,Left,Left,Right,38,39,1,blue,2,6,/home/docky/apps/exp/images/38Bi.jpeg,/home/docky/apps/exp/images/39B.jpeg,0,3,3,3,0,7,7,7,577.8777054469974,None,577.8777054469974,None,1,3.841364354997495,577.8777054469974,None,581.7522082699979,None,581.7522082699979,None,584.2570935549993,None,584.2570935549993,None,1.1335188619996188,586.0594332709989,None,586.0594332709989,None,6,1,0.8678825839997444,587.1790731879992,None,587.1790731879992,None,587.1790731879992,None,588.0634936919996,None,1,0.5684584640002868,588.0634936919996,None,28,588.6484418830005,None,0,B,1,2021_May_21_1639,GazeFlow,2020.1.2,59.87356128771077,
4,Block814.xls,B,,,,,,,,,,,,,,,,,,0,3,3,3,,,,,,,,,,,,,,,,,,,,,,,,,,,,,,,,,,,,,,,,,,,,0,B,1,2021_May_21_1639,GazeFlow,2020.1.2,59.87356128771077,
5,Block812.xls,B,12,1,18,18,None,congruent,Left,Left,Right,73,76,3,blue,2,6,/home/docky/apps/exp/images/73B.jpeg,/home/docky/apps/exp/images/76Bi.jpeg,0,4,4,4,0,0,0,0,631.0987618289982,None,631.0987618289982,None,1,4.30038726299972,631.0987618289982,None,635.4253638329974,None,635.4253638329974,None,637.9447035329977,None,637.9447035329977,None,1.0661755990004167,639.7482229380003,None,639.7482229380003,None,6,1,0.8846820699982345,640.7998722809971,None,640.7998722809971,None,640.7998722809971,None,641.700763867997,None,1,0.635816096997587,641.700763867997,None,30,642.3524710229976,None,0,B,1,2021_May_21_1639,GazeFlow,2020.1.2,59.87356128771077,
5,Block812.xls,B,12,2,3,3,None,congruent,Left,Left,Right,16,19,3,blue,2,6,/home/docky/apps/exp/images/16Bi.jpeg,/home/docky/apps/exp/images/19B.jpeg,0,4,4,4,0,1,1,1,643.3543055269984,None,643.3543055269984,None,1,3.7752233450009953,643.3543055269984,None,647.162693934999,None,647.162693934999,None,649.6673767129978,None,649.6673767129978,None,1.2674246200003836,651.465108436998,None,651.465108436998,None,5,0,1.0014677439976367,652.723028340999,None,652.723028340999,None,652.723028340999,None,653.7410068219979,None,1,0.7179984299982607,653.7410068219979,None,28,654.4756022619986,None,0,B,1,2021_May_21_1639,GazeFlow,2020.1.2,59.87356128771077,
5,Block812.xls,B,12,3,56,56,None,congruent,Left,Left,Right,62,65,3,yellow,2,6,/home/docky/apps/exp/images/38Bi.jpeg,/home/docky/apps/exp/images/35B.jpeg,0,4,4,4,0,2,2,2,655.4778338959986,None,655.4778338959986,None,1,5.695216296997387,655.4778338959986,None,661.2066368199994,None,661.2066368199994,None,663.7099741649981,None,663.7099741649981,None,1.100565757998993,665.5080753269976,None,665.5080753269976,None,6,1,0.9181420380009513,666.5999085589974,None,666.5999085589974,None,666.5999085589974,None,667.534644086998,None,1,0.551942161997431,667.534644086998,None,30,668.102960745,None,0,B,1,2021_May_21_1639,GazeFlow,2020.1.2,59.87356128771077,
5,Block812.xls,B,12,4,11,11,None,congruent,Left,Left,Right,38,39,1,blue,2,6,/home/docky/apps/exp/images/38B.jpeg,/home/docky/apps/exp/images/39Bi.jpeg,0,4,4,4,0,3,3,3,669.1042567939985,None,669.1042567939985,None,1,4.025679198999569,669.1042567939985,None,673.163011411998,None,673.163011411998,None,675.6660304119978,None,675.6660304119978,None,1.1841205549972074,677.4641566069986,None,677.4641566069986,None,5,0,0.9344332119981118,678.6402785179998,None,678.6402785179998,None,678.6402785179998,None,679.591457737999,None,1,0.6687325719976798,679.591457737999,None,28,680.2764028919992,None,0,B,1,2021_May_21_1639,GazeFlow,2020.1.2,59.87356128771077,
5,Block812.xls,B,12,5,116,20,None,incongruent,Left,Right,Left,35,33,2,yellow,2,5,/home/docky/apps/exp/images/35Yi.jpeg,/home/docky/apps/exp/images/33Y.jpeg,0,4,4,4,0,4,4,4,681.2778680880001,None,681.2778680880001,None,1,4.242737068001588,681.2778680880001,None,685.5573019469994,None,685.5573019469994,None,688.0572567519994,None,688.0572567519994,None,1.0670422639996104,689.86085293,None,689.86085293,None,6,0,0.8345208480022848,690.9137011899984,None,690.9137011899984,None,690.9137011899984,None,691.7648343299988,None,1,0.6019822689995635,691.7648343299988,None,26,692.383155866999,None,0,B,1,2021_May_21_1639,GazeFlow,2020.1.2,59.87356128771077,
5,Block812.xls,B,12,6,40,40,None,congruent,Right,Right,Left,79,76,3,blue,2,5,/home/docky/apps/exp/images/79Bi.jpeg,/home/docky/apps/exp/images/76B.jpeg,0,4,4,4,0,5,5,5,693.3847657469996,None,693.3847657469996,None,1,5.17794116299774,693.3847657469996,None,698.5959565079975,None,698.5959565079975,None,701.099158457997,None,701.099158457997,None,1.567843428998458,702.9043142989976,None,702.9043142989976,None,6,0,0.8853590450016782,704.4568591719981,None,704.4568591719981,None,704.4568591719981,None,705.3584048759985,None,1,0.5673457010016136,705.3584048759985,None,24,705.9423837760005,None,0,B,1,2021_May_21_1639,GazeFlow,2020.1.2,59.87356128771077,
5,Block812.xls,B,12,7,76,76,None,congruent,Right,Right,Left,39,38,1,yellow,2,5,/home/docky/apps/exp/images/39Yi.jpeg,/home/docky/apps/exp/images/38Y.jpeg,0,4,4,4,0,6,6,6,706.9444081609981,None,706.9444081609981,None,1,4.125235237999732,706.9444081609981,None,711.1032456529974,None,711.1032456529974,None,713.608437562998,None,713.608437562998,None,1.2005064879995189,715.4042503169985,None,715.4042503169985,None,6,0,1.0682340480016137,716.597112899999,None,716.597112899999,None,716.597112899999,None,717.6833635769981,None,1,0.666462891997071,717.6833635769981,None,22,718.3665893389989,None,0,B,1,2021_May_21_1639,GazeFlow,2020.1.2,59.87356128771077,
5,Block812.xls,B,12,8,77,77,None,congruent,Right,Right,Left,39,38,1,yellow,2,5,/home/docky/apps/exp/images/39Y.jpeg,/home/docky/apps/exp/images/38Yi.jpeg,0,4,4,4,0,7,7,7,719.3686966899986,None,719.3686966899986,None,1,6.112191644999257,719.3686966899986,None,725.5150183559999,None,725.5150183559999,None,728.0198962929971,None,728.0198962929971,None,1.1672569430011208,729.8213469639995,None,729.8213469639995,None,5,1,0.8845327129965881,730.9751011799999,None,730.9751011799999,None,730.9751011799999,None,731.8761555199999,None,1,0.7689469620017917,731.8761555199999,None,24,732.661364282998,None,0,B,1,2021_May_21_1639,GazeFlow,2020.1.2,59.87356128771077,
5,Block812.xls,B,,,,,,,,,,,,,,,,,,0,4,4,4,,,,,,,,,,,,,,,,,,,,,,,,,,,,,,,,,,,,,,,,,,,,0,B,1,2021_May_21_1639,GazeFlow,2020.1.2,59.87356128771077,
6,Block803.xls,B,3,1,84,84,None,congruent,Right,Right,Left,75,69,6,yellow,2,5,/home/docky/apps/exp/images/76Yi.jpeg,/home/docky/apps/exp/images/69Y.jpeg,0,5,5,5,0,0,0,0,760.6181366429992,None,760.6181366429992,None,1,3.846964845997718,760.6181366429992,None,764.4877312399985,None,764.4877312399985,None,767.0106531189995,None,767.0106531189995,None,1.3335404329991434,768.8156629069999,None,768.8156629069999,None,5,1,2.0871337380012847,770.1345015019979,None,770.1345015019979,None,770.1345015019979,None,772.2379698219993,None,1,0.9020265250001103,772.2379698219993,None,26,773.1562741969974,None,0,B,1,2021_May_21_1639,GazeFlow,2020.1.2,59.87356128771077,
6,Block803.xls,B,3,2,82,82,None,congruent,Right,Right,Left,66,65,1,yellow,2,5,/home/docky/apps/exp/images/66Y.jpeg,/home/docky/apps/exp/images/35Bi.jpeg,0,5,5,5,0,1,1,1,774.1586996439983,None,774.1586996439983,None,1,5.494760875000793,774.1586996439983,None,779.6867157429988,None,779.6867157429988,None,782.1926701349985,None,782.1926701349985,None,1.4011096780013759,783.9933963599979,None,783.9933963599979,None,5,1,0.9685134999999718,785.3806903160003,None,785.3806903160003,None,785.3806903160003,None,786.3656827199993,None,1,1.369061512999906,786.3656827199993,None,28,787.7515919689977,None,0,B,1,2021_May_21_1639,GazeFlow,2020.1.2,59.87356128771077,
6,Block803.xls,B,3,3,80,80,None,congruent,Right,Right,Left,66,65,1,yellow,2,5,/home/docky/apps/exp/images/66Yi.jpeg,/home/docky/apps/exp/images/35B.jpeg,0,5,5,5,0,2,2,2,788.7537333799992,None,788.7537333799992,None,1,5.127028959999734,788.7537333799992,None,793.9144694940005,None,793.9144694940005,None,796.4189710879982,None,796.4189710879982,None,1.234019826999429,798.2228797690004,None,798.2228797690004,None,6,0,1.1856194020001567,799.4414152659992,None,799.4414152659992,None,799.4414152659992,None,800.6434701239996,None,1,0.6177246520019253,800.6434701239996,None,26,801.277556058998,None,0,B,1,2021_May_21_1639,GazeFlow,2020.1.2,59.87356128771077,
6,Block803.xls,B,3,4,79,79,None,congruent,Right,Right,Left,66,65,1,yellow,2,5,/home/docky/apps/exp/images/66Y.jpeg,/home/docky/apps/exp/images/35Bi.jpeg,0,5,5,5,0,3,3,3,802.2798526179977,None,802.2798526179977,None,1,4.492566300999897,802.2798526179977,None,806.8062347140003,None,806.8062347140003,None,809.3110478069975,None,809.3110478069975,None,1.067084579000948,811.1147289389992,None,811.1147289389992,None,5,1,0.8845993199975055,812.1658870819992,None,812.1658870819992,None,812.1658870819992,None,813.0673978439991,None,1,0.9350953190005384,813.0673978439991,None,28,814.0189285929991,None,0,B,1,2021_May_21_1639,GazeFlow,2020.1.2,59.87356128771077,
6,Block803.xls,B,3,5,92,92,None,congruent,Right,Right,Left,77,72,5,yellow,2,5,/home/docky/apps/exp/images/77Y.jpeg,/home/docky/apps/exp/images/72Yi.jpeg,0,5,5,5,0,4,4,4,815.0213206359986,None,815.0213206359986,None,1,5.311020714001643,815.0213206359986,None,820.3657160309995,None,820.3657160309995,None,822.8690959679989,None,822.8690959679989,None,1.1672306709988334,824.6742365369973,None,824.6742365369973,None,5,1,0.8847225669996988,825.825882735,None,825.825882735,None,825.825882735,None,826.7270876719995,None,1,0.7357529209984932,826.7270876719995,None,30,827.4789891330001,None,0,B,1,2021_May_21_1639,GazeFlow,2020.1.2,59.87356128771077,
6,Block803.xls,B,3,6,106,10,None,incongruent,Left,Right,Left,79,76,3,blue,2,5,/home/docky/apps/exp/images/79Bi.jpeg,/home/docky/apps/exp/images/76B.jpeg,0,5,5,5,0,5,5,5,828.4806922139978,None,828.4806922139978,None,1,4.626108159998694,828.4806922139978,None,833.140557986997,None,833.140557986997,None,835.6433904019977,None,835.6433904019977,None,1.3506106590029958,837.4419118169972,None,837.4419118169972,None,5,1,0.918130920999829,838.7841828989986,None,838.7841828989986,None,838.7841828989986,None,839.7188589109974,None,1,0.6022202770000149,839.7188589109974,None,32,840.337203068997,None,0,B,1,2021_May_21_1639,GazeFlow,2020.1.2,59.87356128771077,
6,Block803.xls,B,3,7,25,25,None,congruent,Right,Right,Left,19,16,3,blue,2,5,/home/docky/apps/exp/images/19Bi.jpeg,/home/docky/apps/exp/images/16B.jpeg,0,5,5,5,0,6,6,6,841.3387550499974,None,841.3387550499974,None,1,4.709837385998981,841.3387550499974,None,846.0820859380001,None,846.0820859380001,None,848.5883163079998,None,848.5883163079998,None,1.1339462460018694,850.3876443759982,None,850.3876443759982,None,6,0,0.8849131089991715,851.5088495389973,None,851.5088495389973,None,851.5088495389973,None,852.4100744659991,None,1,0.6190617850006674,852.4100744659991,None,30,853.0448822209983,None,0,B,1,2021_May_21_1639,GazeFlow,2020.1.2,59.87356128771077,
6,Block803.xls,B,3,8,46,46,None,congruent,Right,Right,Left,39,38,1,blue,2,5,/home/docky/apps/exp/images/39B.jpeg,/home/docky/apps/exp/images/38Bi.jpeg,0,5,5,5,0,7,7,7,854.0466987709988,None,854.0466987709988,None,1,4.576763167002355,854.0466987709988,None,858.6624871049971,None,858.6624871049971,None,861.1598240269996,None,861.1598240269996,None,1.1506270110003243,862.9647058819974,None,862.9647058819974,None,5,1,2.65461950900135,864.100256947997,None,864.100256947997,None,864.100256947997,None,866.7716329759969,None,1,0.9359463689979748,866.7716329759969,None,32,867.7237736030002,None,0,B,1,2021_May_21_1639,GazeFlow,2020.1.2,59.87356128771077,
6,Block803.xls,B,,,,,,,,,,,,,,,,,,0,5,5,5,,,,,,,,,,,,,,,,,,,,,,,,,,,,,,,,,,,,,,,,,,,,0,B,1,2021_May_21_1639,GazeFlow,2020.1.2,59.87356128771077,
7,Block810.xls,B,10,1,119,23,None,incongruent,Left,Right,Left,76,69,7,yellow,2,5,/home/docky/apps/exp/images/76Yi.jpeg,/home/docky/apps/exp/images/69Y.jpeg,0,6,6,6,0,0,0,0,888.5314320449979,None,888.5314320449979,None,1,4.4648254359999555,888.5314320449979,None,893.02272791,None,893.02272791,None,895.5437316259995,None,895.5437316259995,None,1.0660959769993497,897.3489071999975,None,897.3489071999975,None,5,1,1.01821598099923,898.4000335809978,None,898.4000335809978,None,898.4000335809978,None,899.4347819510003,None,1,0.6855880469993281,899.4347819510003,None,34,900.1368547819984,None,0,B,1,2021_May_21_1639,GazeFlow,2020.1.2,59.87356128771077,
7,Block810.xls,B,10,2,43,43,None,congruent,Right,Right,Left,83,80,3,blue,2,5,/home/docky/apps/exp/images/83B.jpeg,/home/docky/apps/exp/images/80Bi.jpeg,0,6,6,6,0,1,1,1,901.1380898469979,None,901.1380898469979,None,1,5.51145544999963,901.1380898469979,None,906.6830976099991,None,906.6830976099991,None,909.1862717479999,None,909.1862717479999,None,1.083656336999411,910.9893182339983,None,910.9893182339983,None,5,1,1.0180102329977672,912.060036177998,None,912.060036177998,None,912.060036177998,None,913.0947373349991,None,1,0.7187517550009943,913.0947373349991,None,36,913.8298968710005,None,0,B,1,2021_May_21_1639,GazeFlow,2020.1.2,59.87356128771077,
7,Block810.xls,B,10,3,53,53,None,congruent,Left,Left,Right,65,66,1,yellow,2,6,/home/docky/apps/exp/images/35Bi.jpeg,/home/docky/apps/exp/images/66Y.jpeg,0,6,6,6,0,2,2,2,914.8320715509981,None,914.8320715509981,None,1,4.742673861001094,914.8320715509981,None,919.6080222739984,None,919.6080222739984,None,922.1112560879992,None,922.1112560879992,None,1.016757459998189,923.9146465609992,None,923.9146465609992,None,6,1,0.9009940729993104,924.9183547499997,None,924.9183547499997,None,924.9183547499997,None,925.836301026,None,1,0.635475781000423,925.836301026,None,38,926.4876143299989,None,0,B,1,2021_May_21_1639,GazeFlow,2020.1.2,59.87356128771077,
7,Block810.xls,B,10,4,74,74,None,congruent,Right,Right,Left,35,33,2,yellow,2,5,/home/docky/apps/exp/images/35Y.jpeg,/home/docky/apps/exp/images/33Yi.jpeg,0,6,6,6,0,3,3,3,927.489461268,None,927.489461268,None,1,4.058528125999146,927.489461268,None,931.5818822469992,None,931.5818822469992,None,934.0867902399987,None,934.0867902399987,None,1.0337265889975242,935.8882406869998,None,935.8882406869998,None,5,1,0.9347398139980214,936.9082028839985,None,936.9082028839985,None,936.9082028839985,None,937.859790606999,None,1,0.7353526449987839,937.859790606999,None,40,938.6113200869986,None,0,B,1,2021_May_21_1639,GazeFlow,2020.1.2,59.87356128771077,
7,Block810.xls,B,10,5,21,21,None,congruent,Left,Left,Right,76,79,3,blue,2,6,/home/docky/apps/exp/images/76B.jpeg,/home/docky/apps/exp/images/79Bi.jpeg,0,6,6,6,0,4,4,4,939.6130209209987,None,939.6130209209987,None,1,4.442508437998185,939.6130209209987,None,944.0894809749989,None,944.0894809749989,None,946.5927247099971,None,946.5927247099971,None,10.084840557999996,948.3960069469977,None,948.3960069469977,None,6,1,4.745305194999673,958.4811722679988,None,958.4811722679988,None,958.4811722679988,None,963.2425801159989,None,1,0.6851747869986866,963.2425801159989,None,42,963.9437178890003,None,0,B,1,2021_May_21_1639,GazeFlow,2020.1.2,59.87356128771077,
7,Block810.xls,B,10,6,85,85,None,congruent,Right,Right,Left,75,69,6,yellow,2,5,/home/docky/apps/exp/images/76Y.jpeg,/home/docky/apps/exp/images/69Yi.jpeg,0,6,6,6,0,5,5,5,964.9459473509996,None,964.9459473509996,None,1,4.275654357999883,964.9459473509996,None,969.2547178669993,None,969.2547178669993,None,971.7580280799993,None,971.7580280799993,None,1.083486413997889,973.5560499839994,None,973.5560499839994,None,5,1,0.8681569149994175,974.631508323997,None,974.631508323997,None,974.631508323997,None,975.5158831579975,None,1,0.6186047539995343,975.5158831579975,None,44,976.1504682849991,None,0,B,1,2021_May_21_1639,GazeFlow,2020.1.2,59.87356128771077,
7,Block810.xls,B,10,7,49,49,None,congruent,Left,Left,Right,33,35,2,yellow,2,6,/home/docky/apps/exp/images/33Yi.jpeg,/home/docky/apps/exp/images/35Y.jpeg,0,6,6,6,0,6,6,6,977.1525230119987,None,977.1525230119987,None,1,4.1259060759985005,977.1525230119987,None,981.3118461919985,None,981.3118461919985,None,983.8142366039974,None,983.8142366039974,None,1.0670069690022501,985.6155554029974,None,985.6155554029974,None,6,1,0.9179886009987968,986.6713872939981,None,986.6713872939981,None,986.6713872939981,None,987.6060008370005,None,1,0.5344528139976319,987.6060008370005,None,46,988.1572096819982,None,0,B,1,2021_May_21_1639,GazeFlow,2020.1.2,59.87356128771077,
7,Block810.xls,B,10,8,63,63,None,congruent,Left,Left,Right,38,39,1,yellow,2,6,/home/docky/apps/exp/images/38Y.jpeg,/home/docky/apps/exp/images/39Yi.jpeg,0,6,6,6,0,7,7,7,989.1589001359971,None,989.1589001359971,None,1,4.392618496000068,989.1589001359971,None,993.5855753279975,None,993.5855753279975,None,996.0889288929975,None,996.0889288929975,None,1.1337616339988017,997.8914529199974,None,997.8914529199974,None,5,0,0.8681495000018913,999.012272136999,None,999.012272136999,None,999.012272136999,None,999.8967628379978,None,1,0.7684603929992591,999.8967628379978,None,44,1000.6819163039982,None,0,B,1,2021_May_21_1639,GazeFlow,2020.1.2,59.87356128771077,
7,Block810.xls,B,,,,,,,,,,,,,,,,,,0,6,6,6,,,,,,,,,,,,,,,,,,,,,,,,,,,,,,,,,,,,,,,,,,,,0,B,1,2021_May_21_1639,GazeFlow,2020.1.2,59.87356128771077,
8,Block801.xls,B,1,1,1,1,None,congruent,Left,Left,Right,16,19,3,blue,2,6,/home/docky/apps/exp/images/16Bi.jpeg,/home/docky/apps/exp/images/19B.jpeg,0,7,7,7,0,0,0,0,1022.9603106979994,None,1022.9603106979994,None,1,4.46575518499958,1022.9603106979994,None,1027.4472882599985,None,1027.4472882599985,None,1029.972805426998,None,1029.972805426998,None,1.0496744379997835,1031.7744631049973,None,1031.7744631049973,None,6,1,0.9512881070004369,1032.8111640179995,None,1032.8111640179995,None,1032.8111640179995,None,1033.7793950630003,None,1,0.601966831000027,1033.7793950630003,None,46,1034.397314963,None,0,B,1,2021_May_21_1639,GazeFlow,2020.1.2,59.87356128771077,
8,Block801.xls,B,1,2,105,9,None,incongruent,Left,Right,Left,79,73,6,blue,2,5,/home/docky/apps/exp/images/79B.jpeg,/home/docky/apps/exp/images/73Bi.jpeg,0,7,7,7,0,1,1,1,1035.3990416579982,None,1035.3990416579982,None,1,3.841401303998282,1035.3990416579982,None,1039.274126802,None,1039.274126802,None,1041.7769275030005,None,1041.7769275030005,None,1.0335845810004685,1043.5761146119985,None,1043.5761146119985,None,5,1,0.9178889030008577,1044.6010172489987,None,1044.6010172489987,None,1044.6010172489987,None,1045.5352136779984,None,1,0.6358756150002591,1045.5352136779984,None,48,1046.187007141998,None,0,B,1,2021_May_21_1639,GazeFlow,2020.1.2,59.87356128771077,
8,Block801.xls,B,1,3,62,62,None,congruent,Left,Left,Right,38,39,1,yellow,2,6,/home/docky/apps/exp/images/38Y.jpeg,/home/docky/apps/exp/images/39Yi.jpeg,0,7,7,7,0,2,2,2,1047.1884730389975,None,1047.1884730389975,None,1,5.1446077120017435,1047.1884730389975,None,1052.3664361079973,None,1052.3664361079973,None,1054.869634497998,None,1054.869634497998,None,1.2506895599981362,1056.6724307369986,None,1056.6724307369986,None,5,0,0.984830718000012,1057.9098292729977,None,1057.9098292729977,None,1057.9098292729977,None,1058.9112997099983,None,1,0.7021224529999017,1058.9112997099983,None,46,1059.6299735609973,None,0,B,1,2021_May_21_1639,GazeFlow,2020.1.2,59.87356128771077,
8,Block801.xls,B,1,4,38,38,None,congruent,Right,Right,Left,79,73,6,blue,2,5,/home/docky/apps/exp/images/79B.jpeg,/home/docky/apps/exp/images/73Bi.jpeg,0,7,7,7,0,3,3,3,1060.6313078659987,None,1060.6313078659987,None,1,4.5762310169993725,1060.6313078659987,None,1065.2399705579992,None,1065.2399705579992,None,1067.7441745510005,None,1067.7441745510005,None,1.0015821380002308,1069.5329984879972,None,1069.5329984879972,None,5,1,0.9012004860014713,1070.5343017220002,None,1070.5343017220002,None,1070.5343017220002,None,1071.4523088919996,None,1,0.735222307001095,1071.4523088919996,None,48,1072.2038891429984,None,0,B,1,2021_May_21_1639,GazeFlow,2020.1.2,59.87356128771077,
8,Block801.xls,B,1,5,6,6,None,congruent,Left,Left,Right,35,38,3,blue,2,6,/home/docky/apps/exp/images/35Bi.jpeg,/home/docky/apps/exp/images/38B.jpeg,0,7,7,7,0,4,4,4,1073.205881853999,None,1073.205881853999,None,1,7.114110990998597,1073.205881853999,None,1080.354165056,None,1080.354165056,None,1082.8590502799998,None,1082.8590502799998,None,1.2508860109992384,1084.659718379,None,1084.659718379,None,5,0,1.0848241979983868,1085.8977481119982,None,1085.8977481119982,None,1085.8977481119982,None,1086.9990816129975,None,1,0.6846899040028802,1086.9990816129975,None,46,1087.7003908849983,None,0,B,1,2021_May_21_1639,GazeFlow,2020.1.2,59.87356128771077,
8,Block801.xls,B,1,6,51,51,None,congruent,Left,Left,Right,33,35,2,yellow,2,6,/home/docky/apps/exp/images/33Yi.jpeg,/home/docky/apps/exp/images/35Y.jpeg,0,7,7,7,0,5,5,5,1088.7025398879996,None,1088.7025398879996,None,1,3.8914156049977464,1088.7025398879996,None,1092.627185563997,None,1092.627185563997,None,1095.1310789359995,None,1095.1310789359995,None,1.2841967470012605,1096.933495219997,None,1096.933495219997,None,6,1,1.0013267629983602,1098.2049103850004,None,1098.2049103850004,None,1098.2049103850004,None,1099.2230938020002,None,1,0.9182646869994642,1099.2230938020002,None,48,1100.1580007659977,None,0,B,1,2021_May_21_1639,GazeFlow,2020.1.2,59.87356128771077,
8,Block801.xls,B,1,7,73,73,None,congruent,Right,Right,Left,35,33,2,yellow,2,5,/home/docky/apps/exp/images/35Yi.jpeg,/home/docky/apps/exp/images/33Y.jpeg,0,7,7,7,0,6,6,6,1101.1600462379974,None,1101.1600462379974,None,1,6.262796660997992,1101.1600462379974,None,1107.4548122509987,None,1107.4548122509987,None,1109.9594350129992,None,1109.9594350129992,None,1.1170950349987834,1111.7631402389998,None,1111.7631402389998,None,6,0,0.9014786150000873,1112.8668192749974,None,1112.8668192749974,None,1112.8668192749974,None,1113.7844574189985,None,1,0.635292983999534,1113.7844574189985,None,46,1114.4362213109998,None,0,B,1,2021_May_21_1639,GazeFlow,2020.1.2,59.87356128771077,
8,Block801.xls,B,1,8,96,96,None,congruent,Right,Right,Left,80,79,1,yellow,2,5,/home/docky/apps/exp/images/80Yi.jpeg,/home/docky/apps/exp/images/79Y.jpeg,0,7,7,7,0,7,7,7,1115.437831493,None,1115.437831493,None,1,4.192634377999639,1115.437831493,None,1119.663901230997,None,1119.663901230997,None,1122.1683450639975,None,1122.1683450639975,None,1.1340677290027088,1123.9700383439995,None,1123.9700383439995,None,6,0,0.884865144998912,1125.0903355400005,None,1125.0903355400005,None,1125.0903355400005,None,1125.9916182499983,None,1,0.6522050210005546,1125.9916182499983,None,44,1126.6599617399988,None,0,B,1,2021_May_21_1639,GazeFlow,2020.1.2,59.87356128771077,
8,Block801.xls,B,,,,,,,,,,,,,,,,,,0,7,7,7,,,,,,,,,,,,,,,,,,,,,,,,,,,,,,,,,,,,,,,,,,,,0,B,1,2021_May_21_1639,GazeFlow,2020.1.2,59.87356128771077,
9,Block802.xls,B,2,1,30,30,None,congruent,Right,Right,Left,38,35,3,blue,2,5,/home/docky/apps/exp/images/38B.jpeg,/home/docky/apps/exp/images/35Bi.jpeg,0,8,8,8,0,0,0,0,1150.6244506570001,None,1150.6244506570001,None,1,4.0799441279996245,1150.6244506570001,None,1154.7321582959994,None,1154.7321582959994,None,1157.2534564779999,None,1157.2534564779999,None,1.6172992329993576,1159.0548164809989,None,1159.0548164809989,None,5,1,1.519204248997994,1160.6594724379975,None,1160.6594724379975,None,1160.6594724379975,None,1162.1952445239986,None,1,0.7517843409987108,1162.1952445239986,None,46,1162.9632184869988,None,0,B,1,2021_May_21_1639,GazeFlow,2020.1.2,59.87356128771077,
9,Block802.xls,B,2,2,5,5,None,congruent,Left,Left,Right,35,38,3,blue,2,6,/home/docky/apps/exp/images/35B.jpeg,/home/docky/apps/exp/images/38Bi.jpeg,0,8,8,8,0,1,1,1,1163.9657200189977,None,1163.9657200189977,None,1,5.244325281000783,1163.9657200189977,None,1169.2432703819977,None,1169.2432703819977,None,1171.7467702249996,None,1171.7467702249996,None,1.0168180840009882,1173.5445759989998,None,1173.5445759989998,None,5,0,2.0367460929992376,1174.5529973079974,None,1174.5529973079974,None,1174.5529973079974,None,1176.606410499,None,1,0.7183662869974796,1176.606410499,None,44,1177.3413650449984,None,0,B,1,2021_May_21_1639,GazeFlow,2020.1.2,59.87356128771077,
9,Block802.xls,B,2,3,103,7,None,incongruent,Left,Right,Left,19,16,3,blue,2,5,/home/docky/apps/exp/images/19Bi.jpeg,/home/docky/apps/exp/images/16B.jpeg,0,8,8,8,0,2,2,2,1178.343677722998,None,1178.343677722998,None,1,4.142119398999057,1178.343677722998,None,1182.5190935719984,None,1182.5190935719984,None,1185.0238626779974,None,1185.0238626779974,None,1.117011143000127,1186.8254484399986,None,1186.8254484399986,None,6,0,0.868003105999378,1187.929088042998,None,1187.929088042998,None,1187.929088042998,None,1188.8133701059996,None,1,0.48532840099869645,1188.8133701059996,None,42,1189.3148848819983,None,0,B,1,2021_May_21_1639,GazeFlow,2020.1.2,59.87356128771077,
9,Block802.xls,B,2,4,35,35,None,congruent,Right,Right,Left,66,65,1,blue,2,5,/home/docky/apps/exp/images/66B.jpeg,/home/docky/apps/exp/images/35Yi.jpeg,0,8,8,8,0,3,3,3,1190.3166691009974,None,1190.3166691009974,None,1,4.509190328997647,1190.3166691009974,None,1194.8596388139995,None,1194.8596388139995,None,1197.3666544849984,None,1197.3666544849984,None,0.7498455960012507,1199.1678944779997,None,1199.1678944779997,None,5,1,1.385660223000741,1199.902296682998,None,1199.902296682998,None,1199.902296682998,None,1201.3043988709978,None,1,0.7021614190016408,1201.3043988709978,None,44,1202.0229956939984,None,0,B,1,2021_May_21_1639,GazeFlow,2020.1.2,59.87356128771077,
9,Block802.xls,B,2,5,42,42,None,congruent,Right,Right,Left,83,80,3,blue,2,5,/home/docky/apps/exp/images/83Bi.jpeg,/home/docky/apps/exp/images/80B.jpeg,0,8,8,8,0,4,4,4,1203.0246946589978,None,1203.0246946589978,None,1,8.199830699002632,1203.0246946589978,None,1211.2584003759985,None,1211.2584003759985,None,1213.7630339639982,None,1213.7630339639982,None,0.9667937839985825,1215.5596467799987,None,1215.5596467799987,None,5,1,0.9845726780004043,1216.5179854419985,None,1216.5179854419985,None,1216.5179854419985,None,1217.519475268,None,1,0.7187531880008464,1217.519475268,None,46,1218.2544778189986,None,0,B,1,2021_May_21_1639,GazeFlow,2020.1.2,59.87356128771077,
9,Block802.xls,B,2,6,104,8,None,incongruent,Left,Right,Left,38,35,3,blue,2,5,/home/docky/apps/exp/images/38B.jpeg,/home/docky/apps/exp/images/35Bi.jpeg,0,8,8,8,0,5,5,5,1219.255988957997,None,1219.255988957997,None,1,5.778612841000722,1219.255988957997,None,1225.0683607319988,None,1225.0683607319988,None,1227.572970287998,None,1227.572970287998,None,1.1170799450010236,1229.3749356679982,None,1229.3749356679982,None,5,1,1.068101987002592,1230.4783379039982,None,1230.4783379039982,None,1230.4783379039982,None,1231.5632238789985,None,1,0.6519381420002901,1231.5632238789985,None,48,1232.2316072689973,None,0,B,1,2021_May_21_1639,GazeFlow,2020.1.2,59.87356128771077,
9,Block802.xls,B,2,7,22,22,None,congruent,Left,Left,Right,80,83,3,blue,2,6,/home/docky/apps/exp/images/80Bi.jpeg,/home/docky/apps/exp/images/83B.jpeg,0,8,8,8,0,6,6,6,1233.2333055130002,None,1233.2333055130002,None,1,4.091931177998049,1233.2333055130002,None,1237.3590807369983,None,1237.3590807369983,None,1239.862384205997,None,1239.862384205997,None,1.0166772670017963,1241.665547176999,None,1241.665547176999,None,6,1,0.8343246320000617,1242.6685587069987,None,1242.6685587069987,None,1242.6685587069987,None,1243.5194871439999,None,1,0.6522600620010053,1243.5194871439999,None,50,1244.1882173119993,None,0,B,1,2021_May_21_1639,GazeFlow,2020.1.2,59.87356128771077,
9,Block802.xls,B,2,8,54,54,None,congruent,Left,Left,Right,65,66,1,yellow,2,6,/home/docky/apps/exp/images/35Bi.jpeg,/home/docky/apps/exp/images/66Y.jpeg,0,8,8,8,0,7,7,7,1245.1896594499995,None,1245.1896594499995,None,1,5.261468598000647,1245.1896594499995,None,1250.4845281919988,None,1250.4845281919988,None,1252.9939323729996,None,1252.9939323729996,None,1.10046050299934,1254.7925798510005,None,1254.7925798510005,None,6,1,0.8847996370022884,1255.8777031579993,None,1255.8777031579993,None,1255.8777031579993,None,1256.7787173399993,None,1,0.6353893270024855,1256.7787173399993,None,52,1257.430604928999,None,0,B,1,2021_May_21_1639,GazeFlow,2020.1.2,59.87356128771077,
9,Block802.xls,B,,,,,,,,,,,,,,,,,,0,8,8,8,,,,,,,,,,,,,,,,,,,,,,,,,,,,,,,,,,,,,,,,,,,,0,B,1,2021_May_21_1639,GazeFlow,2020.1.2,59.87356128771077,
10,Block813.xls,B,13,1,70,70,None,congruent,Left,Left,Right,79,82,3,yellow,2,6,/home/docky/apps/exp/images/79Yi.jpeg,/home/docky/apps/exp/images/80Y.jpeg,0,9,9,9,0,0,0,0,1279.2409557799983,None,1279.2409557799983,None,1,3.9632652529980987,1279.2409557799983,None,1283.2345171199995,None,1283.2345171199995,None,1285.7527631189987,None,1285.7527631189987,None,1.133085110999673,1287.5494725809986,None,1287.5494725809986,None,6,1,1.018369284000073,1288.6746722209973,None,1288.6746722209973,None,1288.6746722209973,None,1289.7092998469998,None,1,0.7690292129991576,1289.7092998469998,None,54,1290.4948063390002,None,0,B,1,2021_May_21_1639,GazeFlow,2020.1.2,59.87356128771077,
10,Block813.xls,B,13,2,60,60,None,congruent,Left,Left,Right,38,39,1,yellow,2,6,/home/docky/apps/exp/images/38Yi.jpeg,/home/docky/apps/exp/images/39Y.jpeg,0,9,9,9,0,1,1,1,1291.4964433669993,None,1291.4964433669993,None,1,4.259331943998404,1291.4964433669993,None,1295.7891657090004,None,1295.7891657090004,None,1298.2959307109995,None,1298.2959307109995,None,1.1171493930014549,1300.097254725999,None,1300.097254725999,None,5,0,0.8681649399986782,1301.199100758,None,1301.199100758,None,1301.199100758,None,1302.0835417889975,None,1,0.6854700999974739,1302.0835417889975,None,52,1302.7852934779985,None,0,B,1,2021_May_21_1639,GazeFlow,2020.1.2,59.87356128771077,
10,Block813.xls,B,13,3,81,81,None,congruent,Right,Right,Left,66,65,1,yellow,2,5,/home/docky/apps/exp/images/66Y.jpeg,/home/docky/apps/exp/images/35Bi.jpeg,0,9,9,9,0,2,2,2,1303.7869387829996,None,1303.7869387829996,None,1,4.676446960998874,1303.7869387829996,None,1308.495279073999,None,1308.495279073999,None,1311.0015230009994,None,1311.0015230009994,None,1.3672910000022966,1312.8036279389999,None,1312.8036279389999,None,6,0,1.6357510930029093,1314.1576477439994,None,1314.1576477439994,None,1314.1576477439994,None,1315.810372603999,None,1,0.6010772259978694,1315.810372603999,None,50,1316.4282256240003,None,0,B,1,2021_May_21_1639,GazeFlow,2020.1.2,59.87356128771077,
10,Block813.xls,B,13,4,110,14,None,incongruent,Right,Left,Right,65,66,1,yellow,2,6,/home/docky/apps/exp/images/35B.jpeg,/home/docky/apps/exp/images/66Yi.jpeg,0,9,9,9,0,3,3,3,1317.4301099909972,None,1317.4301099909972,None,1,4.526068677001604,1317.4301099909972,None,1321.9940347459997,None,1321.9940347459997,None,1324.4930620449995,None,1324.4930620449995,None,1.1838932339996973,1326.2966799489986,None,1326.2966799489986,None,6,1,1.6871277860009286,1327.466815902997,None,1327.466815902997,None,1327.466815902997,None,1329.1697884249988,None,1,0.5175055519976013,1329.1697884249988,None,52,1329.7037197799982,None,0,B,1,2021_May_21_1639,GazeFlow,2020.1.2,59.87356128771077,
10,Block813.xls,B,13,5,17,17,None,congruent,Left,Left,Right,73,76,3,blue,2,6,/home/docky/apps/exp/images/73Bi.jpeg,/home/docky/apps/exp/images/76B.jpeg,0,9,9,9,0,4,4,4,1330.7061923369984,None,1330.7061923369984,None,1,4.125370506000763,1330.7061923369984,None,1334.8649202449997,None,1334.8649202449997,None,1337.3678502639996,None,1337.3678502639996,None,1.2339064580010017,1339.171732052997,None,1339.171732052997,None,6,1,0.9180710690015985,1340.3918817689992,None,1340.3918817689992,None,1340.3918817689992,None,1341.3263044939995,None,1,0.8853698140010238,1341.3263044939995,None,54,1342.2280929070002,None,0,B,1,2021_May_21_1639,GazeFlow,2020.1.2,59.87356128771077,
10,Block813.xls,B,13,6,111,15,None,incongruent,Right,Left,Right,62,65,3,yellow,2,6,/home/docky/apps/exp/images/38B.jpeg,/home/docky/apps/exp/images/35Bi.jpeg,0,9,9,9,0,5,5,5,1343.2301395929971,None,1343.2301395929971,None,1,3.975361669999984,1343.2301395929971,None,1347.2389116509985,None,1347.2389116509985,None,1349.7419142269973,None,1349.7419142269973,None,1.0836146629990253,1351.539329624,None,1351.539329624,None,6,1,0.8512805259997549,1352.615737445998,None,1352.615737445998,None,1352.615737445998,None,1353.4834700689971,None,1,0.5683391200000187,1353.4834700689971,None,56,1354.0682539049994,None,0,B,1,2021_May_21_1639,GazeFlow,2020.1.2,59.87356128771077,
10,Block813.xls,B,13,7,55,55,None,congruent,Left,Left,Right,65,66,1,yellow,2,6,/home/docky/apps/exp/images/35B.jpeg,/home/docky/apps/exp/images/66Yi.jpeg,0,9,9,9,0,6,6,6,1355.0696826759995,None,1355.0696826759995,None,1,4.42592371599676,1355.0696826759995,None,1359.5292490859974,None,1359.5292490859974,None,1362.0344348899998,None,1362.0344348899998,None,0.983381083002314,1363.835615101998,None,1363.835615101998,None,6,1,0.8673998750018654,1364.806227388999,None,1364.806227388999,None,1364.806227388999,None,1365.6905213969985,None,1,0.5348257570003625,1365.6905213969985,None,58,1366.2418702169998,None,0,B,1,2021_May_21_1639,GazeFlow,2020.1.2,59.87356128771077,
10,Block813.xls,B,13,8,26,26,None,congruent,Right,Right,Left,19,16,3,blue,2,5,/home/docky/apps/exp/images/19B.jpeg,/home/docky/apps/exp/images/16Bi.jpeg,0,9,9,9,0,7,7,7,1367.243358380998,None,1367.243358380998,None,1,3.6916864049999276,1367.243358380998,None,1370.9686350239972,None,1370.9686350239972,None,1373.472912232999,None,1373.472912232999,None,1.21739024800263,1375.2748470509978,None,1375.2748470509978,None,6,0,0.9515660299985029,1376.4785893599983,None,1376.4785893599983,None,1376.4785893599983,None,1377.4465493719981,None,1,0.5851196209987393,1377.4465493719981,None,56,1378.0481522869995,None,0,B,1,2021_May_21_1639,GazeFlow,2020.1.2,59.87356128771077,
10,Block813.xls,B,,,,,,,,,,,,,,,,,,0,9,9,9,,,,,,,,,,,,,,,,,,,,,,,,,,,,,,,,,,,,,,,,,,,,0,B,1,2021_May_21_1639,GazeFlow,2020.1.2,59.87356128771077,
11,Block806.xls,B,6,1,10,10,None,congruent,Left,Left,Right,65,66,1,blue,2,6,/home/docky/apps/exp/images/35Y.jpeg,/home/docky/apps/exp/images/66Bi.jpeg,0,10,10,10,0,0,0,0,1402.5299851249983,None,1402.5299851249983,None,1,4.949748816998181,1402.5299851249983,None,1407.514024117998,None,1407.514024117998,None,1410.0276998029985,None,1410.0276998029985,None,0.9993227000013576,1411.8311008639976,None,1411.8311008639976,None,6,1,0.8678225389994623,1412.8156308349971,None,1412.8156308349971,None,1412.8156308349971,None,1413.6999683409995,None,1,0.5857910439990519,1413.6999683409995,None,58,1414.3019150849977,None,0,B,1,2021_May_21_1639,GazeFlow,2020.1.2,59.87356128771077,
11,Block806.xls,B,6,2,89,89,None,congruent,Right,Right,Left,76,69,7,yellow,2,5,/home/docky/apps/exp/images/76Yi.jpeg,/home/docky/apps/exp/images/69Y.jpeg,0,10,10,10,0,1,1,1,1415.3031856939997,None,1415.3031856939997,None,1,3.9416856069983623,1415.3031856939997,None,1419.2771892339988,None,1419.2771892339988,None,1421.782017919999,None,1421.782017919999,None,1.5846762010005477,1423.5799606149994,None,1423.5799606149994,None,5,1,1.2358909809991019,1425.156853092998,None,1425.156853092998,None,1425.156853092998,None,1426.408585186,None,1,0.6344073420004861,1426.408585186,None,60,1427.059614812999,None,0,B,1,2021_May_21_1639,GazeFlow,2020.1.2,59.87356128771077,
11,Block806.xls,B,6,3,88,88,None,congruent,Right,Right,Left,76,69,7,yellow,2,5,/home/docky/apps/exp/images/76Y.jpeg,/home/docky/apps/exp/images/69Yi.jpeg,0,10,10,10,0,2,2,2,1428.0618474099974,None,1428.0618474099974,None,1,4.208501830002206,1428.0618474099974,None,1432.3043855889991,None,1432.3043855889991,None,1434.8069694900005,None,1434.8069694900005,None,0.9667490880019614,1436.608435230999,None,1436.608435230999,None,5,1,0.9181982930022059,1437.5637805769984,None,1437.5637805769984,None,1437.5637805769984,None,1438.4984444250003,None,1,0.6684115069983818,1438.4984444250003,None,62,1439.1828345469985,None,0,B,1,2021_May_21_1639,GazeFlow,2020.1.2,59.87356128771077,
11,Block806.xls,B,6,4,109,13,None,incongruent,Right,Left,Right,33,35,2,yellow,2,6,/home/docky/apps/exp/images/33Yi.jpeg,/home/docky/apps/exp/images/35Y.jpeg,0,10,10,10,0,3,3,3,1440.1851385989976,None,1440.1851385989976,None,1,4.008450524001091,1440.1851385989976,None,1444.227369835,None,1444.227369835,None,1446.7301151699976,None,1446.7301151699976,None,1.1338502430007793,1448.5283382239977,None,1448.5283382239977,None,6,1,1.7705207789986162,1449.6541531399998,None,1449.6541531399998,None,1449.6541531399998,None,1451.440885901,None,1,0.6510830910010554,1451.440885901,None,64,1452.1079841889987,None,0,B,1,2021_May_21_1639,GazeFlow,2020.1.2,59.87356128771077,
11,Block806.xls,B,6,5,37,37,None,congruent,Right,Right,Left,79,73,6,blue,2,5,/home/docky/apps/exp/images/79Bi.jpeg,/home/docky/apps/exp/images/73B.jpeg,0,10,10,10,0,4,4,4,1453.110076162,None,1453.110076162,None,1,3.92531614699692,1453.110076162,None,1457.0690714539996,None,1457.0690714539996,None,1459.5738996849977,None,1459.5738996849977,None,0.9166219520011509,1461.3759920640005,None,1461.3759920640005,None,5,1,1.436495891000959,1462.2786687160005,None,1462.2786687160005,None,1462.2786687160005,None,1463.7312156389999,None,1,0.600830835999659,1463.7312156389999,None,66,1464.3488480880005,None,0,B,1,2021_May_21_1639,GazeFlow,2020.1.2,59.87356128771077,
11,Block806.xls,B,6,6,108,12,None,incongruent,Left,Right,Left,39,38,1,blue,2,5,/home/docky/apps/exp/images/39Bi.jpeg,/home/docky/apps/exp/images/38B.jpeg,0,10,10,10,0,5,5,5,1465.3506662580003,None,1465.3506662580003,None,1,4.0423360530003265,1465.3506662580003,None,1469.4264861779993,None,1469.4264861779993,None,1471.929428108997,None,1471.929428108997,None,1.150383193999005,1473.7325832049974,None,1473.7325832049974,None,6,0,0.8510705160006182,1474.8697284519985,None,1474.8697284519985,None,1474.8697284519985,None,1475.7372839029995,None,1,0.618666120000853,1475.7372839029995,None,64,1476.3719622869976,None,0,B,1,2021_May_21_1639,GazeFlow,2020.1.2,59.87356128771077,
11,Block806.xls,B,6,7,52,52,None,congruent,Left,Left,Right,65,66,1,yellow,2,6,/home/docky/apps/exp/images/35B.jpeg,/home/docky/apps/exp/images/66Yi.jpeg,0,10,10,10,0,6,6,6,1477.3739097269972,None,1477.3739097269972,None,1,3.7581089710001834,1477.3739097269972,None,1481.1658407469986,None,1481.1658407469986,None,1483.6689584019987,None,1483.6689584019987,None,1.2171681120016729,1485.4676419429998,None,1485.4676419429998,None,6,1,1.302201979997335,1486.6758667590002,None,1486.6758667590002,None,1486.6758667590002,None,1487.9945191339975,None,1,0.5178689610002039,1487.9945191339975,None,66,1488.5287948369987,None,0,B,1,2021_May_21_1639,GazeFlow,2020.1.2,59.87356128771077,
11,Block806.xls,B,6,8,75,75,None,congruent,Right,Right,Left,35,33,2,yellow,2,5,/home/docky/apps/exp/images/35Yi.jpeg,/home/docky/apps/exp/images/33Y.jpeg,0,10,10,10,0,7,7,7,1489.5312777629988,None,1489.5312777629988,None,1,4.776400670998555,1489.5312777629988,None,1494.3454207729992,None,1494.3454207729992,None,1496.8461370139994,None,1496.8461370139994,None,1.0503259379984229,1498.647468321,None,1498.647468321,None,6,0,0.800780826000846,1499.6846671329986,None,1499.6846671329986,None,1499.6846671329986,None,1500.502320102998,None,1,0.46782139700007974,1500.502320102998,None,64,1500.9865394499975,None,0,B,1,2021_May_21_1639,GazeFlow,2020.1.2,59.87356128771077,
11,Block806.xls,B,,,,,,,,,,,,,,,,,,0,10,10,10,,,,,,,,,,,,,,,,,,,,,,,,,,,,,,,,,,,,,,,,,,,,0,B,1,2021_May_21_1639,GazeFlow,2020.1.2,59.87356128771077,
12,Block811.xls,B,11,1,86,86,None,congruent,Right,Right,Left,75,69,6,yellow,2,5,/home/docky/apps/exp/images/76Y.jpeg,/home/docky/apps/exp/images/69Yi.jpeg,0,11,11,11,0,0,0,0,1524.7846323919985,None,1524.7846323919985,None,1,4.498227914999006,1524.7846323919985,None,1529.3107493009993,None,1529.3107493009993,None,1531.8308084519995,None,1531.8308084519995,None,0.8659890519993496,1533.6343451169996,None,1533.6343451169996,None,5,1,1.0180663489991275,1534.485435101,None,1534.485435101,None,1534.485435101,None,1535.5202562269988,None,1,0.617862076000165,1535.5202562269988,None,66,1536.154818308998,None,0,B,1,2021_May_21_1639,GazeFlow,2020.1.2,59.87356128771077,
12,Block811.xls,B,11,2,83,83,None,congruent,Right,Right,Left,75,69,6,yellow,2,5,/home/docky/apps/exp/images/76Yi.jpeg,/home/docky/apps/exp/images/69Y.jpeg,0,11,11,11,0,1,1,1,1537.1566908249988,None,1537.1566908249988,None,1,4.042499355997279,1537.1566908249988,None,1541.2364524139994,None,1541.2364524139994,None,1543.7356988809988,None,1543.7356988809988,None,1.0001758999969752,1545.5332030179998,None,1545.5332030179998,None,5,1,0.8842872400018678,1546.5255938499977,None,1546.5255938499977,None,1546.5255938499977,None,1547.4267313969976,None,1,0.6015732349987957,1547.4267313969976,None,68,1548.0445623339983,None,0,B,1,2021_May_21_1639,GazeFlow,2020.1.2,59.87356128771077,
12,Block811.xls,B,11,3,28,28,None,congruent,Right,Right,Left,38,35,3,blue,2,5,/home/docky/apps/exp/images/38Bi.jpeg,/home/docky/apps/exp/images/35B.jpeg,0,11,11,11,0,2,2,2,1549.0466885349997,None,1549.0466885349997,None,1,5.360873854999227,1549.0466885349997,None,1554.4413978459997,None,1554.4413978459997,None,1556.9461888699989,None,1556.9461888699989,None,0.9503443729990977,1558.747764544998,None,1558.747764544998,None,6,0,0.8848118819987576,1559.6844586549996,None,1559.6844586549996,None,1559.6844586549996,None,1560.5856353759991,None,1,0.535050719998253,1560.5856353759991,None,66,1561.1371189419988,None,0,B,1,2021_May_21_1639,GazeFlow,2020.1.2,59.87356128771077,
12,Block811.xls,B,11,4,58,58,None,congruent,Left,Left,Right,62,65,3,yellow,2,6,/home/docky/apps/exp/images/38B.jpeg,/home/docky/apps/exp/images/35Bi.jpeg,0,11,11,11,0,3,3,3,1562.1384702430005,None,1562.1384702430005,None,1,3.825032337997982,1562.1384702430005,None,1565.9974650859986,None,1565.9974650859986,None,1568.5036869369978,None,1568.5036869369978,None,1.1673357710023993,1570.3035623869982,None,1570.3035623869982,None,6,1,0.8847374229990237,1571.4573619919975,None,1571.4573619919975,None,1571.4573619919975,None,1572.358665713,None,1,0.4843736050024745,1572.358665713,None,68,1572.8595425349995,None,0,B,1,2021_May_21_1639,GazeFlow,2020.1.2,59.87356128771077,
12,Block811.xls,B,11,5,32,32,None,congruent,Right,Right,Left,66,65,1,blue,2,5,/home/docky/apps/exp/images/66Bi.jpeg,/home/docky/apps/exp/images/35Y.jpeg,0,11,11,11,0,4,4,4,1573.8615549889983,None,1573.8615549889983,None,1,3.7910398589992838,1573.8615549889983,None,1577.673811671997,None,1577.673811671997,None,1580.1896459419986,None,1580.1896459419986,None,0.9168602279969491,1581.9931548249988,None,1581.9931548249988,None,6,0,1.018379910998192,1582.895929088998,None,1582.895929088998,None,1582.895929088998,None,1583.93097845,None,1,0.6018452479984262,1583.93097845,None,66,1584.549014461998,None,0,B,1,2021_May_21_1639,GazeFlow,2020.1.2,59.87356128771077,
12,Block811.xls,B,11,6,67,67,None,congruent,Left,Left,Right,72,77,5,yellow,2,6,/home/docky/apps/exp/images/72Y.jpeg,/home/docky/apps/exp/images/77Yi.jpeg,0,11,11,11,0,5,5,5,1585.550766870998,None,1585.550766870998,None,1,3.490780611999071,1585.550766870998,None,1589.0754248539997,None,1589.0754248539997,None,1591.5780286469999,None,1591.5780286469999,None,0.6830391889961902,1593.3814538299957,None,1593.3814538299957,None,5,0,6.429237520998868,1594.051165283996,None,1594.051165283996,None,1594.051165283996,None,1600.4968377829973,None,1,0.7349662880005781,1600.4968377829973,None,64,1601.248328769998,None,0,B,1,2021_May_21_1639,GazeFlow,2020.1.2,59.87356128771077,
12,Block811.xls,B,11,7,120,24,None,incongruent,Left,Right,Left,77,72,5,yellow,2,5,/home/docky/apps/exp/images/77Y.jpeg,/home/docky/apps/exp/images/72Yi.jpeg,0,11,11,11,0,6,6,6,1602.250328074002,None,1602.250328074002,None,1,4.058058725000592,1602.250328074002,None,1606.3422222089976,None,1606.3422222089976,None,1608.846747392996,None,1608.846747392996,None,1.0504957090015523,1610.6480980960005,None,1610.6480980960005,None,5,1,0.817707562004216,1611.6855575420013,None,1611.6855575420013,None,1611.6855575420013,None,1612.5199575740007,None,1,0.5848491979995742,1612.5199575740007,None,66,1613.1213343579984,None,0,B,1,2021_May_21_1639,GazeFlow,2020.1.2,59.87356128771077,
12,Block811.xls,B,11,8,57,57,None,congruent,Left,Left,Right,62,65,3,yellow,2,6,/home/docky/apps/exp/images/38Bi.jpeg,/home/docky/apps/exp/images/35B.jpeg,0,11,11,11,0,7,7,7,1614.1228009289953,None,1614.1228009289953,None,1,3.7747295789959026,1614.1228009289953,None,1617.9314028010012,None,1617.9314028010012,None,1620.4345327110022,None,1620.4345327110022,None,0.8833955110021634,1622.2383877759967,None,1622.2383877759967,None,6,1,0.8015535020022071,1623.1075255509968,None,1623.1075255509968,None,1623.1075255509968,None,1623.925223616996,None,1,0.6681758849954349,1623.925223616996,None,68,1624.6106243829963,None,0,B,1,2021_May_21_1639,GazeFlow,2020.1.2,59.87356128771077,
12,Block811.xls,B,,,,,,,,,,,,,,,,,,0,11,11,11,,,,,,,,,,,,,,,,,,,,,,,,,,,,,,,,,,,,,,,,,,,,0,B,1,2021_May_21_1639,GazeFlow,2020.1.2,59.87356128771077,
13,Block808.xls,B,8,1,118,22,None,incongruent,Left,Right,Left,75,69,6,yellow,2,5,/home/docky/apps/exp/images/76Y.jpeg,/home/docky/apps/exp/images/69Yi.jpeg,0,12,12,12,0,0,0,0,1652.065856213001,None,1652.065856213001,None,1,4.9680112109999754,1652.065856213001,None,1657.0549911509988,None,1657.0549911509988,None,1659.5789799239974,None,1659.5789799239974,None,1.0495821879958385,1661.3804484210013,None,1661.3804484210013,None,5,1,0.8345185610014596,1662.4171674919962,None,1662.4171674919962,None,1662.4171674919962,None,1663.2683976119988,None,1,0.6020581300035701,1663.2683976119988,None,70,1663.8867085580023,None,0,B,1,2021_May_21_1639,GazeFlow,2020.1.2,59.87356128771077,
13,Block808.xls,B,8,2,7,7,None,congruent,Left,Left,Right,65,66,1,blue,2,6,/home/docky/apps/exp/images/35Yi.jpeg,/home/docky/apps/exp/images/66B.jpeg,0,12,12,12,0,1,1,1,1664.8880252740018,None,1664.8880252740018,None,1,5.5620176299999,1664.8880252740018,None,1670.4842728760013,None,1670.4842728760013,None,1672.986646043002,None,1672.986646043002,None,1.05020854799659,1674.7892769520004,None,1674.7892769520004,None,5,0,1.5196935459971428,1675.8266243279977,None,1675.8266243279977,None,1675.8266243279977,None,1677.3628424829985,None,1,0.6508299440029077,1677.3628424829985,None,68,1678.030285539,None,0,B,1,2021_May_21_1639,GazeFlow,2020.1.2,59.87356128771077,
13,Block808.xls,B,8,3,112,16,None,incongruent,Right,Left,Right,69,76,7,yellow,2,6,/home/docky/apps/exp/images/69Yi.jpeg,/home/docky/apps/exp/images/76Y.jpeg,0,12,12,12,0,2,2,2,1679.0323478879982,None,1679.0323478879982,None,1,3.791238916994189,1679.0323478879982,None,1682.857585171998,None,1682.857585171998,None,1685.3606210819962,None,1685.3606210819962,None,0.9669190349959536,1687.1660657549983,None,1687.1660657549983,None,6,1,0.8845228950012824,1688.1172704349992,None,1688.1172704349992,None,1688.1172704349992,None,1689.018527696,None,1,0.5688947989983717,1689.018527696,None,70,1689.6031004259967,None,0,B,1,2021_May_21_1639,GazeFlow,2020.1.2,59.87356128771077,
13,Block808.xls,B,8,4,97,1,None,incongruent,Right,Left,Right,16,19,3,blue,2,6,/home/docky/apps/exp/images/16Bi.jpeg,/home/docky/apps/exp/images/19B.jpeg,0,12,12,12,0,3,3,3,1690.6049947169995,None,1690.6049947169995,None,1,3.7244756260042777,1690.6049947169995,None,1694.3632705730015,None,1694.3632705730015,None,1696.8659490070022,None,1696.8659490070022,None,0.9502173229993787,1698.6686528559985,None,1698.6686528559985,None,5,0,0.8511619130003965,1699.6062202770008,None,1699.6062202770008,None,1699.6062202770008,None,1700.4741288889963,None,1,0.6513430169943604,1700.4741288889963,None,68,1701.1417949290008,None,0,B,1,2021_May_21_1639,GazeFlow,2020.1.2,59.87356128771077,
13,Block808.xls,B,8,5,24,24,None,congruent,Left,Left,Right,80,83,3,blue,2,6,/home/docky/apps/exp/images/80Bi.jpeg,/home/docky/apps/exp/images/83B.jpeg,0,12,12,12,0,4,4,4,1702.1439578769969,None,1702.1439578769969,None,1,3.3404467739965185,1702.1439578769969,None,1705.5180478139991,None,1705.5180478139991,None,1708.020926811998,None,1708.020926811998,None,0.9667487370024901,1709.8240426529992,None,1709.8240426529992,None,6,1,0.9012402730004396,1710.777899427001,None,1710.777899427001,None,1710.777899427001,None,1711.6957149799964,None,1,0.6356241989997216,1711.6957149799964,None,70,1712.3475071489993,None,0,B,1,2021_May_21_1639,GazeFlow,2020.1.2,59.87356128771077,
13,Block808.xls,B,8,6,13,13,None,congruent,Left,Left,Right,38,39,1,blue,2,6,/home/docky/apps/exp/images/38Bi.jpeg,/home/docky/apps/exp/images/39B.jpeg,0,12,12,12,0,5,5,5,1713.3490807570015,None,1713.3490807570015,None,1,3.2569069789969944,1713.3490807570015,None,1716.6400144979962,None,1716.6400144979962,None,1719.149059899999,None,1719.149059899999,None,1.1003407440002775,1720.9464417710005,None,1720.9464417710005,None,5,0,0.8175285580000491,1722.0333152720013,None,1722.0333152720013,None,1722.0333152720013,None,1722.867448050998,None,1,0.5677496549978969,1722.867448050998,None,68,1723.4520306449958,None,0,B,1,2021_May_21_1639,GazeFlow,2020.1.2,59.87356128771077,
13,Block808.xls,B,8,7,8,8,None,congruent,Left,Left,Right,65,66,1,blue,2,6,/home/docky/apps/exp/images/35Y.jpeg,/home/docky/apps/exp/images/66Bi.jpeg,0,12,12,12,0,6,6,6,1724.4543403300013,None,1724.4543403300013,None,1,3.3568752639985178,1724.4543403300013,None,1727.8428959449993,None,1727.8428959449993,None,1730.3479186369987,None,1730.3479186369987,None,1.0836136719954084,1732.1516449520022,None,1732.1516449520022,None,6,1,0.8346029929962242,1733.2215769430004,None,1733.2215769430004,None,1733.2215769430004,None,1734.072527813998,None,1,0.5850864140011254,1734.072527813998,None,70,1734.674088775002,None,0,B,1,2021_May_21_1639,GazeFlow,2020.1.2,59.87356128771077,
13,Block808.xls,B,8,8,31,31,None,congruent,Right,Right,Left,66,65,1,blue,2,5,/home/docky/apps/exp/images/66B.jpeg,/home/docky/apps/exp/images/35Yi.jpeg,0,12,12,12,0,7,7,7,1735.6756405669985,None,1735.6756405669985,None,1,3.5915122680016793,1735.6756405669985,None,1739.301648233999,None,1739.301648233999,None,1741.805350640996,None,1741.805350640996,None,1.0334282500043628,1743.6052834039983,None,1743.6052834039983,None,5,1,0.8678121859993553,1744.6269433939997,None,1744.6269433939997,None,1744.6269433939997,None,1745.511638303,None,1,0.6844394120053039,1745.511638303,None,72,1746.2132554879972,None,0,B,1,2021_May_21_1639,GazeFlow,2020.1.2,59.87356128771077,
13,Block808.xls,B,,,,,,,,,,,,,,,,,,0,12,12,12,,,,,,,,,,,,,,,,,,,,,,,,,,,,,,,,,,,,,,,,,,,,0,B,1,2021_May_21_1639,GazeFlow,2020.1.2,59.87356128771077,
14,Block815.xls,B,15,1,65,65,None,congruent,Left,Left,Right,69,76,7,yellow,2,6,/home/docky/apps/exp/images/69Yi.jpeg,/home/docky/apps/exp/images/76Y.jpeg,0,13,13,13,0,0,0,0,1771.8497015450012,None,1771.8497015450012,None,1,4.113147158001084,1771.8497015450012,None,1775.9906166330002,None,1775.9906166330002,None,1778.5082362860012,None,1778.5082362860012,None,0.9495954259982682,1780.3119045099993,None,1780.3119045099993,None,6,1,0.8011388710001484,1781.2481689679953,None,1781.2481689679953,None,1781.2481689679953,None,1782.0659063460007,None,1,0.5509386249977979,1782.0659063460007,None,74,1782.633670772997,None,0,B,1,2021_May_21_1639,GazeFlow,2020.1.2,59.87356128771077,
14,Block815.xls,B,15,2,102,6,None,incongruent,Right,Left,Right,80,83,3,blue,2,6,/home/docky/apps/exp/images/80B.jpeg,/home/docky/apps/exp/images/83Bi.jpeg,0,13,13,13,0,1,1,1,1783.6356265519971,None,1783.6356265519971,None,1,3.7245700000057695,1783.6356265519971,None,1787.392424994996,None,1787.392424994996,None,1789.8967004670012,None,1789.8967004670012,None,1.0668627490013023,1791.7005573940005,None,1791.7005573940005,None,6,1,0.9847547620011028,1792.7538491599953,None,1792.7538491599953,None,1792.7538491599953,None,1793.7553354320007,None,1,0.5019596919955802,1793.7553354320007,None,76,1794.2727635090014,None,0,B,1,2021_May_21_1639,GazeFlow,2020.1.2,59.87356128771077,
14,Block815.xls,B,15,3,33,33,None,congruent,Right,Right,Left,66,65,1,blue,2,5,/home/docky/apps/exp/images/66Bi.jpeg,/home/docky/apps/exp/images/35Y.jpeg,0,13,13,13,0,2,2,2,1795.2749769179973,None,1795.2749769179973,None,1,3.441050486995664,1795.2749769179973,None,1798.7497606069992,None,1798.7497606069992,None,1801.2525493649991,None,1801.2525493649991,None,1.0335086319973925,1803.0555233669984,None,1803.0555233669984,None,5,1,1.5524013280009967,1804.0758177630014,None,1804.0758177630014,None,1804.0758177630014,None,1805.6454270840004,None,1,0.567678581996006,1805.6454270840004,None,78,1806.2293373609973,None,0,B,1,2021_May_21_1639,GazeFlow,2020.1.2,59.87356128771077,
14,Block815.xls,B,15,4,72,72,None,congruent,Left,Left,Right,79,82,3,yellow,2,6,/home/docky/apps/exp/images/79Yi.jpeg,/home/docky/apps/exp/images/80Y.jpeg,0,13,13,13,0,3,3,3,1807.231158475999,None,1807.231158475999,None,1,3.457839343995147,1807.231158475999,None,1810.7226881409988,None,1810.7226881409988,None,1813.2254838280023,None,1813.2254838280023,None,1.0671046450006543,1815.0290755479982,None,1815.0290755479982,None,6,1,0.867622780999227,1816.0825285169958,None,1816.0825285169958,None,1816.0825285169958,None,1816.9668700200018,None,1,0.5015308360016206,1816.9668700200018,None,80,1817.4850531489974,None,0,B,1,2021_May_21_1639,GazeFlow,2020.1.2,59.87356128771077,
14,Block815.xls,B,15,5,100,4,None,incongruent,Right,Left,Right,73,76,3,blue,2,6,/home/docky/apps/exp/images/73B.jpeg,/home/docky/apps/exp/images/76Bi.jpeg,0,13,13,13,0,4,4,4,1818.4865829949958,None,1818.4865829949958,None,1,3.841484986995056,1818.4865829949958,None,1822.362047685001,None,1822.362047685001,None,1824.8707732489966,None,1824.8707732489966,None,1.0502420230041025,1826.668031063,None,1826.668031063,None,5,0,1.0349775419963407,1827.7050862880023,None,1827.7050862880023,None,1827.7050862880023,None,1828.7565390799973,None,1,0.8850165760013624,1828.7565390799973,None,78,1829.6583816629973,None,0,B,1,2021_May_21_1639,GazeFlow,2020.1.2,59.87356128771077,
14,Block815.xls,B,15,6,45,45,None,congruent,Right,Right,Left,39,38,1,blue,2,5,/home/docky/apps/exp/images/39B.jpeg,/home/docky/apps/exp/images/38Bi.jpeg,0,13,13,13,0,5,5,5,1830.6602129950006,None,1830.6602129950006,None,1,4.610038737002469,1830.6602129950006,None,1835.3035606199956,None,1835.3035606199956,None,1837.8068643199986,None,1837.8068643199986,None,0.9497871499988833,1839.607573035999,None,1839.607573035999,None,6,0,0.9345381489983993,1840.546622150996,None,1840.546622150996,None,1840.546622150996,None,1841.4977651319969,None,1,0.5354007510031806,1841.4977651319969,None,76,1842.0495363389964,None,0,B,1,2021_May_21_1639,GazeFlow,2020.1.2,59.87356128771077,
14,Block815.xls,B,15,7,98,2,None,incongruent,Right,Left,Right,35,38,3,blue,2,6,/home/docky/apps/exp/images/35Bi.jpeg,/home/docky/apps/exp/images/38B.jpeg,0,13,13,13,0,6,6,6,1843.0506899020002,None,1843.0506899020002,None,1,3.808269446999475,1843.0506899020002,None,1846.892635469001,None,1846.892635469001,None,1849.3974013730003,None,1849.3974013730003,None,1.0166878379968693,1851.2011642199977,None,1851.2011642199977,None,5,0,0.8680191819948959,1852.2025309130004,None,1852.2025309130004,None,1852.2025309130004,None,1853.086982404002,None,1,0.7014299579968792,1853.086982404002,None,74,1853.8053636129953,None,0,B,1,2021_May_21_1639,GazeFlow,2020.1.2,59.87356128771077,
14,Block815.xls,B,15,8,59,59,None,congruent,Left,Left,Right,38,39,1,yellow,2,6,/home/docky/apps/exp/images/38Yi.jpeg,/home/docky/apps/exp/images/39Y.jpeg,0,13,13,13,0,7,7,7,1854.8072290419987,None,1854.8072290419987,None,1,4.626574720998178,1854.8072290419987,None,1859.4671292250023,None,1859.4671292250023,None,1861.9701452049958,None,1861.9701452049958,None,1.100454092003929,1863.7740111529965,None,1863.7740111529965,None,5,0,0.8510815970003023,1864.860691494996,None,1864.860691494996,None,1864.860691494996,None,1865.7284352289971,None,1,0.6185301340010483,1865.7284352289971,None,72,1866.3632874779978,None,0,B,1,2021_May_21_1639,GazeFlow,2020.1.2,59.87356128771077,
14,Block815.xls,B,,,,,,,,,,,,,,,,,,0,13,13,13,,,,,,,,,,,,,,,,,,,,,,,,,,,,,,,,,,,,,,,,,,,,0,B,1,2021_May_21_1639,GazeFlow,2020.1.2,59.87356128771077,
15,Block807.xls,B,7,1,71,71,None,congruent,Left,Left,Right,79,82,3,yellow,2,6,/home/docky/apps/exp/images/79Y.jpeg,/home/docky/apps/exp/images/80Yi.jpeg,0,14,14,14,0,0,0,0,1913.790734416998,None,1913.790734416998,None,1,3.795042767000268,1913.790734416998,None,1917.6154269009967,None,1917.6154269009967,None,1920.1351712700016,None,1920.1351712700016,None,0.9662055750013678,1921.937088181996,None,1921.937088181996,None,5,0,0.8846320599986939,1922.8899621199998,None,1922.8899621199998,None,1922.8899621199998,None,1923.7912775309997,None,1,0.6350845580018358,1923.7912775309997,None,70,1924.4427855569993,None,0,B,1,2021_May_21_1639,GazeFlow,2020.1.2,59.87356128771077,
15,Block807.xls,B,7,2,44,44,None,congruent,Right,Right,Left,83,80,3,blue,2,5,/home/docky/apps/exp/images/83Bi.jpeg,/home/docky/apps/exp/images/80B.jpeg,0,14,14,14,0,1,1,1,1925.4443468479985,None,1925.4443468479985,None,1,3.9249820910044946,1925.4443468479985,None,1929.4016012690008,None,1929.4016012690008,None,1931.906641644,None,1931.906641644,None,0.9669888319986057,1933.7091209550017,None,1933.7091209550017,None,5,1,0.8679549880034756,1934.6627524909964,None,1934.6627524909964,None,1934.6627524909964,None,1935.5473810779986,None,1,0.6855810490014846,1935.5473810779986,None,72,1936.2487165870007,None,0,B,1,2021_May_21_1639,GazeFlow,2020.1.2,59.87356128771077,
15,Block807.xls,B,7,3,48,48,None,congruent,Right,Right,Left,39,38,1,blue,2,5,/home/docky/apps/exp/images/39Bi.jpeg,/home/docky/apps/exp/images/38B.jpeg,0,14,14,14,0,2,2,2,1937.2506295699968,None,1937.2506295699968,None,1,3.2068959969983553,1937.2506295699968,None,1940.4913521460003,None,1940.4913521460003,None,1942.9940935480008,None,1942.9940935480008,None,0.9667386389992316,1944.796479927998,None,1944.796479927998,None,5,1,0.8512219059994095,1945.7510626069961,None,1945.7510626069961,None,1945.7510626069961,None,1946.618962081,None,1,0.6017022610030835,1946.618962081,None,74,1947.2370924469978,None,0,B,1,2021_May_21_1639,GazeFlow,2020.1.2,59.87356128771077,
15,Block807.xls,B,7,4,113,17,None,incongruent,Right,Left,Right,72,77,5,yellow,2,6,/home/docky/apps/exp/images/72Yi.jpeg,/home/docky/apps/exp/images/77Y.jpeg,0,14,14,14,0,3,3,3,1948.2387496569972,None,1948.2387496569972,None,1,3.4739996999996947,1948.2387496569972,None,1951.7465193749995,None,1951.7465193749995,None,1954.2497566099955,None,1954.2497566099955,None,1.0833767270014505,1956.054827277996,None,1956.054827277996,None,6,1,0.7840970430042944,1957.1231852910023,None,1957.1231852910023,None,1957.1231852910023,None,1957.9240993839958,None,1,0.5186406130014802,1957.9240993839958,None,76,1958.4588752579984,None,0,B,1,2021_May_21_1639,GazeFlow,2020.1.2,59.87356128771077,
15,Block807.xls,B,7,5,69,69,None,congruent,Left,Left,Right,72,77,5,yellow,2,6,/home/docky/apps/exp/images/72Y.jpeg,/home/docky/apps/exp/images/77Yi.jpeg,0,14,14,14,0,4,4,4,1959.4602965720005,None,1959.4602965720005,None,1,3.27379000899964,1959.4602965720005,None,1962.7677553649955,None,1962.7677553649955,None,1965.2723089999963,None,1965.2723089999963,None,0.950100330002897,1967.0747310949992,None,1967.0747310949992,None,6,1,0.7840332859996124,1968.0110154760005,None,1968.0110154760005,None,1968.0110154760005,None,1968.8116662419961,None,1,0.45110098300210666,1968.8116662419961,None,78,1969.2793237749975,None,0,B,1,2021_May_21_1639,GazeFlow,2020.1.2,59.87356128771077,
15,Block807.xls,B,7,6,39,39,None,congruent,Right,Right,Left,79,76,3,blue,2,5,/home/docky/apps/exp/images/79B.jpeg,/home/docky/apps/exp/images/76Bi.jpeg,0,14,14,14,0,5,5,5,1970.2814897940007,None,1970.2814897940007,None,1,3.257367874997726,1970.2814897940007,None,1973.5722900849978,None,1973.5722900849978,None,1976.0811353049976,None,1976.0811353049976,None,1.0503057300011278,1977.878600553002,None,1977.878600553002,None,5,1,0.8008557810026105,1978.915553472998,None,1978.915553472998,None,1978.915553472998,None,1979.7332920399967,None,1,0.5520590160012944,1979.7332920399967,None,80,1980.301199313999,None,0,B,1,2021_May_21_1639,GazeFlow,2020.1.2,59.87356128771077,
15,Block807.xls,B,7,7,50,50,None,congruent,Left,Left,Right,33,35,2,yellow,2,6,/home/docky/apps/exp/images/33Y.jpeg,/home/docky/apps/exp/images/35Yi.jpeg,0,14,14,14,0,6,6,6,1981.3028144059972,None,1981.3028144059972,None,1,3.9083466999945813,1981.3028144059972,None,1985.2427497459976,None,1985.2427497459976,None,1987.7500058330006,None,1987.7500058330006,None,0.916465504997177,1989.5481973539972,None,1989.5481973539972,None,6,1,0.801091120003548,1990.4545781109955,None,1990.4545781109955,None,1990.4545781109955,None,1991.2720991989954,None,1,0.5344514839962358,1991.2720991989954,None,82,1991.823222258001,None,0,B,1,2021_May_21_1639,GazeFlow,2020.1.2,59.87356128771077,
15,Block807.xls,B,7,8,19,19,None,congruent,Left,Left,Right,76,79,3,blue,2,6,/home/docky/apps/exp/images/76B.jpeg,/home/docky/apps/exp/images/79Bi.jpeg,0,14,14,14,0,7,7,7,1992.8250844749964,None,1992.8250844749964,None,1,3.6579074440014665,1992.8250844749964,None,1996.5168130779966,None,1996.5168130779966,None,1999.0215605929952,None,1999.0215605929952,None,1.0334433519965387,2000.822554167,None,2000.822554167,None,5,0,0.7507732749945717,2001.8433464419977,None,2001.8433464419977,None,2001.8433464419977,None,2002.6110860430017,None,1,0.6015265889946022,2002.6110860430017,None,80,2003.229191934999,None,0,B,1,2021_May_21_1639,GazeFlow,2020.1.2,59.87356128771077,
15,Block807.xls,B,,,,,,,,,,,,,,,,,,0,14,14,14,,,,,,,,,,,,,,,,,,,,,,,,,,,,,,,,,,,,,,,,,,,,0,B,1,2021_May_21_1639,GazeFlow,2020.1.2,59.87356128771077,
