Nblock,condsFile,grouping,Block,TrialBlock,N,trialN,trialCond,gazeCon,gazedirR,corrBinR,corrBinP,valLBY,valRBY,diff,colorCube,feedbacktext,corrAns,imageL,imageR,SelBlocks.thisRepN,SelBlocks.thisTrialN,SelBlocks.thisN,SelBlocks.thisIndex,Trials.thisRepN,Trials.thisTrialN,Trials.thisN,Trials.thisIndex,waitCube.started,waitCube.stopped,text_3.started,text_3.stopped,StartKeyPress.keys,StartKeyPress.rt,StartKeyPress.started,StartKeyPress.stopped,StimL.started,StimL.stopped,StimR.started,StimR.stopped,imageStim2L.started,imageStim2L.stopped,imageStim2R.started,imageStim2R.stopped,RTkeyRelease,imageStim3L.started,imageStim3L.stopped,imageStim3R.started,imageStim3R.stopped,dropResp.keys,dropResp.corr,dropResp.rt,dropResp.started,dropResp.stopped,imageStim5L.started,imageStim5L.stopped,imageStim5R.started,imageStim5R.stopped,text_2.started,text_2.stopped,ReturnSpace.keys,ReturnSpace.rt,ReturnSpace.started,ReturnSpace.stopped,totalpoints,textFeedback.started,textFeedback.stopped,participant,group,session,date,expName,psychopyVersion,frameRate,
1,Block502.xls,A,2,1,93,33,22,incongruent,Left,Right,Left,38,35,3,blue,2,5,/home/docky/apps/exp/images/38B.jpeg,/home/docky/apps/exp/images/35Bi.jpeg,0,0,0,0,0,0,0,0,42.75342561700381,None,42.75342561700381,None,1,4.01431014604168,42.75342561700381,None,46.793984332995024,None,46.793984332995024,None,49.31520521896891,None,49.31520521896891,None,1.7008936930214986,51.12017956498312,None,51.12017956498312,None,5,1,0.685141391993966,52.804190438997466,None,52.804190438997466,None,52.804190438997466,None,53.505723288981244,None,1,0.6003561589750461,53.505723288981244,None,2,54.12273223896045,None,101,A,1,2021_May_19_1503,GazeFlow,2020.1.2,59.86120722199801,
1,Block502.xls,A,2,2,42,42,12,congruent,Right,Right,Left,83,80,3,blue,2,5,/home/docky/apps/exp/images/83Bi.jpeg,/home/docky/apps/exp/images/80B.jpeg,0,0,0,0,0,1,1,1,55.12514041195391,None,55.12514041195391,None,1,4.9095963719883,55.12514041195391,None,60.07131338195177,None,60.07131338195177,None,62.571975494967774,None,62.571975494967774,None,1.6181183269945905,64.37589101400226,None,64.37589101400226,None,5,1,0.7014921380323358,65.97973821597407,None,65.97973821597407,None,65.97973821597407,None,66.69761443999596,None,1,0.45050101104425266,66.69761443999596,None,4,67.16495970997494,None,101,A,1,2021_May_19_1503,GazeFlow,2020.1.2,59.86120722199801,
1,Block502.xls,A,2,3,9,9,11,congruent,Left,Left,Right,38,39,1,blue,2,6,/home/docky/apps/exp/images/38Bi.jpeg,/home/docky/apps/exp/images/39B.jpeg,0,0,0,0,0,2,2,2,68.16662373399595,None,68.16662373399595,None,1,5.010510483989492,68.16662373399595,None,73.21261789900018,None,73.21261789900018,None,75.71555998100666,None,75.71555998100666,None,1.5678690249915235,77.5174160139868,None,77.5174160139868,None,6,1,0.6844876620452851,79.07170602900442,None,79.07170602900442,None,79.07170602900442,None,79.77257930499036,None,1,0.46859563601901755,79.77257930499036,None,6,80.25732531800168,None,101,A,1,2021_May_19_1503,GazeFlow,2020.1.2,59.86120722199801,
1,Block502.xls,A,2,4,23,23,11,congruent,Left,Left,Right,38,39,1,yellow,2,6,/home/docky/apps/exp/images/38Yi.jpeg,/home/docky/apps/exp/images/39Y.jpeg,0,0,0,0,0,3,3,3,81.25905010296265,None,81.25905010296265,None,1,3.808618624054361,81.25905010296265,None,85.10082043800503,None,85.10082043800503,None,87.603979581967,None,87.603979581967,None,1.3007215859834105,89.40896275796695,None,89.40896275796695,None,6,1,0.6506416909978725,90.69441362196812,None,90.69441362196812,None,90.69441362196812,None,91.36158909200458,None,1,0.3844140659784898,91.36158909200458,None,8,91.76305377797689,None,101,A,1,2021_May_19_1503,GazeFlow,2020.1.2,59.86120722199801,
1,Block502.xls,A,2,5,57,57,12,congruent,Right,Right,Left,77,72,5,yellow,2,5,/home/docky/apps/exp/images/77Y.jpeg,/home/docky/apps/exp/images/72Yi.jpeg,0,0,0,0,0,4,4,4,92.76472186599858,None,92.76472186599858,None,1,4.3593217710149474,92.76472186599858,None,97.1574363259715,None,97.1574363259715,None,99.66049685300095,None,99.66049685300095,None,1.8018071840051562,101.46379335300298,None,101.46379335300298,None,5,1,0.734756417979952,103.25200181198306,None,103.25200181198306,None,103.25200181198306,None,104.00304654397769,None,1,0.417459846008569,104.00304654397769,None,10,104.43716682196828,None,101,A,1,2021_May_19_1503,GazeFlow,2020.1.2,59.86120722199801,
1,Block502.xls,A,2,6,118,58,22,incongruent,Left,Right,Left,80,79,1,yellow,2,5,/home/docky/apps/exp/images/80Yi.jpeg,/home/docky/apps/exp/images/79Y.jpeg,0,0,0,0,0,5,5,5,105.43909509497462,None,105.43909509497462,None,1,3.8420441020280123,105.43909509497462,None,109.3146090299706,None,109.3146090299706,None,111.822977779957,None,111.822977779957,None,1.5178123589721508,113.62267177097965,None,113.62267177097965,None,5,1,0.7007195390178822,115.12529540999094,None,115.12529540999094,None,115.12529540999094,None,115.84294855495682,None,1,0.4005549349822104,115.84294855495682,None,12,116.2604869909701,None,101,A,1,2021_May_19_1503,GazeFlow,2020.1.2,59.86120722199801,
1,Block502.xls,A,2,7,101,41,22,incongruent,Left,Right,Left,83,80,3,blue,2,5,/home/docky/apps/exp/images/83Bi.jpeg,/home/docky/apps/exp/images/80B.jpeg,0,0,0,0,0,6,6,6,117.26212482299889,None,117.26212482299889,None,1,4.042115669988561,117.26212482299889,None,121.33766522299265,None,121.33766522299265,None,123.84097477496834,None,123.84097477496834,None,1.9852721330244094,125.64616760297213,None,125.64616760297213,None,5,1,0.7178195520536974,127.61629332200391,None,127.61629332200391,None,127.61629332200391,None,128.35073433298385,None,1,0.4005624480196275,128.35073433298385,None,14,128.7677915059612,None,101,A,1,2021_May_19_1503,GazeFlow,2020.1.2,59.86120722199801,
1,Block502.xls,A,2,8,69,9,21,incongruent,Right,Left,Right,73,76,3,blue,2,6,/home/docky/apps/exp/images/73B.jpeg,/home/docky/apps/exp/images/76Bi.jpeg,0,0,0,0,0,7,7,7,129.76989624800626,None,129.76989624800626,None,1,3.9581884869839996,129.76989624800626,None,133.7618417069898,None,133.7618417069898,None,136.2667002909584,None,136.2667002909584,None,1.651232843985781,138.06881804997101,None,138.06881804997101,None,6,1,0.6508012869744562,139.70633690897375,None,139.70633690897375,None,139.70633690897375,None,140.37397467595292,None,1,0.35120627301512286,140.37397467595292,None,16,140.7414448269992,None,101,A,1,2021_May_19_1503,GazeFlow,2020.1.2,59.86120722199801,
1,Block502.xls,A,,,,,,,,,,,,,,,,,,0,0,0,0,,,,,,,,,,,,,,,,,,,,,,,,,,,,,,,,,,,,,,,,,,,,101,A,1,2021_May_19_1503,GazeFlow,2020.1.2,59.86120722199801,
2,Block506.xls,A,6,1,120,60,22,incongruent,Left,Right,Left,80,79,1,yellow,2,5,/home/docky/apps/exp/images/80Yi.jpeg,/home/docky/apps/exp/images/79Y.jpeg,0,1,1,1,0,0,0,0,181.22153200296452,None,181.22153200296452,None,1,4.162909138016403,181.22153200296452,None,185.41445190797094,None,185.41445190797094,None,187.93396843899973,None,187.93396843899973,None,1.2498017809703015,189.73730517097283,None,189.73730517097283,None,5,1,0.684106522006914,190.9725620209938,None,190.9725620209938,None,190.9725620209938,None,191.67323925398523,None,1,0.4013906220206991,191.67323925398523,None,18,192.09108687000116,None,101,A,1,2021_May_19_1503,GazeFlow,2020.1.2,59.86120722199801,
2,Block506.xls,A,6,2,51,51,12,congruent,Right,Right,Left,66,65,1,yellow,2,5,/home/docky/apps/exp/images/66Y.jpeg,/home/docky/apps/exp/images/35Bi.jpeg,0,1,1,1,0,1,1,1,193.0927452959586,None,193.0927452959586,None,1,4.259320194018073,193.0927452959586,None,197.3855267239851,None,197.3855267239851,None,199.89408015098888,None,199.89408015098888,None,1.6847238229820505,201.69190661795437,None,201.69190661795437,None,5,1,0.7185888689709827,203.36320969398366,None,203.36320969398366,None,203.36320969398366,None,204.0983707459527,None,1,0.3674459659960121,204.0983707459527,None,20,204.48193884495413,None,101,A,1,2021_May_19_1503,GazeFlow,2020.1.2,59.86120722199801,
2,Block506.xls,A,6,3,119,59,22,incongruent,Left,Right,Left,80,79,1,yellow,2,5,/home/docky/apps/exp/images/80Y.jpeg,/home/docky/apps/exp/images/79Yi.jpeg,0,1,1,1,0,2,2,2,205.48343336296966,None,205.48343336296966,None,1,3.9750982629484497,205.48343336296966,None,209.49227890599286,None,209.49227890599286,None,211.9953066559974,None,211.9953066559974,None,1.3006711880443618,213.79904993699165,None,213.79904993699165,None,5,1,0.7675047439988703,215.08592616999522,None,215.08592616999522,None,215.08592616999522,None,215.87001497397432,None,1,0.3853840620140545,215.87001497397432,None,22,216.27141313097673,None,101,A,1,2021_May_19_1503,GazeFlow,2020.1.2,59.86120722199801,
2,Block506.xls,A,6,4,28,28,11,congruent,Left,Left,Right,72,77,5,yellow,2,6,/home/docky/apps/exp/images/72Y.jpeg,/home/docky/apps/exp/images/77Yi.jpeg,0,1,1,1,0,3,3,3,217.2727429489605,None,217.2727429489605,None,1,4.125673139991704,217.2727429489605,None,221.4320770589984,None,221.4320770589984,None,223.9355394759914,None,223.9355394759914,None,1.6512511920300312,225.73848647996783,None,225.73848647996783,None,6,1,0.7179620650131255,227.37660291796783,None,227.37660291796783,None,227.37660291796783,None,228.11125250597252,None,1,0.31731181900249794,228.11125250597252,None,24,228.44512717198813,None,101,A,1,2021_May_19_1503,GazeFlow,2020.1.2,59.86120722199801,
2,Block506.xls,A,6,5,85,25,21,incongruent,Right,Left,Right,69,75,6,yellow,2,6,/home/docky/apps/exp/images/69Y.jpeg,/home/docky/apps/exp/images/76Yi.jpeg,0,1,1,1,0,4,4,4,229.44653549895156,None,229.44653549895156,None,1,3.7413546569878235,229.44653549895156,None,233.22188846796053,None,233.22188846796053,None,235.72500885900808,None,235.72500885900808,None,1.5176754190470092,237.52841844997602,None,237.52841844997602,None,6,1,0.717746278969571,239.03241902199807,None,239.03241902199807,None,239.03241902199807,None,239.7668300109799,None,1,0.3678544969880022,239.7668300109799,None,26,240.15103768999688,None,101,A,1,2021_May_19_1503,GazeFlow,2020.1.2,59.86120722199801,
2,Block506.xls,A,6,6,71,11,21,incongruent,Right,Left,Right,76,79,3,blue,2,6,/home/docky/apps/exp/images/76B.jpeg,/home/docky/apps/exp/images/79Bi.jpeg,0,1,1,1,0,5,5,5,241.15265778597677,None,241.15265778597677,None,1,5.1111486770096235,241.15265778597677,None,246.2971386119607,None,246.2971386119607,None,248.80187851696974,None,248.80187851696974,None,1.484504546970129,250.6038696449832,None,250.6038696449832,None,6,1,0.7175552899716422,252.07472748996224,None,252.07472748996224,None,252.07472748996224,None,252.80875737196766,None,1,0.36722654895856977,252.80875737196766,None,28,253.1933153019636,None,101,A,1,2021_May_19_1503,GazeFlow,2020.1.2,59.86120722199801,
2,Block506.xls,A,6,7,56,56,12,congruent,Right,Right,Left,76,69,7,yellow,2,5,/home/docky/apps/exp/images/76Yi.jpeg,/home/docky/apps/exp/images/69Y.jpeg,0,1,1,1,0,6,6,6,254.1949118199991,None,254.1949118199991,None,1,4.342343084979802,254.1949118199991,None,258.56937410798855,None,258.56937410798855,None,261.0758783859783,None,261.0758783859783,None,1.651204135036096,262.8727868089918,None,262.8727868089918,None,5,1,0.7014024020172656,264.5154186489526,None,264.5154186489526,None,264.5154186489526,None,265.2330482539837,None,1,0.38442287198267877,265.2330482539837,None,30,265.6340456409962,None,101,A,1,2021_May_19_1503,GazeFlow,2020.1.2,59.86120722199801,
2,Block506.xls,A,6,8,33,33,12,congruent,Right,Right,Left,38,35,3,blue,2,5,/home/docky/apps/exp/images/38B.jpeg,/home/docky/apps/exp/images/35Bi.jpeg,0,1,1,1,0,7,7,7,266.6354104479542,None,266.6354104479542,None,1,4.827408805023879,266.6354104479542,None,271.49614079500316,None,271.49614079500316,None,274.00093234999804,None,274.00093234999804,None,1.7515449200291187,275.8030795689556,None,275.8030795689556,None,5,1,0.867993688036222,277.5407144789933,None,277.5407144789933,None,277.5407144789933,None,278.4256573099992,None,1,0.35030480299610645,278.4256573099992,None,32,278.79243563400814,None,101,A,1,2021_May_19_1503,GazeFlow,2020.1.2,59.86120722199801,
2,Block506.xls,A,,,,,,,,,,,,,,,,,,0,1,1,1,,,,,,,,,,,,,,,,,,,,,,,,,,,,,,,,,,,,,,,,,,,,101,A,1,2021_May_19_1503,GazeFlow,2020.1.2,59.86120722199801,
3,Block505.xls,A,5,1,1,1,11,congruent,Left,Left,Right,16,19,3,blue,2,6,/home/docky/apps/exp/images/16Bi.jpeg,/home/docky/apps/exp/images/19B.jpeg,0,2,2,2,0,0,0,0,301.837823956972,None,301.837823956972,None,1,4.299569848983083,301.837823956972,None,306.16652340395376,None,306.16652340395376,None,308.685119421978,None,308.685119421978,None,1.3502843029564247,310.4880841510021,None,310.4880841510021,None,6,1,0.6842778769787401,311.8238822409767,None,311.8238822409767,None,311.8238822409767,None,312.5247767579858,None,1,0.3343109510024078,312.5247767579858,None,34,312.87570454896195,None,101,A,1,2021_May_19_1503,GazeFlow,2020.1.2,59.86120722199801,
3,Block505.xls,A,5,2,10,10,11,congruent,Left,Left,Right,73,76,3,blue,2,6,/home/docky/apps/exp/images/73B.jpeg,/home/docky/apps/exp/images/76Bi.jpeg,0,2,2,2,0,1,1,1,313.87745367200114,None,313.87745367200114,None,1,3.2235353179858066,313.87745367200114,None,317.13968312798534,None,317.13968312798534,None,319.63947937998455,None,319.63947937998455,None,1.3007995099760592,321.44177154795034,None,321.44177154795034,None,6,1,0.6839925979729742,322.7285864879959,None,322.7285864879959,None,322.7285864879959,None,323.4293005699874,None,1,0.3508324709837325,323.4293005699874,None,36,323.79707426199457,None,101,A,1,2021_May_19_1503,GazeFlow,2020.1.2,59.86120722199801,
3,Block505.xls,A,5,3,95,35,22,incongruent,Left,Right,Left,66,65,1,blue,2,5,/home/docky/apps/exp/images/66B.jpeg,/home/docky/apps/exp/images/35Yi.jpeg,0,2,2,2,0,2,2,2,324.7984664510004,None,324.7984664510004,None,1,3.307174279994797,324.7984664510004,None,328.13948536798125,None,328.13948536798125,None,330.6428739039693,None,330.6428739039693,None,1.2341574459569529,332.4460835629725,None,332.4460835629725,None,5,1,0.7173665890004486,333.6664520909544,None,333.6664520909544,None,333.6664520909544,None,334.40045980596915,None,1,0.36782384500838816,334.40045980596915,None,38,334.7848814429599,None,101,A,1,2021_May_19_1503,GazeFlow,2020.1.2,59.86120722199801,
3,Block505.xls,A,5,4,46,46,12,congruent,Right,Right,Left,35,33,2,yellow,2,5,/home/docky/apps/exp/images/35Yi.jpeg,/home/docky/apps/exp/images/33Y.jpeg,0,2,2,2,0,3,3,3,335.78682066797046,None,335.78682066797046,None,1,3.5072920829989016,335.78682066797046,None,339.32912656699773,None,339.32912656699773,None,341.8307285489864,None,341.8307285489864,None,1.5497136380290613,343.63661053898977,None,343.63661053898977,None,5,1,0.7009845600114204,345.1721475030063,None,345.1721475030063,None,345.1721475030063,None,345.89080447296146,None,1,0.3159268280141987,345.89080447296146,None,40,346.22401164495386,None,101,A,1,2021_May_19_1503,GazeFlow,2020.1.2,59.86120722199801,
3,Block505.xls,A,5,5,78,18,21,incongruent,Right,Left,Right,65,66,1,yellow,2,6,/home/docky/apps/exp/images/35Bi.jpeg,/home/docky/apps/exp/images/66Y.jpeg,0,2,2,2,0,4,4,4,347.2252290319884,None,347.2252290319884,None,1,3.55831048701657,347.2252290319884,None,350.8170017149532,None,350.8170017149532,None,353.32032150996383,None,353.32032150996383,None,1.2674472579965368,355.12333747697994,None,355.12333747697994,None,5,0,0.7178111539687961,356.377179780975,None,356.377179780975,None,356.377179780975,None,357.11130276700715,None,1,0.36777617898769677,357.11130276700715,None,38,357.4954348139581,None,101,A,1,2021_May_19_1503,GazeFlow,2020.1.2,59.86120722199801,
3,Block505.xls,A,5,6,43,43,12,congruent,Right,Right,Left,83,80,3,blue,2,5,/home/docky/apps/exp/images/83B.jpeg,/home/docky/apps/exp/images/80Bi.jpeg,0,2,2,2,0,5,5,5,358.49755008297507,None,358.49755008297507,None,1,3.440251938009169,358.49755008297507,None,361.97180948697496,None,361.97180948697496,None,364.4812157609849,None,364.4812157609849,None,1.1504282180103473,366.2786232740036,None,366.2786232740036,None,5,1,0.7341365369502455,367.4152447549859,None,367.4152447549859,None,367.4152447549859,None,368.16614832897903,None,1,0.33422432001680136,368.16614832897903,None,40,368.5173494789633,None,101,A,1,2021_May_19_1503,GazeFlow,2020.1.2,59.86120722199801,
3,Block505.xls,A,5,7,44,44,12,congruent,Right,Right,Left,39,38,1,blue,2,5,/home/docky/apps/exp/images/39Bi.jpeg,/home/docky/apps/exp/images/38B.jpeg,0,2,2,2,0,6,6,6,369.51889822795056,None,369.51889822795056,None,1,3.073151930992026,369.51889822795056,None,372.62597577797715,None,372.62597577797715,None,375.1289029829786,None,375.1289029829786,None,1.1832065930357203,376.92692648799857,None,376.92692648799857,None,6,0,0.6177902349736542,378.1024152349564,None,378.1024152349564,None,378.1024152349564,None,378.7367079569958,None,1,0.31751190399518237,378.7367079569958,None,38,379.07069526897976,None,101,A,1,2021_May_19_1503,GazeFlow,2020.1.2,59.86120722199801,
3,Block505.xls,A,5,8,116,56,22,incongruent,Left,Right,Left,77,72,5,yellow,2,5,/home/docky/apps/exp/images/77Y.jpeg,/home/docky/apps/exp/images/72Y.jpeg,0,2,2,2,0,7,7,7,380.0726584889926,None,380.0726584889926,None,1,3.424006510002073,380.0726584889926,None,383.5305273499689,None,383.5305273499689,None,386.03362044796813,None,386.03362044796813,None,1.3343358759884723,387.8309433449758,None,387.8309433449758,None,5,1,0.7008489319705404,389.15745249495376,None,389.15745249495376,None,389.15745249495376,None,389.87495443195803,None,1,0.35174447001190856,389.87495443195803,None,40,390.2426861790009,None,101,A,1,2021_May_19_1503,GazeFlow,2020.1.2,59.86120722199801,
3,Block505.xls,A,,,,,,,,,,,,,,,,,,0,2,2,2,,,,,,,,,,,,,,,,,,,,,,,,,,,,,,,,,,,,,,,,,,,,101,A,1,2021_May_19_1503,GazeFlow,2020.1.2,59.86120722199801,
4,Block509.xls,A,9,1,34,34,12,congruent,Right,Right,Left,38,35,3,blue,2,5,/home/docky/apps/exp/images/38Bi.jpeg,/home/docky/apps/exp/images/35B.jpeg,0,3,3,3,0,0,0,0,411.48501593299443,None,411.48501593299443,None,1,4.3948017549701035,411.48501593299443,None,415.90559216798283,None,415.90559216798283,None,418.4313988999929,None,418.4313988999929,None,2.185250450973399,420.21838497999124,None,420.21838497999124,None,6,0,0.6518807330285199,422.38853335095337,None,422.38853335095337,None,422.38853335095337,None,423.05653264495777,None,1,0.28339558298466727,423.05653264495777,None,38,423.35659296199447,None,101,A,1,2021_May_19_1503,GazeFlow,2020.1.2,59.86120722199801,
4,Block509.xls,A,9,2,7,7,11,congruent,Left,Left,Right,65,66,1,blue,2,6,/home/docky/apps/exp/images/35Yi.jpeg,/home/docky/apps/exp/images/66B.jpeg,0,3,3,3,0,1,1,1,424.35870767896995,None,424.35870767896995,None,1,3.1901736239669845,424.35870767896995,None,427.5824917309801,None,427.5824917309801,None,430.08798082900466,None,430.08798082900466,None,1.6678136949776672,431.8837002479704,None,431.8837002479704,None,6,1,0.83508404600434,433.5436803139746,None,433.5436803139746,None,433.5436803139746,None,434.39507554797456,None,1,0.30089797801338136,434.39507554797456,None,40,434.7126704119728,None,101,A,1,2021_May_19_1503,GazeFlow,2020.1.2,59.86120722199801,
4,Block509.xls,A,9,3,74,14,21,incongruent,Right,Left,Right,80,83,3,blue,2,6,/home/docky/apps/exp/images/80B.jpeg,/home/docky/apps/exp/images/83Bi.jpeg,0,3,3,3,0,2,2,2,435.71450843900675,None,435.71450843900675,None,1,3.0561672300100327,435.71450843900675,None,438.8042091699899,None,438.8042091699899,None,441.3074732379755,None,441.3074732379755,None,1.2337415720103309,443.11101241398137,None,443.11101241398137,None,6,1,0.6508592370082624,444.33118467597524,None,444.33118467597524,None,444.33118467597524,None,444.998590253992,None,1,0.3341061469982378,444.998590253992,None,42,445.3492729609716,None,101,A,1,2021_May_19_1503,GazeFlow,2020.1.2,59.86120722199801,
4,Block509.xls,A,9,4,19,19,11,congruent,Left,Left,Right,65,66,1,yellow,2,6,/home/docky/apps/exp/images/35Bi.jpeg,/home/docky/apps/exp/images/66Y.jpeg,0,3,3,3,0,3,3,3,446.3511329650064,None,446.3511329650064,None,1,2.9230358410277404,446.3511329650064,None,449.30802119500004,None,449.30802119500004,None,451.8157796569867,None,451.8157796569867,None,2.3865652690292336,453.6149436729611,None,453.6149436729611,None,5,0,1.1673454680130817,455.9887431549723,None,455.9887431549723,None,455.9887431549723,None,457.17228025599616,None,1,0.41762667999137193,457.17228025599616,None,40,457.6061859179754,None,101,A,1,2021_May_19_1503,GazeFlow,2020.1.2,59.86120722199801,
4,Block509.xls,A,9,5,60,60,12,congruent,Right,Right,Left,80,79,1,yellow,2,5,/home/docky/apps/exp/images/80Yi.jpeg,/home/docky/apps/exp/images/79Y.jpeg,0,3,3,3,0,4,4,4,458.6088729359908,None,458.6088729359908,None,1,9.051901299040765,458.6088729359908,None,467.6935890679597,None,467.6935890679597,None,470.19695387996035,None,470.19695387996035,None,1.9855867350124754,471.99487448495347,None,471.99487448495347,None,5,1,0.718239406007342,473.972186621977,None,473.972186621977,None,473.972186621977,None,474.70682520099217,None,1,0.26664226001594216,474.70682520099217,None,42,474.9902971109841,None,101,A,1,2021_May_19_1503,GazeFlow,2020.1.2,59.86120722199801,
4,Block509.xls,A,9,6,83,23,21,incongruent,Right,Left,Right,38,39,1,yellow,2,6,/home/docky/apps/exp/images/38Yi.jpeg,/home/docky/apps/exp/images/39Y.jpeg,0,3,3,3,0,5,5,5,475.99235646496527,None,475.99235646496527,None,1,3.256920514977537,475.99235646496527,None,479.283163857006,None,479.283163857006,None,481.78967972495593,None,481.78967972495593,None,1.1337253170204349,483.5897569889785,None,483.5897569889785,None,5,0,0.6506235239794478,484.7098188259988,None,484.7098188259988,None,484.7098188259988,None,485.3769885899965,None,1,0.3174034020048566,485.3769885899965,None,40,485.7109376269509,None,101,A,1,2021_May_19_1503,GazeFlow,2020.1.2,59.86120722199801,
4,Block509.xls,A,9,7,4,4,11,congruent,Left,Left,Right,35,38,3,blue,2,6,/home/docky/apps/exp/images/35B.jpeg,/home/docky/apps/exp/images/38Bi.jpeg,0,3,3,3,0,6,6,6,486.71296814695233,None,486.71296814695233,None,1,3.3069561870070174,486.71296814695233,None,490.0540110919974,None,490.0540110919974,None,492.55712500895606,None,492.55712500895606,None,1.3508371679927222,494.3603114449652,None,494.3603114449652,None,6,1,0.6509905729908496,495.69761843199376,None,495.69761843199376,None,495.69761843199376,None,496.3650777269504,None,1,0.28393454203614965,496.3650777269504,None,42,496.66614829399623,None,101,A,1,2021_May_19_1503,GazeFlow,2020.1.2,59.86120722199801,
4,Block509.xls,A,9,8,24,24,11,congruent,Left,Left,Right,38,39,1,yellow,2,6,/home/docky/apps/exp/images/38Y.jpeg,/home/docky/apps/exp/images/39Yi.jpeg,0,3,3,3,0,7,7,7,497.6675790969748,None,497.6675790969748,None,1,3.2905251649790443,497.6675790969748,None,500.9917434199597,None,500.9917434199597,None,503.4950945309829,None,503.4950945309829,None,1.1171878739842214,505.29761010297807,None,505.29761010297807,None,5,0,0.6172096870141104,506.40187161799986,None,506.40187161799986,None,506.40187161799986,None,507.0357547439635,None,1,0.28427364001981914,507.0357547439635,None,40,507.33647340198513,None,101,A,1,2021_May_19_1503,GazeFlow,2020.1.2,59.86120722199801,
4,Block509.xls,A,,,,,,,,,,,,,,,,,,0,3,3,3,,,,,,,,,,,,,,,,,,,,,,,,,,,,,,,,,,,,,,,,,,,,101,A,1,2021_May_19_1503,GazeFlow,2020.1.2,59.86120722199801,
5,Block504.xls,A,4,1,11,11,11,congruent,Left,Left,Right,73,76,3,blue,2,6,/home/docky/apps/exp/images/73Bi.jpeg,/home/docky/apps/exp/images/76B.jpeg,0,4,4,4,0,0,0,0,529.3315385499736,None,529.3315385499736,None,1,4.846589545020834,529.3315385499736,None,534.2051324149943,None,534.2051324149943,None,536.7280495929881,None,536.7280495929881,None,1.2498478880152106,538.5317964599817,None,538.5317964599817,None,6,1,0.634327159030363,539.7666564679821,None,539.7666564679821,None,539.7666564679821,None,540.4174067489803,None,1,0.3006170089938678,540.4174067489803,None,42,540.7346008629538,None,101,A,1,2021_May_19_1503,GazeFlow,2020.1.2,59.86120722199801,
5,Block504.xls,A,4,2,87,27,21,incongruent,Right,Left,Right,72,77,5,yellow,2,6,/home/docky/apps/exp/images/72Y.jpeg,/home/docky/apps/exp/images/77Yi.jpeg,0,4,4,4,0,1,1,1,541.7365219629719,None,541.7365219629719,None,1,2.4894275529659353,541.7365219629719,None,544.2603492449853,None,544.2603492449853,None,546.7639270639629,None,546.7639270639629,None,1.534709847997874,548.5656995619647,None,548.5656995619647,None,6,1,0.6844065010081977,550.0865090349689,None,550.0865090349689,None,550.0865090349689,None,550.7879753809539,None,1,0.30034579598577693,550.7879753809539,None,44,551.1046319739544,None,101,A,1,2021_May_19_1503,GazeFlow,2020.1.2,59.86120722199801,
5,Block504.xls,A,4,3,48,48,12,congruent,Right,Right,Left,39,38,1,yellow,2,5,/home/docky/apps/exp/images/39Yi.jpeg,/home/docky/apps/exp/images/38Y.jpeg,0,4,4,4,0,2,2,2,552.1067054289742,None,552.1067054289742,None,1,3.1401305589824915,552.1067054289742,None,555.2784826959833,None,555.2784826959833,None,557.7835636119707,None,557.7835636119707,None,1.4007567489752546,559.5875099489931,None,559.5875099489931,None,5,1,0.667591878969688,560.974246498954,None,560.974246498954,None,560.974246498954,None,561.6585142599652,None,1,0.2345155369839631,561.6585142599652,None,46,561.90963968297,None,101,A,1,2021_May_19_1503,GazeFlow,2020.1.2,59.86120722199801,
5,Block504.xls,A,4,4,38,38,12,congruent,Right,Right,Left,79,73,6,blue,2,5,/home/docky/apps/exp/images/79B.jpeg,/home/docky/apps/exp/images/73Bi.jpeg,0,4,4,4,0,3,3,3,562.911079854006,None,562.911079854006,None,1,2.7224612909485586,562.911079854006,None,565.6674697989947,None,565.6674697989947,None,568.1741672339849,None,568.1741672339849,None,1.150453735026531,569.9691869509988,None,569.9691869509988,None,5,1,0.7510222319979221,571.1111558929551,None,571.1111558929551,None,571.1111558929551,None,571.8785859369673,None,1,0.33433423296082765,571.8785859369673,None,48,572.2298526879749,None,101,A,1,2021_May_19_1503,GazeFlow,2020.1.2,59.86120722199801,
5,Block504.xls,A,4,5,2,2,11,congruent,Left,Left,Right,16,19,3,blue,2,6,/home/docky/apps/exp/images/16B.jpeg,/home/docky/apps/exp/images/19Bi.jpeg,0,4,4,4,0,4,4,4,573.231090301997,None,573.231090301997,None,1,2.6061333080288023,573.231090301997,None,575.87070979696,None,575.87070979696,None,578.3753176360042,None,578.3753176360042,None,1.61804191803094,580.1768612209707,None,580.1768612209707,None,6,1,0.6843958759563975,581.7815617839806,None,581.7815617839806,None,581.7815617839806,None,582.4824956659577,None,1,0.2845596389961429,582.4824956659577,None,50,582.7833975219983,None,101,A,1,2021_May_19_1503,GazeFlow,2020.1.2,59.86120722199801,
5,Block504.xls,A,4,6,73,13,21,incongruent,Right,Left,Right,80,83,3,blue,2,6,/home/docky/apps/exp/images/80Bi.jpeg,/home/docky/apps/exp/images/83B.jpeg,0,4,4,4,0,5,5,5,583.7849415609962,None,583.7849415609962,None,1,4.70985975000076,583.7849415609962,None,588.5286794859567,None,588.5286794859567,None,591.0334243690013,None,591.0334243690013,None,0.29922503302805126,592.8303264909773,None,592.8303264909773,None,6,1,1.3515043359948322,593.1208328169887,None,593.1208328169887,None,593.1208328169887,None,594.4893551569548,None,1,0.45096267299959436,594.4893551569548,None,52,594.9566622049897,None,101,A,1,2021_May_19_1503,GazeFlow,2020.1.2,59.86120722199801,
5,Block504.xls,A,4,7,63,3,21,incongruent,Right,Left,Right,35,38,3,blue,2,6,/home/docky/apps/exp/images/35B.jpeg,/home/docky/apps/exp/images/38Bi.jpeg,0,4,4,4,0,6,6,6,595.959288818005,None,595.959288818005,None,1,6.846545142994728,595.959288818005,None,602.8397818169906,None,602.8397818169906,None,605.3422975379508,None,605.3422975379508,None,13.090832798974589,607.1464821829577,None,607.1464821829577,None,6,1,2.0227406640187837,620.2380311609595,None,620.2380311609595,None,620.2380311609595,None,622.276671139989,None,1,1.4869123930111527,622.276671139989,None,54,623.779637865955,None,101,A,1,2021_May_19_1503,GazeFlow,2020.1.2,59.86120722199801,
5,Block504.xls,A,4,8,86,26,21,incongruent,Right,Left,Right,72,77,5,yellow,2,6,/home/docky/apps/exp/images/72Yi.jpeg,/home/docky/apps/exp/images/77Y.jpeg,0,4,4,4,0,7,7,7,624.7817709869705,None,624.7817709869705,None,1,6.896763754019048,624.7817709869705,None,631.7109627199825,None,631.7109627199825,None,634.2153055969975,None,634.2153055969975,None,1.2344484949717298,636.0134950850043,None,636.0134950850043,None,6,1,0.685744974995032,637.2550042030052,None,637.2550042030052,None,637.2550042030052,None,637.9572282139561,None,1,0.28410699899541214,637.9572282139561,None,56,638.2578008919954,None,101,A,1,2021_May_19_1503,GazeFlow,2020.1.2,59.86120722199801,
5,Block504.xls,A,,,,,,,,,,,,,,,,,,0,4,4,4,,,,,,,,,,,,,,,,,,,,,,,,,,,,,,,,,,,,,,,,,,,,101,A,1,2021_May_19_1503,GazeFlow,2020.1.2,59.86120722199801,
6,Block511.xls,A,11,1,15,15,11,congruent,Left,Left,Right,80,83,3,blue,2,6,/home/docky/apps/exp/images/80Bi.jpeg,/home/docky/apps/exp/images/83B.jpeg,0,5,5,5,0,0,0,0,827.1925007589743,None,827.1925007589743,None,1,4.2674534220132045,827.1925007589743,None,831.487975400989,None,831.487975400989,None,834.0052656019689,None,834.0052656019689,None,1.4839303549961187,835.8087956829695,None,835.8087956829695,None,6,1,0.835111511987634,837.2779190259753,None,837.2779190259753,None,837.2779190259753,None,838.1289192149998,None,1,0.7514916909858584,838.1289192149998,None,58,838.8970118279685,None,101,A,1,2021_May_19_1503,GazeFlow,2020.1.2,59.86120722199801,
6,Block511.xls,A,11,2,105,45,22,incongruent,Left,Right,Left,39,38,1,blue,2,5,/home/docky/apps/exp/images/39Bi.jpeg,/home/docky/apps/exp/images/38B.jpeg,0,5,5,5,0,1,1,1,839.8990511879674,None,839.8990511879674,None,1,4.3423098949715495,839.8990511879674,None,844.2608595439815,None,844.2608595439815,None,846.7779870780068,None,846.7779870780068,None,1.3844792650197633,848.581113889988,None,848.581113889988,None,5,1,0.8182544830488041,849.9524858609657,None,849.9524858609657,None,849.9524858609657,None,850.7866610149504,None,1,0.4348391949897632,850.7866610149504,None,60,851.2379154019873,None,101,A,1,2021_May_19_1503,GazeFlow,2020.1.2,59.86120722199801,
6,Block511.xls,A,11,3,68,8,21,incongruent,Right,Left,Right,38,39,1,blue,2,6,/home/docky/apps/exp/images/38B.jpeg,/home/docky/apps/exp/images/39Bi.jpeg,0,5,5,5,0,2,2,2,852.2395551140071,None,852.2395551140071,None,1,2.9733458510017954,852.2395551140071,None,855.2467108489946,None,855.2467108489946,None,857.7495828199899,None,857.7495828199899,None,1.4342547859996557,859.5550236479612,None,859.5550236479612,None,5,0,0.8182177629787475,860.9738429439603,None,860.9738429439603,None,860.9738429439603,None,861.8086793469847,None,1,0.3843080140068196,861.8086793469847,None,58,862.2092225409579,None,101,A,1,2021_May_19_1503,GazeFlow,2020.1.2,59.86120722199801,
6,Block511.xls,A,11,4,80,20,21,incongruent,Right,Left,Right,62,65,3,yellow,2,6,/home/docky/apps/exp/images/38Bi.jpeg,/home/docky/apps/exp/images/35B.jpeg,0,5,5,5,0,3,3,3,863.2111358669936,None,863.2111358669936,None,1,3.49109463597415,863.2111358669936,None,866.7356972309644,None,866.7356972309644,None,869.2390648529981,None,869.2390648529981,None,1.467358720023185,871.03970037197,None,871.03970037197,None,6,1,0.8006407030043192,872.4963924399926,None,872.4963924399926,None,872.4963924399926,None,873.3147135409527,None,1,0.38318075897404924,873.3147135409527,None,60,873.7149142939597,None,101,A,1,2021_May_19_1503,GazeFlow,2020.1.2,59.86120722199801,
6,Block511.xls,A,11,5,5,5,11,congruent,Left,Left,Right,65,66,1,blue,2,6,/home/docky/apps/exp/images/35Yi.jpeg,/home/docky/apps/exp/images/66B.jpeg,0,5,5,5,0,4,4,4,874.7168860719539,None,874.7168860719539,None,1,3.156591296021361,874.7168860719539,None,877.8991507570026,None,877.8991507570026,None,880.4122426739777,None,880.4122426739777,None,1.6181333040003665,882.2152857219917,None,882.2152857219917,None,6,1,0.8351298720226623,883.8185192520032,None,883.8185192520032,None,883.8185192520032,None,884.6697200799827,None,1,0.30096141604008153,884.6697200799827,None,62,884.9870422100066,None,101,A,1,2021_May_19_1503,GazeFlow,2020.1.2,59.86120722199801,
6,Block511.xls,A,11,6,18,18,11,congruent,Left,Left,Right,65,66,1,yellow,2,6,/home/docky/apps/exp/images/35B.jpeg,/home/docky/apps/exp/images/66Yi.jpeg,0,5,5,5,0,5,5,5,885.9885195689858,None,885.9885195689858,None,1,3.0064639049815014,885.9885195689858,None,889.0288718519732,None,889.0288718519732,None,891.5319015149726,None,891.5319015149726,None,1.1672539939754643,893.3373505609925,None,893.3373505609925,None,6,1,0.8009726169984788,894.4889696589671,None,894.4889696589671,None,894.4889696589671,None,895.3068300939631,None,1,0.2839821170200594,895.3068300939631,None,64,895.6072859069682,None,101,A,1,2021_May_19_1503,GazeFlow,2020.1.2,59.86120722199801,
6,Block511.xls,A,11,7,25,25,11,congruent,Left,Left,Right,69,75,6,yellow,2,6,/home/docky/apps/exp/images/69Yi.jpeg,/home/docky/apps/exp/images/76Y.jpeg,0,5,5,5,0,6,6,6,896.6091567130061,None,896.6091567130061,None,1,5.311151090019848,896.6091567130061,None,901.9539466839633,None,901.9539466839633,None,904.4598296610056,None,904.4598296610056,None,1.26711657398846,906.253732001991,None,906.253732001991,None,6,1,0.9011417059809901,907.5143158049905,None,907.5143158049905,None,907.5143158049905,None,908.4320912149851,None,1,0.4681167620001361,908.4320912149851,None,66,908.9169565530028,None,101,A,1,2021_May_19_1503,GazeFlow,2020.1.2,59.86120722199801,
6,Block511.xls,A,11,8,3,3,11,congruent,Left,Left,Right,35,38,3,blue,2,6,/home/docky/apps/exp/images/35Bi.jpeg,/home/docky/apps/exp/images/38B.jpeg,0,5,5,5,0,7,7,7,909.9186714639654,None,909.9186714639654,None,1,3.8745840350165963,909.9186714639654,None,913.8266281950055,None,913.8266281950055,None,916.3306503859931,None,916.3306503859931,None,1.7013938410091214,918.133824702003,None,918.133824702003,None,6,1,0.8181006709928624,919.8216733769514,None,919.8216733769514,None,919.8216733769514,None,920.6563247760059,None,1,0.41693572502117604,920.6563247760059,None,68,921.0899478549836,None,101,A,1,2021_May_19_1503,GazeFlow,2020.1.2,59.86120722199801,
6,Block511.xls,A,,,,,,,,,,,,,,,,,,0,5,5,5,,,,,,,,,,,,,,,,,,,,,,,,,,,,,,,,,,,,,,,,,,,,101,A,1,2021_May_19_1503,GazeFlow,2020.1.2,59.86120722199801,
7,Block508.xls,A,8,1,13,13,11,congruent,Left,Left,Right,76,79,3,blue,2,6,/home/docky/apps/exp/images/76Bi.jpeg,/home/docky/apps/exp/images/79B.jpeg,0,6,6,6,0,0,0,0,943.6347694779979,None,943.6347694779979,None,1,3.700025633967016,943.6347694779979,None,947.3599452729686,None,947.3599452729686,None,949.8802564219804,None,949.8802564219804,None,1.5004963239771314,951.6825917699607,None,951.6825917699607,None,6,1,0.8513830660376698,953.1693782559596,None,953.1693782559596,None,953.1693782559596,None,954.037030151987,None,1,0.36876360699534416,954.037030151987,None,70,954.4217721019522,None,101,A,1,2021_May_19_1503,GazeFlow,2020.1.2,59.86120722199801,
7,Block508.xls,A,8,2,21,21,11,congruent,Left,Left,Right,62,65,3,yellow,2,6,/home/docky/apps/exp/images/38B.jpeg,/home/docky/apps/exp/images/35Bi.jpeg,0,6,6,6,0,1,1,1,955.4234388179611,None,955.4234388179611,None,1,2.9731854340061545,955.4234388179611,None,958.430218961963,None,958.430218961963,None,960.9349847579724,None,960.9349847579724,None,1.1839159490191378,962.7357971489546,None,962.7357971489546,None,6,1,0.8008135239942931,963.9072196889902,None,963.9072196889902,None,963.9072196889902,None,964.725007052999,None,1,0.3003828109940514,964.725007052999,None,72,965.0429042589967,None,101,A,1,2021_May_19_1503,GazeFlow,2020.1.2,59.86120722199801,
7,Block508.xls,A,8,3,99,39,22,incongruent,Left,Right,Left,79,76,3,blue,2,5,/home/docky/apps/exp/images/79Bi.jpeg,/home/docky/apps/exp/images/76B.jpeg,0,6,6,6,0,2,2,2,966.0440624330076,None,966.0440624330076,None,1,2.8398496560403146,966.0440624330076,None,968.9171402569627,None,968.9171402569627,None,971.4052029720042,None,971.4052029720042,None,1.3341274140402675,973.224270903971,None,973.224270903971,None,5,1,0.7842412039753981,974.5444606989622,None,974.5444606989622,None,974.5444606989622,None,975.3452572399983,None,1,0.3519118999829516,975.3452572399983,None,74,975.713268552965,None,101,A,1,2021_May_19_1503,GazeFlow,2020.1.2,59.86120722199801,
7,Block508.xls,A,8,4,37,37,12,congruent,Right,Right,Left,66,65,1,blue,2,5,/home/docky/apps/exp/images/66Bi.jpeg,/home/docky/apps/exp/images/35Y.jpeg,0,6,6,6,0,3,3,3,976.714662815968,None,976.714662815968,None,1,3.524337832990568,976.714662815968,None,980.2705880539725,None,980.2705880539725,None,982.7751050189836,None,982.7751050189836,None,1.2341410900116898,984.5796217870084,None,984.5796217870084,None,5,1,8.332998431986198,985.7996613300056,None,985.7996613300056,None,985.7996613300056,None,994.1490732609527,None,1,1.4363573230220936,994.1490732609527,None,76,995.6018432619749,None,101,A,1,2021_May_19_1503,GazeFlow,2020.1.2,59.86120722199801,
7,Block508.xls,A,8,5,82,22,21,incongruent,Right,Left,Right,38,39,1,yellow,2,6,/home/docky/apps/exp/images/38Y.jpeg,/home/docky/apps/exp/images/39Yi.jpeg,0,6,6,6,0,4,4,4,996.6037966139847,None,996.6037966139847,None,1,7.0811067600152455,996.6037966139847,None,1003.7184440539568,None,1003.7184440539568,None,1006.2215423529851,None,1006.2215423529851,None,1.350855854980182,1008.0225412109867,None,1008.0225412109867,None,6,1,0.7676374090369791,1009.3621339789825,None,1009.3621339789825,None,1009.3621339789825,None,1010.1464530099765,None,1,0.5349635310121812,1010.1464530099765,None,78,1010.6977421549964,None,101,A,1,2021_May_19_1503,GazeFlow,2020.1.2,59.86120722199801,
7,Block508.xls,A,8,6,104,44,22,incongruent,Left,Right,Left,39,38,1,blue,2,5,/home/docky/apps/exp/images/39B.jpeg,/home/docky/apps/exp/images/38Bi.jpeg,0,6,6,6,0,5,5,5,1011.6994844019646,None,1011.6994844019646,None,1,3.6242038850323297,1011.6994844019646,None,1015.3576298269909,None,1015.3576298269909,None,1017.8621524439659,None,1017.8621524439659,None,1.2672547799884342,1019.6640807309886,None,1019.6640807309886,None,5,1,0.6844583860365674,1020.9178643799969,None,1020.9178643799969,None,1020.9178643799969,None,1021.6188806629507,None,1,0.38435893901623785,1021.6188806629507,None,80,1022.0197214999935,None,101,A,1,2021_May_19_1503,GazeFlow,2020.1.2,59.86120722199801,
7,Block508.xls,A,8,7,39,39,12,congruent,Right,Right,Left,79,73,6,blue,2,5,/home/docky/apps/exp/images/79B.jpeg,/home/docky/apps/exp/images/73Bi.jpeg,0,6,6,6,0,6,6,6,1023.0215586929698,None,1023.0215586929698,None,1,3.691461471025832,1023.0215586929698,None,1026.7462628299836,None,1026.7462628299836,None,1029.249452015967,None,1029.249452015967,None,1.3672954880166799,1031.0527322779526,None,1031.0527322779526,None,5,1,0.8009608120191842,1032.406863341981,None,1032.406863341981,None,1032.406863341981,None,1033.2246357689728,None,1,0.4178462619893253,1033.2246357689728,None,82,1033.6591353819822,None,101,A,1,2021_May_19_1503,GazeFlow,2020.1.2,59.86120722199801,
7,Block508.xls,A,8,8,36,36,12,congruent,Right,Right,Left,66,65,1,blue,2,5,/home/docky/apps/exp/images/66B.jpeg,/home/docky/apps/exp/images/35Yi.jpeg,0,6,6,6,0,7,7,7,1034.6605722079985,None,1034.6605722079985,None,1,3.2404326489777304,1034.6605722079985,None,1037.9345422319602,None,1037.9345422319602,None,1040.4380859969533,None,1040.4380859969533,None,1.300677365041338,1042.2408916139975,None,1042.2408916139975,None,6,0,0.7508178010466509,1043.5284173549735,None,1043.5284173549735,None,1043.5284173549735,None,1044.2961648529745,None,1,0.3345994260162115,1044.2961648529745,None,80,1044.6468977769837,None,101,A,1,2021_May_19_1503,GazeFlow,2020.1.2,59.86120722199801,
7,Block508.xls,A,,,,,,,,,,,,,,,,,,0,6,6,6,,,,,,,,,,,,,,,,,,,,,,,,,,,,,,,,,,,,,,,,,,,,101,A,1,2021_May_19_1503,GazeFlow,2020.1.2,59.86120722199801,
8,Block510.xls,A,10,1,102,42,22,incongruent,Left,Right,Left,83,80,3,blue,2,5,/home/docky/apps/exp/images/83B.jpeg,/home/docky/apps/exp/images/80Bi.jpeg,0,7,7,7,0,0,0,0,1072.134566385008,None,1072.134566385008,None,1,3.3965886349906214,1072.134566385008,None,1075.5611426329706,None,1075.5611426329706,None,1078.079308389977,None,1078.079308389977,None,1.4671512029599398,1079.8771960790036,None,1079.8771960790036,None,5,1,0.8680306909955107,1081.33528921596,None,1081.33528921596,None,1081.33528921596,None,1082.2196052199579,None,1,0.45097866997821257,1082.2196052199579,None,82,1082.687323334976,None,101,A,1,2021_May_19_1503,GazeFlow,2020.1.2,59.86120722199801,
8,Block510.xls,A,10,2,114,54,22,incongruent,Left,Right,Left,76,69,7,yellow,2,5,/home/docky/apps/exp/images/76Yi.jpeg,/home/docky/apps/exp/images/69Y.jpeg,0,7,7,7,0,1,1,1,1083.6894359389553,None,1083.6894359389553,None,1,3.624168679001741,1083.6894359389553,None,1087.3471641449723,None,1087.3471641449723,None,1089.850343848986,None,1089.850343848986,None,1.3674482859787531,1091.6532180240029,None,1091.6532180240029,None,5,1,0.7346620900207199,1093.0076020729612,None,1093.0076020729612,None,1093.0076020729612,None,1093.7588876599912,None,1,0.3677559999632649,1093.7588876599912,None,84,1094.1432947409921,None,101,A,1,2021_May_19_1503,GazeFlow,2020.1.2,59.86120722199801,
8,Block510.xls,A,10,3,72,12,21,incongruent,Right,Left,Right,76,79,3,blue,2,6,/home/docky/apps/exp/images/76Bi.jpeg,/home/docky/apps/exp/images/79B.jpeg,0,7,7,7,0,2,2,2,1095.1447110929876,None,1095.1447110929876,None,1,3.474321008019615,1095.1447110929876,None,1098.6481743169716,None,1098.6481743169716,None,1101.1559075340047,None,1101.1559075340047,None,1.5009279429796152,1102.9539787370013,None,1102.9539787370013,None,6,1,0.7342469390132464,1104.446913784952,None,1104.446913784952,None,1104.446913784952,None,1105.1975154939573,None,1,0.6522935479879379,1105.1975154939573,None,86,1105.8656179709942,None,101,A,1,2021_May_19_1503,GazeFlow,2020.1.2,59.86120722199801,
8,Block510.xls,A,10,4,112,52,22,incongruent,Left,Right,Left,75,69,6,yellow,2,5,/home/docky/apps/exp/images/76Y.jpeg,/home/docky/apps/exp/images/69Yi.jpeg,0,7,7,7,0,3,3,3,1106.8674039869802,None,1106.8674039869802,None,1,3.173716501041781,1106.8674039869802,None,1110.0762693429715,None,1110.0762693429715,None,1112.5777526529855,None,1112.5777526529855,None,1.083392229047604,1114.3811938969884,None,1114.3811938969884,None,5,1,0.7008839059853926,1115.4515379109653,None,1115.4515379109653,None,1115.4515379109653,None,1116.1688533529523,None,1,0.4675939879962243,1116.1688533529523,None,88,1116.6532633139868,None,101,A,1,2021_May_19_1503,GazeFlow,2020.1.2,59.86120722199801,
8,Block510.xls,A,10,5,17,17,11,congruent,Left,Left,Right,33,35,2,yellow,2,6,/home/docky/apps/exp/images/33Y.jpeg,/home/docky/apps/exp/images/35Yi.jpeg,0,7,7,7,0,4,4,4,1117.6551248839824,None,1117.6551248839824,None,1,3.1907746559591033,1117.6551248839824,None,1120.8800410119584,None,1120.8800410119584,None,1123.3825758449966,None,1123.3825758449966,None,1.200544533028733,1125.1874968899647,None,1125.1874968899647,None,6,1,0.7509761999826878,1126.3727159189875,None,1126.3727159189875,None,1126.3727159189875,None,1127.1401086809929,None,1,0.4013067649793811,1127.1401086809929,None,90,1127.5581318470067,None,101,A,1,2021_May_19_1503,GazeFlow,2020.1.2,59.86120722199801,
8,Block510.xls,A,10,6,31,31,12,congruent,Right,Right,Left,19,16,3,blue,2,5,/home/docky/apps/exp/images/19Bi.jpeg,/home/docky/apps/exp/images/16B.jpeg,0,7,7,7,0,5,5,5,1128.5595700359554,None,1128.5595700359554,None,1,2.957030327001121,1128.5595700359554,None,1131.549757176952,None,1131.549757176952,None,1134.0567966689705,None,1134.0567966689705,None,1.4345805800403468,1135.850871506962,None,1135.850871506962,None,5,1,0.7675583759555593,1137.277177535987,None,1137.277177535987,None,1137.277177535987,None,1138.0613615369657,None,1,0.4013234190060757,1138.0613615369657,None,92,1138.4793784130015,None,101,A,1,2021_May_19_1503,GazeFlow,2020.1.2,59.86120722199801,
8,Block510.xls,A,10,7,61,1,21,incongruent,Right,Left,Right,16,19,3,blue,2,6,/home/docky/apps/exp/images/16Bi.jpeg,/home/docky/apps/exp/images/19B.jpeg,0,7,7,7,0,6,6,6,1139.4811112649622,None,1139.4811112649622,None,1,2.9729433719767258,1139.4811112649622,None,1142.4878364389879,None,1142.4878364389879,None,1144.9924680370023,None,1144.9924680370023,None,1.2840795980300754,1146.7944753239863,None,1146.7944753239863,None,6,1,0.7838937069755048,1148.0650726399617,None,1148.0650726399617,None,1148.0650726399617,None,1148.8657391539891,None,1,0.3853288810350932,1148.8657391539891,None,94,1149.2670058739604,None,101,A,1,2021_May_19_1503,GazeFlow,2020.1.2,59.86120722199801,
8,Block510.xls,A,10,8,94,34,22,incongruent,Left,Right,Left,38,35,3,blue,2,5,/home/docky/apps/exp/images/38Bi.jpeg,/home/docky/apps/exp/images/35B.jpeg,0,7,7,7,0,7,7,7,1150.2685256999684,None,1150.2685256999684,None,1,3.1406939679873176,1150.2685256999684,None,1153.4408014049986,None,1153.4408014049986,None,1155.9454789789743,None,1155.9454789789743,None,1.6852827279944904,1157.7493600629969,None,1157.7493600629969,None,5,1,0.7179242370184511,1159.4202014429611,None,1159.4202014429611,None,1159.4202014429611,None,1160.1547434809618,None,1,0.3680953690200113,1160.1547434809618,None,96,1160.5389407029725,None,101,A,1,2021_May_19_1503,GazeFlow,2020.1.2,59.86120722199801,
8,Block510.xls,A,,,,,,,,,,,,,,,,,,0,7,7,7,,,,,,,,,,,,,,,,,,,,,,,,,,,,,,,,,,,,,,,,,,,,101,A,1,2021_May_19_1503,GazeFlow,2020.1.2,59.86120722199801,
9,Block507.xls,A,7,1,110,50,22,incongruent,Left,Right,Left,66,65,1,yellow,2,5,/home/docky/apps/exp/images/66Y.jpeg,/home/docky/apps/exp/images/35Bi.jpeg,0,8,8,8,0,0,0,0,1183.8686501070042,None,1183.8686501070042,None,1,4.095732649962883,1183.8686501070042,None,1187.9949429740082,None,1187.9949429740082,None,1190.5130002259975,None,1190.5130002259975,None,1.3179312570136972,1192.3012514729635,None,1192.3012514729635,None,5,1,0.7341487879748456,1193.61993522197,None,1193.61993522197,None,1193.61993522197,None,1194.3704798030085,None,1,0.3516683359630406,1194.3704798030085,None,98,1194.7386336950003,None,101,A,1,2021_May_19_1503,GazeFlow,2020.1.2,59.86120722199801,
9,Block507.xls,A,7,2,90,30,22,incongruent,Right,Left,Right,16,19,3,blue,2,6,/home/docky/apps/exp/images/16Bi.jpeg,/home/docky/apps/exp/images/19B.jpeg,0,8,8,8,0,1,1,1,1195.7402467799839,None,1195.7402467799839,None,1,3.2404017280205153,1195.7402467799839,None,1199.0151997919893,None,1199.0151997919893,None,1201.5193351790076,None,1201.5193351790076,None,1.1002015990088694,1203.3224953769823,None,1203.3224953769823,None,6,1,0.7007382389856502,1204.407592929958,None,1204.407592929958,None,1204.407592929958,None,1205.1251737779821,None,1,0.25020824396051466,1205.1251737779821,None,100,1205.3921519639553,None,101,A,1,2021_May_19_1503,GazeFlow,2020.1.2,59.86120722199801,
9,Block507.xls,A,7,3,16,16,11,congruent,Left,Left,Right,33,35,2,yellow,2,6,/home/docky/apps/exp/images/33Yi.jpeg,/home/docky/apps/exp/images/35Y.jpeg,0,8,8,8,0,2,2,2,1206.394133395981,None,1206.394133395981,None,1,2.589572668017354,1206.394133395981,None,1209.0171575539862,None,1209.0171575539862,None,1211.5196075879503,None,1211.5196075879503,None,1.0335538440267555,1213.3234098809771,None,1213.3234098809771,None,6,1,0.7175181820057333,1214.3435478299507,None,1214.3435478299507,None,1214.3435478299507,None,1215.0778133439599,None,1,0.2508230159874074,1215.0778133439599,None,102,1215.3447773779626,None,101,A,1,2021_May_19_1503,GazeFlow,2020.1.2,59.86120722199801,
9,Block507.xls,A,7,4,117,57,22,incongruent,Left,Right,Left,77,72,5,yellow,2,5,/home/docky/apps/exp/images/77Y.jpeg,/home/docky/apps/exp/images/72Yi.jpeg,0,8,8,8,0,3,3,3,1216.3467839749646,None,1216.3467839749646,None,1,3.1067903979565017,1216.3467839749646,None,1219.487329734955,None,1219.487329734955,None,1221.992162465991,None,1221.992162465991,None,1.1178551189950667,1223.77909459098,None,1223.77909459098,None,5,1,0.7007575340103358,1224.8974158680066,None,1224.8974158680066,None,1224.8974158680066,None,1225.6147933370085,None,1,0.3008505129837431,1225.6147933370085,None,104,1225.932026311988,None,101,A,1,2021_May_19_1503,GazeFlow,2020.1.2,59.86120722199801,
9,Block507.xls,A,7,5,53,53,12,congruent,Right,Right,Left,75,69,6,yellow,2,5,/home/docky/apps/exp/images/76Yi.jpeg,/home/docky/apps/exp/images/69Y.jpeg,0,8,8,8,0,4,4,4,1226.9340193209937,None,1226.9340193209937,None,1,3.6081603600177914,1226.9340193209937,None,1230.5752580330009,None,1230.5752580330009,None,1233.0783735410077,None,1233.0783735410077,None,1.2673322720220312,1234.876987516007,None,1234.876987516007,None,5,1,0.7846305340062827,1236.1357467519701,None,1236.1357467519701,None,1236.1357467519701,None,1236.9367434519809,None,1,0.4348708880133927,1236.9367434519809,None,106,1237.3881186170038,None,101,A,1,2021_May_19_1503,GazeFlow,2020.1.2,59.86120722199801,
9,Block507.xls,A,7,6,96,36,22,incongruent,Left,Right,Left,66,65,1,blue,2,5,/home/docky/apps/exp/images/66Bi.jpeg,/home/docky/apps/exp/images/35Y.jpeg,0,8,8,8,0,5,5,5,1238.389689892996,None,1238.389689892996,None,1,3.941662549972534,1238.389689892996,None,1242.365002940991,None,1242.365002940991,None,1244.8680468960083,None,1244.8680468960083,None,1.2341770540224388,1246.671308082994,None,1246.671308082994,None,5,1,0.6839209710014984,1247.892084327992,None,1247.892084327992,None,1247.892084327992,None,1248.5928653279552,None,1,0.35052829899359494,1248.5928653279552,None,108,1248.960110358952,None,101,A,1,2021_May_19_1503,GazeFlow,2020.1.2,59.86120722199801,
9,Block507.xls,A,7,7,58,58,12,congruent,Right,Right,Left,77,72,5,yellow,2,5,/home/docky/apps/exp/images/77Yi.jpeg,/home/docky/apps/exp/images/72Y.jpeg,0,8,8,8,0,6,6,6,1249.9621107919957,None,1249.9621107919957,None,1,3.0733577639912255,1249.9621107919957,None,1253.0693669339526,None,1253.0693669339526,None,1255.5723715689965,None,1255.5723715689965,None,1.1844327219878323,1257.3619347279891,None,1257.3619347279891,None,5,1,0.6676023790496401,1258.5458200389985,None,1258.5458200389985,None,1258.5458200389985,None,1259.2299557519727,None,1,0.3174561649793759,1259.2299557519727,None,110,1259.5640905330074,None,101,A,1,2021_May_19_1503,GazeFlow,2020.1.2,59.86120722199801,
9,Block507.xls,A,7,8,41,41,12,congruent,Right,Right,Left,79,76,3,blue,2,5,/home/docky/apps/exp/images/79Bi.jpeg,/home/docky/apps/exp/images/76B.jpeg,0,8,8,8,0,7,7,7,1260.5661813159822,None,1260.5661813159822,None,1,2.555330185976345,1260.5661813159822,None,1263.15490357799,None,1263.15490357799,None,1265.6587133029825,None,1265.6587133029825,None,1.284139382012654,1267.4539322069613,None,1267.4539322069613,None,5,1,0.7508324980153702,1268.7325330079766,None,1268.7325330079766,None,1268.7325330079766,None,1269.5001656459644,None,1,0.3179283710196614,1269.5001656459644,None,112,1269.8345842409763,None,101,A,1,2021_May_19_1503,GazeFlow,2020.1.2,59.86120722199801,
9,Block507.xls,A,,,,,,,,,,,,,,,,,,0,8,8,8,,,,,,,,,,,,,,,,,,,,,,,,,,,,,,,,,,,,,,,,,,,,101,A,1,2021_May_19_1503,GazeFlow,2020.1.2,59.86120722199801,
10,Block515.xls,A,15,1,107,47,22,incongruent,Left,Right,Left,35,33,2,yellow,2,5,/home/docky/apps/exp/images/35Yi.jpeg,/home/docky/apps/exp/images/33Y.jpeg,0,9,9,9,0,0,0,0,1299.6112449700013,None,1299.6112449700013,None,1,3.9990003799903207,1299.6112449700013,None,1303.6373955019517,None,1303.6373955019517,None,1306.1552128529875,None,1306.1552128529875,None,1.2167435790179297,1307.9528953270055,None,1307.9528953270055,None,5,1,0.7009104239987209,1309.1612229979946,None,1309.1612229979946,None,1309.1612229979946,None,1309.8787748669856,None,1,0.3673837960232049,1309.8787748669856,None,114,1310.2629476899747,None,101,A,1,2021_May_19_1503,GazeFlow,2020.1.2,59.86120722199801,
10,Block515.xls,A,15,2,55,55,12,congruent,Right,Right,Left,76,69,7,yellow,2,5,/home/docky/apps/exp/images/76Yi.jpeg,/home/docky/apps/exp/images/69Y.jpeg,0,9,9,9,0,1,1,1,1311.2645950680017,None,1311.2645950680017,None,1,2.756285722949542,1311.2645950680017,None,1314.0542450529756,None,1314.0542450529756,None,1316.557638407976,None,1316.557638407976,None,1.2669893340207636,1318.3533376230043,None,1318.3533376230043,None,5,1,0.6508050409611315,1319.614956417994,None,1319.614956417994,None,1319.614956417994,None,1320.2820138779934,None,1,0.3847885509603657,1320.2820138779934,None,116,1320.6831029870082,None,101,A,1,2021_May_19_1503,GazeFlow,2020.1.2,59.86120722199801,
10,Block515.xls,A,15,3,75,15,21,incongruent,Right,Left,Right,33,35,2,yellow,2,6,/home/docky/apps/exp/images/33Yi.jpeg,/home/docky/apps/exp/images/35Y.jpeg,0,9,9,9,0,2,2,2,1321.6847211649874,None,1321.6847211649874,None,1,2.5056116660125554,1321.6847211649874,None,1324.224250097992,None,1324.224250097992,None,1326.7274273939547,None,1326.7274273939547,None,1.2004920580075122,1328.5331045069615,None,1328.5331045069615,None,6,1,0.6842694850056432,1329.7176458089962,None,1329.7176458089962,None,1329.7176458089962,None,1330.4183825089713,None,1,0.38481256301747635,1330.4183825089713,None,118,1330.8195085529587,None,101,A,1,2021_May_19_1503,GazeFlow,2020.1.2,59.86120722199801,
10,Block515.xls,A,15,4,62,2,21,incongruent,Right,Left,Right,35,38,3,blue,2,6,/home/docky/apps/exp/images/35Bi.jpeg,/home/docky/apps/exp/images/38B.jpeg,0,9,9,9,0,3,3,3,1331.8212819540058,None,1331.8212819540058,None,1,3.2405549800023437,1331.8212819540058,None,1335.0948598730029,None,1335.0948598730029,None,1337.5983550709789,None,1337.5983550709789,None,1.1669467989704572,1339.4010576269939,None,1339.4010576269939,None,6,1,0.6506886249990202,1340.5553650359507,None,1340.5553650359507,None,1340.5553650359507,None,1341.2225786579656,None,1,0.3340806139749475,1341.2225786579656,None,120,1341.5731838979991,None,101,A,1,2021_May_19_1503,GazeFlow,2020.1.2,59.86120722199801,
10,Block515.xls,A,15,5,100,40,22,incongruent,Left,Right,Left,79,76,3,blue,2,5,/home/docky/apps/exp/images/79Bi.jpeg,/home/docky/apps/exp/images/76B.jpeg,0,9,9,9,0,4,4,4,1342.5752210579813,None,1342.5752210579813,None,1,5.361704137001652,1342.5752210579813,None,1347.9599305559532,None,1347.9599305559532,None,1350.473639208998,None,1350.473639208998,None,0.9671217839932069,1352.2762405339745,None,1352.2762405339745,None,5,1,0.867932606022805,1353.2300202759798,None,1353.2300202759798,None,1353.2300202759798,None,1354.1146001229645,None,1,0.28420233802171424,1354.1146001229645,None,122,1354.4151211130084,None,101,A,1,2021_May_19_1503,GazeFlow,2020.1.2,59.86120722199801,
10,Block515.xls,A,15,6,108,48,22,incongruent,Left,Right,Left,39,38,1,yellow,2,5,/home/docky/apps/exp/images/39Y.jpeg,/home/docky/apps/exp/images/38Yi.jpeg,0,9,9,9,0,5,5,5,1355.4171958689694,None,1355.4171958689694,None,1,3.7744056259980425,1355.4171958689694,None,1359.2272046519793,None,1359.2272046519793,None,1361.7278123989818,None,1361.7278123989818,None,2.2026789609808475,1363.531673666963,None,1363.531673666963,None,5,1,0.7015247759991325,1365.720832031977,None,1365.720832031977,None,1365.720832031977,None,1366.438573092979,None,1,0.3174300059909001,1366.438573092979,None,124,1366.7722908209544,None,101,A,1,2021_May_19_1503,GazeFlow,2020.1.2,59.86120722199801,
10,Block515.xls,A,15,7,59,59,12,congruent,Right,Right,Left,80,79,1,yellow,2,5,/home/docky/apps/exp/images/80Y.jpeg,/home/docky/apps/exp/images/79Yi.jpeg,0,9,9,9,0,6,6,6,1367.7748289919691,None,1367.7748289919691,None,1,3.7406637989915907,1367.7748289919691,None,1371.549381336954,None,1371.549381336954,None,1374.0525078889914,None,1374.0525078889914,None,1.2003444749861956,1375.8510111430078,None,1375.8510111430078,None,6,0,0.6339005340123549,1377.0429313239874,None,1377.0429313239874,None,1377.0429313239874,None,1377.6936298100045,None,1,0.3509148770244792,1377.6936298100045,None,122,1378.060744196002,None,101,A,1,2021_May_19_1503,GazeFlow,2020.1.2,59.86120722199801,
10,Block515.xls,A,15,8,8,8,11,congruent,Left,Left,Right,38,39,1,blue,2,6,/home/docky/apps/exp/images/38B.jpeg,/home/docky/apps/exp/images/39Bi.jpeg,0,9,9,9,0,7,7,7,1379.062900268007,None,1379.062900268007,None,1,3.558171498007141,1379.062900268007,None,1382.6543398299837,None,1382.6543398299837,None,1385.1572868849616,None,1385.1572868849616,None,1.0334058590233326,1386.9556673250045,None,1386.9556673250045,None,6,1,0.6343029220006429,1387.9807217329508,None,1387.9807217329508,None,1387.9807217329508,None,1388.631358094979,None,1,0.3675768860266544,1388.631358094979,None,124,1389.0154876269517,None,101,A,1,2021_May_19_1503,GazeFlow,2020.1.2,59.86120722199801,
10,Block515.xls,A,,,,,,,,,,,,,,,,,,0,9,9,9,,,,,,,,,,,,,,,,,,,,,,,,,,,,,,,,,,,,,,,,,,,,101,A,1,2021_May_19_1503,GazeFlow,2020.1.2,59.86120722199801,
11,Block512.xls,A,12,1,30,30,11,congruent,Left,Left,Right,79,82,3,yellow,2,6,/home/docky/apps/exp/images/79Yi.jpeg,/home/docky/apps/exp/images/80Y.jpeg,0,10,10,10,0,0,0,0,1414.0998060539714,None,1414.0998060539714,None,1,4.264449263981078,1414.0998060539714,None,1418.3984953339677,None,1418.3984953339677,None,1420.9119099460077,None,1420.9119099460077,None,0.9994927060324699,1422.7154457099969,None,1422.7154457099969,None,6,1,0.8345388560555875,1423.7000167919905,None,1423.7000167919905,None,1423.7000167919905,None,1424.5512317389948,None,1,0.4176743620191701,1424.5512317389948,None,126,1424.98544763698,None,101,A,1,2021_May_19_1503,GazeFlow,2020.1.2,59.86120722199801,
11,Block512.xls,A,12,2,115,55,22,incongruent,Left,Right,Left,76,69,7,yellow,2,5,/home/docky/apps/exp/images/76Yi.jpeg,/home/docky/apps/exp/images/69Y.jpeg,0,10,10,10,0,1,1,1,1425.9873621999868,None,1425.9873621999868,None,1,3.190165724954568,1425.9873621999868,None,1429.2118290129583,None,1429.2118290129583,None,1431.7146652359515,None,1431.7146652359515,None,1.1335664209909737,1433.5178127699764,None,1433.5178127699764,None,5,1,0.8178449580445886,1434.637859964976,None,1434.637859964976,None,1434.637859964976,None,1435.4723455379717,None,1,0.4183044279925525,1435.4723455379717,None,128,1435.906847456994,None,101,A,1,2021_May_19_1503,GazeFlow,2020.1.2,59.86120722199801,
11,Block512.xls,A,12,3,66,6,21,incongruent,Right,Left,Right,38,39,1,blue,2,6,/home/docky/apps/exp/images/38B.jpeg,/home/docky/apps/exp/images/39Bi.jpeg,0,10,10,10,0,2,2,2,1436.908924569958,None,1436.908924569958,None,1,3.5072737759910524,1436.908924569958,None,1440.4497431649943,None,1440.4497431649943,None,1442.9531531549874,None,1442.9531531549874,None,1.1004588740179315,1444.7581992609776,None,1444.7581992609776,None,6,1,0.717803377949167,1445.843261715956,None,1445.843261715956,None,1445.843261715956,None,1446.5774946869933,None,1,0.317496144969482,1446.5774946869933,None,130,1446.9112271780032,None,101,A,1,2021_May_19_1503,GazeFlow,2020.1.2,59.86120722199801,
11,Block512.xls,A,12,4,35,35,12,congruent,Right,Right,Left,66,65,1,blue,2,5,/home/docky/apps/exp/images/66B.jpeg,/home/docky/apps/exp/images/35Yi.jpeg,0,10,10,10,0,3,3,3,1447.9135803799727,None,1447.9135803799727,None,1,3.123360929021146,1447.9135803799727,None,1451.0703141519916,None,1451.0703141519916,None,1453.573555674986,None,1453.573555674986,None,1.0838449120055884,1455.3784815289546,None,1455.3784815289546,None,6,0,0.901316024013795,1456.4470656499616,None,1456.4470656499616,None,1456.4470656499616,None,1457.364828359976,None,1,0.5343358220416121,1457.364828359976,None,128,1457.9163169239764,None,101,A,1,2021_May_19_1503,GazeFlow,2020.1.2,59.86120722199801,
11,Block512.xls,A,12,5,40,40,12,congruent,Right,Right,Left,79,76,3,blue,2,5,/home/docky/apps/exp/images/79Bi.jpeg,/home/docky/apps/exp/images/76B.jpeg,0,10,10,10,0,4,4,4,1458.9181027659797,None,1458.9181027659797,None,1,3.7242606970248744,1458.9181027659797,None,1462.6765011230018,None,1462.6765011230018,None,1465.1839660090045,None,1465.1839660090045,None,1.1010699489852414,1466.9680057119695,None,1466.9680057119695,None,5,1,0.8351147290086374,1468.069435374986,None,1468.069435374986,None,1468.069435374986,None,1468.9210990339634,None,1,0.434696456999518,1468.9210990339634,None,130,1469.3720031509874,None,101,A,1,2021_May_19_1503,GazeFlow,2020.1.2,59.86120722199801,
11,Block512.xls,A,12,6,64,4,21,incongruent,Right,Left,Right,65,66,1,blue,2,6,/home/docky/apps/exp/images/35Yi.jpeg,/home/docky/apps/exp/images/66B.jpeg,0,10,10,10,0,5,5,5,1470.3733545189607,None,1470.3733545189607,None,1,2.8229586359811947,1470.3733545189607,None,1473.2301734219654,None,1473.2301734219654,None,1475.7350170940044,None,1475.7350170940044,None,1.1672587119974196,1477.537080531998,None,1477.537080531998,None,6,1,0.7177138589904644,1478.6902816059883,None,1478.6902816059883,None,1478.6902816059883,None,1479.4244705149904,None,1,0.35101450502406806,1479.4244705149904,None,132,1479.7922164649935,None,101,A,1,2021_May_19_1503,GazeFlow,2020.1.2,59.86120722199801,
11,Block512.xls,A,12,7,12,12,11,congruent,Left,Left,Right,76,79,3,blue,2,6,/home/docky/apps/exp/images/76B.jpeg,/home/docky/apps/exp/images/79Bi.jpeg,0,10,10,10,0,6,6,6,1480.793701528979,None,1480.793701528979,None,1,2.956622064986732,1480.793701528979,None,1483.7838672070066,None,1483.7838672070066,None,1486.2717423479771,None,1486.2717423479771,None,1.2341387760243379,1488.089980461984,None,1488.089980461984,None,6,1,0.7844224069849588,1489.3110630779993,None,1489.3110630779993,None,1489.3110630779993,None,1490.1118441419676,None,1,0.3345390390022658,1490.1118441419676,None,134,1490.4629335529753,None,101,A,1,2021_May_19_1503,GazeFlow,2020.1.2,59.86120722199801,
11,Block512.xls,A,12,8,49,49,12,congruent,Right,Right,Left,39,38,1,yellow,2,5,/home/docky/apps/exp/images/39Y.jpeg,/home/docky/apps/exp/images/38Yi.jpeg,0,10,10,10,0,7,7,7,1491.4645158769563,None,1491.4645158769563,None,1,3.039879499003291,1491.4645158769563,None,1494.5381953369942,None,1494.5381953369942,None,1497.0429669519654,None,1497.0429669519654,None,1.1338535840041004,1498.839572708006,None,1498.839572708006,None,5,1,0.7508576539694332,1499.9650076979888,None,1499.9650076979888,None,1499.9650076979888,None,1500.7325955809793,None,1,0.33426143298856914,1500.7325955809793,None,136,1501.0835048799636,None,101,A,1,2021_May_19_1503,GazeFlow,2020.1.2,59.86120722199801,
11,Block512.xls,A,,,,,,,,,,,,,,,,,,0,10,10,10,,,,,,,,,,,,,,,,,,,,,,,,,,,,,,,,,,,,,,,,,,,,101,A,1,2021_May_19_1503,GazeFlow,2020.1.2,59.86120722199801,
12,Block503.xls,A,3,1,22,22,11,congruent,Left,Left,Right,62,65,3,yellow,2,6,/home/docky/apps/exp/images/38Bi.jpeg,/home/docky/apps/exp/images/35B.jpeg,0,11,11,11,0,0,0,0,1530.0416426149895,None,1530.0416426149895,None,1,2.2769086959888227,1530.0416426149895,None,1532.3513766229735,None,1532.3513766229735,None,1534.866451135953,None,1534.866451135953,None,1.0162139940075576,1536.6704618939548,None,1536.6704618939548,None,6,1,0.7007024789927527,1537.671622039983,None,1537.671622039983,None,1537.671622039983,None,1538.3889930569567,None,1,0.28386663796845824,1538.3889930569567,None,138,1538.6895073750056,None,101,A,1,2021_May_19_1503,GazeFlow,2020.1.2,59.86120722199801,
12,Block503.xls,A,3,2,65,5,21,incongruent,Right,Left,Right,65,66,1,blue,2,6,/home/docky/apps/exp/images/35Y.jpeg,/home/docky/apps/exp/images/66Bi.jpeg,0,11,11,11,0,1,1,1,1539.6914832500042,None,1539.6914832500042,None,1,2.839589854993392,1539.6914832500042,None,1542.5649125649943,None,1542.5649125649943,None,1545.068009020004,None,1545.068009020004,None,2.0021637809695676,1546.8660866110004,None,1546.8660866110004,None,6,1,0.852046923013404,1548.8598446919932,None,1548.8598446919932,None,1548.8598446919932,None,1549.728048822959,None,1,0.2836818129871972,1549.728048822959,None,140,1550.0282839160063,None,101,A,1,2021_May_19_1503,GazeFlow,2020.1.2,59.86120722199801,
12,Block503.xls,A,3,3,76,16,21,incongruent,Right,Left,Right,33,35,2,yellow,2,6,/home/docky/apps/exp/images/33Y.jpeg,/home/docky/apps/exp/images/35Yi.jpeg,0,11,11,11,0,2,2,2,1551.0302145779715,None,1551.0302145779715,None,1,2.82317561696982,1551.0302145779715,None,1553.8872492389637,None,1553.8872492389637,None,1556.3918404279975,None,1556.3918404279975,None,0.8496413190150633,1558.1933856469695,None,1558.1933856469695,None,5,0,0.8010364820365794,1559.0294491639943,None,1559.0294491639943,None,1559.0294491639943,None,1559.8472215189831,None,1,0.367577850993257,1559.8472215189831,None,138,1560.231385958963,None,101,A,1,2021_May_19_1503,GazeFlow,2020.1.2,59.86120722199801,
12,Block503.xls,A,3,4,29,29,11,congruent,Left,Left,Right,79,82,3,yellow,2,6,/home/docky/apps/exp/images/79Y.jpeg,/home/docky/apps/exp/images/80Yi.jpeg,0,11,11,11,0,3,3,3,1561.2333567439928,None,1561.2333567439928,None,1,2.8566475260304287,1561.2333567439928,None,1564.124803735991,None,1564.124803735991,None,1566.6282018380007,None,1566.6282018380007,None,1.000144878984429,1568.4293933559675,None,1568.4293933559675,None,6,1,0.8013721940224059,1569.4164251579787,None,1569.4164251579787,None,1569.4164251579787,None,1570.234235035954,None,1,0.5176778949680738,1570.234235035954,None,140,1570.768534645962,None,101,A,1,2021_May_19_1503,GazeFlow,2020.1.2,59.86120722199801,
12,Block503.xls,A,3,5,103,43,22,incongruent,Left,Right,Left,39,38,1,blue,2,5,/home/docky/apps/exp/images/39Bi.jpeg,/home/docky/apps/exp/images/38B.jpeg,0,11,11,11,0,4,4,4,1571.7703025490046,None,1571.7703025490046,None,1,2.973150370991789,1571.7703025490046,None,1574.7633126989822,None,1574.7633126989822,None,1577.2800128349918,None,1577.2800128349918,None,1.2673634989769198,1579.0831458650064,None,1579.0831458650064,None,5,1,0.7675241790129803,1580.3376758839586,None,1580.3376758839586,None,1580.3376758839586,None,1581.1218994619558,None,1,0.40142000501509756,1581.1218994619558,None,142,1581.5398093679687,None,101,A,1,2021_May_19_1503,GazeFlow,2020.1.2,59.86120722199801,
12,Block503.xls,A,3,6,47,47,12,congruent,Right,Right,Left,35,33,2,yellow,2,5,/home/docky/apps/exp/images/35Yi.jpeg,/home/docky/apps/exp/images/33Y.jpeg,0,11,11,11,0,5,5,5,1582.5413872409845,None,1582.5413872409845,None,1,3.8247555720154196,1582.5413872409845,None,1586.398066344962,None,1586.398066344962,None,1588.9045185459545,None,1588.9045185459545,None,1.2004883030313067,1590.706190322002,None,1590.706190322002,None,5,1,0.767552555014845,1591.8935428909608,None,1591.8935428909608,None,1591.8935428909608,None,1592.6776013339986,None,1,0.38483712601009756,1592.6776013339986,None,144,1593.079043649952,None,101,A,1,2021_May_19_1503,GazeFlow,2020.1.2,59.86120722199801,
12,Block503.xls,A,3,7,20,20,11,congruent,Left,Left,Right,65,66,1,yellow,2,6,/home/docky/apps/exp/images/35Bi.jpeg,/home/docky/apps/exp/images/66Y.jpeg,0,11,11,11,0,6,6,6,1594.08056608896,None,1594.08056608896,None,1,3.474017617001664,1594.08056608896,None,1597.5883117769845,None,1597.5883117769845,None,1600.0915963249863,None,1600.0915963249863,None,1.1839684210135601,1601.889241954952,None,1601.889241954952,None,5,0,0.7175600149785168,1603.065170739952,None,1603.065170739952,None,1603.065170739952,None,1603.7991629319731,None,1,0.3010676859994419,1603.7991629319731,None,142,1604.116473453003,None,101,A,1,2021_May_19_1503,GazeFlow,2020.1.2,59.86120722199801,
12,Block503.xls,A,3,8,27,27,11,congruent,Left,Left,Right,72,77,5,yellow,2,6,/home/docky/apps/exp/images/72Yi.jpeg,/home/docky/apps/exp/images/77Y.jpeg,0,11,11,11,0,7,7,7,1605.1187947340077,None,1605.1187947340077,None,1,2.9227875530486926,1605.1187947340077,None,1608.0755140699912,None,1608.0755140699912,None,1610.578431736969,None,1610.578431736969,None,0.9996749479905702,1612.3836100070039,None,1612.3836100070039,None,6,1,0.734050725994166,1613.368661665998,None,1613.368661665998,None,1613.368661665998,None,1614.1192447859794,None,1,0.2849305749987252,1614.1192447859794,None,144,1614.4200562000042,None,101,A,1,2021_May_19_1503,GazeFlow,2020.1.2,59.86120722199801,
12,Block503.xls,A,,,,,,,,,,,,,,,,,,0,11,11,11,,,,,,,,,,,,,,,,,,,,,,,,,,,,,,,,,,,,,,,,,,,,101,A,1,2021_May_19_1503,GazeFlow,2020.1.2,59.86120722199801,
13,Block501.xls,A,1,1,54,54,12,congruent,Right,Right,Left,75,69,6,yellow,2,5,/home/docky/apps/exp/images/76Y.jpeg,/home/docky/apps/exp/images/69Yi.jpeg,0,12,12,12,0,0,0,0,1638.8508073259727,None,1638.8508073259727,None,1,3.8676283799577504,1638.8508073259727,None,1642.7425337319728,None,1642.7425337319728,None,1645.2644522899645,None,1645.2644522899645,None,0.8994548789924011,1647.0573884599726,None,1647.0573884599726,None,5,1,0.7005846279789694,1647.9525230109575,None,1647.9525230109575,None,1647.9525230109575,None,1648.6697773609776,None,1,0.36761272698640823,1648.6697773609776,None,146,1649.0540408989764,None,101,A,1,2021_May_19_1503,GazeFlow,2020.1.2,59.86120722199801,
13,Block501.xls,A,1,2,70,10,21,incongruent,Right,Left,Right,73,76,3,blue,2,6,/home/docky/apps/exp/images/73Bi.jpeg,/home/docky/apps/exp/images/76B.jpeg,0,12,12,12,0,1,1,1,1650.0557702819933,None,1650.0557702819933,None,1,3.6244063040358014,1650.0557702819933,None,1653.7139362949529,None,1653.7139362949529,None,1656.2170813760022,None,1656.2170813760022,None,1.1336566539830528,1658.0144454349647,None,1658.0144454349647,None,6,1,0.7676813370198943,1659.1407569279545,None,1659.1407569279545,None,1659.1407569279545,None,1659.9248861589585,None,1,0.2506969580426812,1659.9248861589585,None,148,1660.1920221589971,None,101,A,1,2021_May_19_1503,GazeFlow,2020.1.2,59.86120722199801,
13,Block501.xls,A,1,3,84,24,21,incongruent,Right,Left,Right,69,76,7,yellow,2,6,/home/docky/apps/exp/images/69Yi.jpeg,/home/docky/apps/exp/images/76Y.jpeg,0,12,12,12,0,2,2,2,1661.1942245889804,None,1661.1942245889804,None,1,3.457262224983424,1661.1942245889804,None,1664.6853681759676,None,1664.6853681759676,None,1667.1887255199836,None,1667.1887255199836,None,1.0162303470424376,1668.9909890999552,None,1668.9909890999552,None,6,1,0.7010782919824123,1669.9950273339637,None,1669.9950273339637,None,1669.9950273339637,None,1670.712609071983,None,1,0.28384378203190863,1670.712609071983,None,150,1671.013082416961,None,101,A,1,2021_May_19_1503,GazeFlow,2020.1.2,59.86120722199801,
13,Block501.xls,A,1,4,26,26,11,congruent,Left,Left,Right,69,75,6,yellow,2,6,/home/docky/apps/exp/images/69Y.jpeg,/home/docky/apps/exp/images/76Yi.jpeg,0,12,12,12,0,3,3,3,1672.0150115989964,None,1672.0150115989964,None,1,3.4241263259900734,1672.0150115989964,None,1675.4727740059607,None,1675.4727740059607,None,1677.9776131359977,None,1677.9776131359977,None,1.400907987030223,1679.7796777449548,None,1679.7796777449548,None,6,1,0.6506469139712863,1681.1669332789606,None,1681.1669332789606,None,1681.1669332789606,None,1681.8343123449595,None,1,0.28419232403393835,1681.8343123449595,None,152,1682.1350720479968,None,101,A,1,2021_May_19_1503,GazeFlow,2020.1.2,59.86120722199801,
13,Block501.xls,A,1,5,97,37,22,incongruent,Left,Right,Left,79,73,6,blue,2,5,/home/docky/apps/exp/images/79B.jpeg,/home/docky/apps/exp/images/73Bi.jpeg,0,12,12,12,0,4,4,4,1683.136768266966,None,1683.136768266966,None,1,2.739293964987155,1683.136768266966,None,1685.9099427009933,None,1685.9099427009933,None,1688.414832237002,None,1688.414832237002,None,1.2008408300462179,1690.2161750230007,None,1690.2161750230007,None,5,1,0.6840051669860259,1691.4033614029759,None,1691.4033614029759,None,1691.4033614029759,None,1692.1042158739874,None,1,0.3005769929732196,1692.1042158739874,None,154,1692.4215184009518,None,101,A,1,2021_May_19_1503,GazeFlow,2020.1.2,59.86120722199801,
13,Block501.xls,A,1,6,98,38,22,incongruent,Left,Right,Left,79,73,6,blue,2,5,/home/docky/apps/exp/images/79B.jpeg,/home/docky/apps/exp/images/73Bi.jpeg,0,12,12,12,0,5,5,5,1693.4233417619835,None,1693.4233417619835,None,1,3.040030248987023,1693.4233417619835,None,1696.4970385519555,None,1696.4970385519555,None,1698.9852353250026,None,1698.9852353250026,None,1.0502923040185124,1700.8036522119655,None,1700.8036522119655,None,5,1,0.7009107760386541,1701.8401812000084,None,1701.8401812000084,None,1701.8401812000084,None,1702.5577134179766,None,1,0.28410244901897386,1702.5577134179766,None,156,1702.858287491952,None,101,A,1,2021_May_19_1503,GazeFlow,2020.1.2,59.86120722199801,
13,Block501.xls,A,1,7,77,17,21,incongruent,Right,Left,Right,65,66,1,yellow,2,6,/home/docky/apps/exp/images/35B.jpeg,/home/docky/apps/exp/images/66Yi.jpeg,0,12,12,12,0,6,6,6,1703.8603831270011,None,1703.8603831270011,None,1,3.0398233860032633,1703.8603831270011,None,1706.9338795679505,None,1706.9338795679505,None,1709.4423830419546,None,1709.4423830419546,None,1.2345303680049255,1711.2334060379653,None,1711.2334060379653,None,5,0,0.6675002629635856,1712.4607652669656,None,1712.4607652669656,None,1712.4607652669656,None,1713.1451496349764,None,1,0.31698835600400344,1713.1451496349764,None,154,1713.479056838958,None,101,A,1,2021_May_19_1503,GazeFlow,2020.1.2,59.86120722199801,
13,Block501.xls,A,1,8,50,50,12,congruent,Right,Right,Left,66,65,1,yellow,2,5,/home/docky/apps/exp/images/66Y.jpeg,/home/docky/apps/exp/images/35Bi.jpeg,0,12,12,12,0,7,7,7,1714.4810016379924,None,1714.4810016379924,None,1,2.63944735302357,1714.4810016379924,None,1717.1600630339817,None,1717.1600630339817,None,1719.656740756007,None,1719.656740756007,None,1.4510773220099509,1721.4599525579833,None,1721.4599525579833,None,6,0,0.7008381499908864,1722.8979847099981,None,1722.8979847099981,None,1722.8979847099981,None,1723.6155941869947,None,1,0.251229349989444,1723.6155941869947,None,152,1723.8829799600062,None,101,A,1,2021_May_19_1503,GazeFlow,2020.1.2,59.86120722199801,
13,Block501.xls,A,,,,,,,,,,,,,,,,,,0,12,12,12,,,,,,,,,,,,,,,,,,,,,,,,,,,,,,,,,,,,,,,,,,,,101,A,1,2021_May_19_1503,GazeFlow,2020.1.2,59.86120722199801,
14,Block513.xls,A,13,1,32,32,12,congruent,Right,Right,Left,19,16,3,blue,2,5,/home/docky/apps/exp/images/19B.jpeg,/home/docky/apps/exp/images/16Bi.jpeg,0,13,13,13,0,0,0,0,1745.9602331349743,None,1745.9602331349743,None,1,3.1818389039835893,1745.9602331349743,None,1749.1639427219634,None,1749.1639427219634,None,1751.6876628839527,None,1751.6876628839527,None,1.0496873270021752,1753.491498807969,None,1753.491498807969,None,5,1,0.7511616799747571,1754.5257915830007,None,1754.5257915830007,None,1754.5257915830007,None,1755.2934036549996,None,1,0.35088933701626956,1755.2934036549996,None,154,1755.6610830279533,None,101,A,1,2021_May_19_1503,GazeFlow,2020.1.2,59.86120722199801,
14,Block513.xls,A,13,2,81,21,21,incongruent,Right,Left,Right,38,39,1,yellow,2,6,/home/docky/apps/exp/images/38Yi.jpeg,/home/docky/apps/exp/images/39Y.jpeg,0,13,13,13,0,1,1,1,1756.6625709439977,None,1756.6625709439977,None,1,2.790140927012544,1756.6625709439977,None,1759.4862463869504,None,1759.4862463869504,None,1761.9904805959668,None,1761.9904805959668,None,1.1001154130208306,1763.7926751939813,None,1763.7926751939813,None,6,1,0.6172131539788097,1764.8794544090051,None,1764.8794544090051,None,1764.8794544090051,None,1765.5133822659845,None,1,0.2674668449908495,1765.5133822659845,None,156,1765.797479551984,None,101,A,1,2021_May_19_1503,GazeFlow,2020.1.2,59.86120722199801,
14,Block513.xls,A,13,3,92,32,22,incongruent,Left,Right,Left,19,16,3,blue,2,5,/home/docky/apps/exp/images/19B.jpeg,/home/docky/apps/exp/images/16Bi.jpeg,0,13,13,13,0,2,2,2,1766.7991719520069,None,1766.7991719520069,None,1,2.8400664829532616,1766.7991719520069,None,1769.6724252129789,None,1769.6724252129789,None,1772.179529896006,None,1772.179529896006,None,1.0167455360060558,1773.9734617680078,None,1773.9734617680078,None,5,1,0.6504946869681589,1774.9824762899661,None,1774.9824762899661,None,1774.9824762899661,None,1775.649725042982,None,1,0.3177201939979568,1775.649725042982,None,158,1775.9837794110063,None,101,A,1,2021_May_19_1503,GazeFlow,2020.1.2,59.86120722199801,
14,Block513.xls,A,13,4,6,6,11,congruent,Left,Left,Right,65,66,1,blue,2,6,/home/docky/apps/exp/images/35Y.jpeg,/home/docky/apps/exp/images/66Bi.jpeg,0,13,13,13,0,3,3,3,1776.9859009259962,None,1776.9859009259962,None,1,2.472330028016586,1776.9859009259962,None,1779.4961517389747,None,1779.4961517389747,None,1781.9963799709803,None,1781.9963799709803,None,1.2004620080115274,1783.7984234619653,None,1783.7984234619653,None,5,0,0.8010085930000059,1784.9852214819985,None,1784.9852214819985,None,1784.9852214819985,None,1785.8030525390059,None,1,0.3171285970020108,1785.8030525390059,None,156,1786.136925266008,None,101,A,1,2021_May_19_1503,GazeFlow,2020.1.2,59.86120722199801,
14,Block513.xls,A,13,5,67,7,21,incongruent,Right,Left,Right,38,39,1,blue,2,6,/home/docky/apps/exp/images/38Bi.jpeg,/home/docky/apps/exp/images/39B.jpeg,0,13,13,13,0,4,4,4,1787.1386765379575,None,1787.1386765379575,None,1,2.6230860999785364,1787.1386765379575,None,1789.7951493389555,None,1789.7951493389555,None,1792.2983316049795,None,1792.2983316049795,None,1.0166449819807895,1794.1014926789794,None,1794.1014926789794,None,6,1,0.6506585750030354,1795.1048609569552,None,1795.1048609569552,None,1795.1048609569552,None,1795.772150735953,None,1,0.2839326490066014,1795.772150735953,None,158,1796.0726865319884,None,101,A,1,2021_May_19_1503,GazeFlow,2020.1.2,59.86120722199801,
14,Block513.xls,A,13,6,111,51,22,incongruent,Left,Right,Left,66,65,1,yellow,2,5,/home/docky/apps/exp/images/66Yi.jpeg,/home/docky/apps/exp/images/35B.jpeg,0,13,13,13,0,5,5,5,1797.074595671962,None,1797.074595671962,None,1,2.4221411750186235,1797.074595671962,None,1799.5306124609779,None,1799.5306124609779,None,1802.0340250909794,None,1802.0340250909794,None,1.017130261985585,1803.836535904964,None,1803.836535904964,None,5,1,0.6674577519879676,1804.8404237089562,None,1804.8404237089562,None,1804.8404237089562,None,1805.5244502849528,None,1,0.36744023801293224,1805.5244502849528,None,160,1805.9085161419935,None,101,A,1,2021_May_19_1503,GazeFlow,2020.1.2,59.86120722199801,
14,Block513.xls,A,13,7,88,28,21,incongruent,Right,Left,Right,79,82,3,yellow,2,6,/home/docky/apps/exp/images/79Y.jpeg,/home/docky/apps/exp/images/80Yi.jpeg,0,13,13,13,0,6,6,6,1806.9105912919622,None,1806.9105912919622,None,1,2.5888795650098473,1806.9105912919622,None,1809.5319796809927,None,1809.5319796809927,None,1812.0261776349507,None,1812.0261776349507,None,1.1183273129863665,1813.835441810952,None,1813.835441810952,None,6,1,0.6676106780068949,1814.9431898449548,None,1814.9431898449548,None,1814.9431898449548,None,1815.627183536999,None,1,0.267535723047331,1815.627183536999,None,162,1815.9112490169937,None,101,A,1,2021_May_19_1503,GazeFlow,2020.1.2,59.86120722199801,
14,Block513.xls,A,13,8,14,14,11,congruent,Left,Left,Right,80,83,3,blue,2,6,/home/docky/apps/exp/images/80B.jpeg,/home/docky/apps/exp/images/83Bi.jpeg,0,13,13,13,0,7,7,7,1816.9134169109748,None,1816.9134169109748,None,1,4.2755288439802825,1816.9134169109748,None,1821.22250158299,None,1821.22250158299,None,1823.7258078879677,None,1823.7258078879677,None,1.1838054200052284,1825.531081435969,None,1825.531081435969,None,6,1,0.7340387949952856,1826.6996863639797,None,1826.6996863639797,None,1826.6996863639797,None,1827.4503387439763,None,1,0.3172831879928708,1827.4503387439763,None,164,1827.7842473789933,None,101,A,1,2021_May_19_1503,GazeFlow,2020.1.2,59.86120722199801,
14,Block513.xls,A,,,,,,,,,,,,,,,,,,0,13,13,13,,,,,,,,,,,,,,,,,,,,,,,,,,,,,,,,,,,,,,,,,,,,101,A,1,2021_May_19_1503,GazeFlow,2020.1.2,59.86120722199801,
15,Block514.xls,A,14,1,113,53,22,incongruent,Left,Right,Left,75,69,6,yellow,2,5,/home/docky/apps/exp/images/76Y.jpeg,/home/docky/apps/exp/images/69Yi.jpeg,0,14,14,14,0,0,0,0,1858.1789604669902,None,1858.1789604669902,None,1,2.8111537900404073,1858.1789604669902,None,1861.0184482099721,None,1861.0184482099721,None,1863.538243857969,None,1863.538243857969,None,1.1167795979999937,1865.3415260439506,None,1865.3415260439506,None,5,1,0.7175995300058275,1866.4434142299579,None,1866.4434142299579,None,1866.4434142299579,None,1867.177589082974,None,1,0.3676378760137595,1867.177589082974,None,166,1867.5617588459863,None,101,A,1,2021_May_19_1503,GazeFlow,2020.1.2,59.86120722199801,
15,Block514.xls,A,14,2,45,45,12,congruent,Right,Right,Left,39,38,1,blue,2,5,/home/docky/apps/exp/images/39B.jpeg,/home/docky/apps/exp/images/38Bi.jpeg,0,14,14,14,0,1,1,1,1868.5634483519825,None,1868.5634483519825,None,1,2.673141727980692,1868.5634483519825,None,1871.2700789530063,None,1871.2700789530063,None,1873.7727553939912,None,1873.7727553939912,None,1.049971395987086,1875.57668474596,None,1875.57668474596,None,5,1,0.6341892519849353,1876.613058899995,None,1876.613058899995,None,1876.613058899995,None,1877.2639830239932,None,1,0.2839662149781361,1877.2639830239932,None,168,1877.564309439971,None,101,A,1,2021_May_19_1503,GazeFlow,2020.1.2,59.86120722199801,
15,Block514.xls,A,14,3,52,52,12,congruent,Right,Right,Left,75,69,6,yellow,2,5,/home/docky/apps/exp/images/76Y.jpeg,/home/docky/apps/exp/images/69Yi.jpeg,0,14,14,14,0,2,2,2,1878.5663685869658,None,1878.5663685869658,None,1,2.3719290220178664,1878.5663685869658,None,1880.9719289689674,None,1880.9719289689674,None,1883.474511451961,None,1883.474511451961,None,1.3846858009928837,1885.2636495549814,None,1885.2636495549814,None,5,1,0.7676930640009232,1886.6492761579575,None,1886.6492761579575,None,1886.6492761579575,None,1887.4336141349631,None,1,0.41794123098952696,1887.4336141349631,None,170,1887.8681218290003,None,101,A,1,2021_May_19_1503,GazeFlow,2020.1.2,59.86120722199801,
15,Block514.xls,A,14,4,106,46,22,incongruent,Left,Right,Left,35,33,2,yellow,2,5,/home/docky/apps/exp/images/35Yi.jpeg,/home/docky/apps/exp/images/33Y.jpeg,0,14,14,14,0,3,3,3,1888.8693274959805,None,1888.8693274959805,None,1,2.6894978570053354,1888.8693274959805,None,1891.591325183981,None,1891.591325183981,None,1894.09576236899,None,1894.09576236899,None,1.133993555966299,1895.893594964,None,1895.893594964,None,6,0,0.7006740670185536,1897.0195687899832,None,1897.0195687899832,None,1897.0195687899832,None,1897.7368329419987,None,1,0.3008856460219249,1897.7368329419987,None,168,1898.0538633089745,None,101,A,1,2021_May_19_1503,GazeFlow,2020.1.2,59.86120722199801,
15,Block514.xls,A,14,5,109,49,22,incongruent,Left,Right,Left,39,38,1,yellow,2,5,/home/docky/apps/exp/images/39Yi.jpeg,/home/docky/apps/exp/images/38Y.jpeg,0,14,14,14,0,4,4,4,1899.0562778479652,None,1899.0562778479652,None,1,2.8560050560045056,1899.0562778479652,None,1901.9462561939727,None,1901.9462561939727,None,1904.444567072962,None,1904.444567072962,None,0.966887627961114,1906.2522485219524,None,1906.2522485219524,None,6,0,0.700735145015642,1907.2058478549588,None,1907.2058478549588,None,1907.2058478549588,None,1907.923091217992,None,1,0.3008540790178813,1907.923091217992,None,166,1908.2405184109812,None,101,A,1,2021_May_19_1503,GazeFlow,2020.1.2,59.86120722199801,
15,Block514.xls,A,14,6,89,29,21,incongruent,Right,Left,Right,79,82,3,yellow,2,6,/home/docky/apps/exp/images/79Yi.jpeg,/home/docky/apps/exp/images/80Y.jpeg,0,14,14,14,0,5,5,5,1909.2424479079782,None,1909.2424479079782,None,1,3.3907684899750166,1909.2424479079782,None,1912.6571556190029,None,1912.6571556190029,None,1915.1696462649852,None,1915.1696462649852,None,0.9000462489784695,1916.9680650029914,None,1916.9680650029914,None,6,1,0.8341406150138937,1917.8599882329581,None,1917.8599882329581,None,1917.8599882329581,None,1918.71097506996,None,1,0.30079496098915115,1918.71097506996,None,168,1919.0282769500045,None,101,A,1,2021_May_19_1503,GazeFlow,2020.1.2,59.86120722199801,
15,Block514.xls,A,14,7,91,31,22,incongruent,Left,Right,Left,19,16,3,blue,2,5,/home/docky/apps/exp/images/19Bi.jpeg,/home/docky/apps/exp/images/16B.jpeg,0,14,14,14,0,6,6,6,1920.0301067959517,None,1920.0301067959517,None,1,3.1239037279738113,1920.0301067959517,None,1923.1873239239794,None,1923.1873239239794,None,1925.6920016689692,None,1925.6920016689692,None,0.9331118839909323,1927.4957090700045,None,1927.4957090700045,None,5,1,0.7342341299518012,1928.4136916049756,None,1928.4136916049756,None,1928.4136916049756,None,1929.1644360309583,None,1,0.4176617889897898,1929.1644360309583,None,170,1929.5986995179555,None,101,A,1,2021_May_19_1503,GazeFlow,2020.1.2,59.86120722199801,
15,Block514.xls,A,14,8,79,19,21,incongruent,Right,Left,Right,62,65,3,yellow,2,6,/home/docky/apps/exp/images/38B.jpeg,/home/docky/apps/exp/images/35Bi.jpeg,0,14,14,14,0,7,7,7,1930.6008609349956,None,1930.6008609349956,None,1,4.559316652012058,1930.6008609349956,None,1935.1940369299846,None,1935.1940369299846,None,1937.6976742519764,None,1937.6976742519764,None,1.1338393479818478,1939.500641495979,None,1939.500641495979,None,6,1,0.784184395975899,1940.620764744992,None,1940.620764744992,None,1940.620764744992,None,1941.4214887349517,None,1,0.3012047589872964,1941.4214887349517,None,172,1941.739309119992,None,101,A,1,2021_May_19_1503,GazeFlow,2020.1.2,59.86120722199801,
15,Block514.xls,A,,,,,,,,,,,,,,,,,,0,14,14,14,,,,,,,,,,,,,,,,,,,,,,,,,,,,,,,,,,,,,,,,,,,,101,A,1,2021_May_19_1503,GazeFlow,2020.1.2,59.86120722199801,
