Nblock,condsFile,grouping,Block,TrialBlock,N,trialN,trialCond,gazeCon,gazedirR,corrBinR,corrBinP,valLBY,valRBY,diff,colorCube,feedbacktext,corrAns,imageL,imageR,SelBlocks.thisRepN,SelBlocks.thisTrialN,SelBlocks.thisN,SelBlocks.thisIndex,Trials.thisRepN,Trials.thisTrialN,Trials.thisN,Trials.thisIndex,waitCube.started,waitCube.stopped,text_3.started,text_3.stopped,StartKeyPress.keys,StartKeyPress.rt,StartKeyPress.started,StartKeyPress.stopped,StimL.started,StimL.stopped,StimR.started,StimR.stopped,imageStim2L.started,imageStim2L.stopped,imageStim2R.started,imageStim2R.stopped,RTkeyRelease,imageStim3L.started,imageStim3L.stopped,imageStim3R.started,imageStim3R.stopped,dropResp.keys,dropResp.corr,dropResp.rt,dropResp.started,dropResp.stopped,imageStim5L.started,imageStim5L.stopped,imageStim5R.started,imageStim5R.stopped,text_2.started,text_2.stopped,ReturnSpace.keys,ReturnSpace.rt,ReturnSpace.started,ReturnSpace.stopped,totalpoints,textFeedback.started,textFeedback.stopped,participant,group,session,date,expName,psychopyVersion,frameRate,
1,Block809.xls,B,9,1,93,93,None,congruent,Right,Right,Left,80,79,1,yellow,2,5,/home/docky/apps/exp/images/80Y.jpeg,/home/docky/apps/exp/images/79Yi.jpeg,0,0,0,0,0,0,0,0,59.663761335017625,None,59.663761335017625,None,1,6.9358064840198494,59.663761335017625,None,66.62559301499277,None,66.62559301499277,None,69.15003500401508,None,69.15003500401508,None,1.099730831978377,70.95350862602936,None,70.95350862602936,None,5,1,2.287469331000466,72.03529122198233,None,72.03529122198233,None,72.03529122198233,None,74.33883410401177,None,1,0.735105095023755,74.33883410401177,None,2,75.09057157399366,None,102,B,1,2021_May_19_1802,GazeFlow,2020.1.2,59.95400484266423,
1,Block809.xls,B,9,2,15,15,None,congruent,Left,Left,Right,38,39,1,blue,2,6,/home/docky/apps/exp/images/38B.jpeg,/home/docky/apps/exp/images/39Bi.jpeg,0,0,0,0,0,1,1,1,76.09284629899776,None,76.09284629899776,None,1,3.7408522569458,76.09284629899776,None,79.86763410299318,None,79.86763410299318,None,82.37068134499714,None,82.37068134499714,None,1.0500813010148704,84.17412947898265,None,84.17412947898265,None,6,1,0.8176720759947784,85.21082261501579,None,85.21082261501579,None,85.21082261501579,None,86.04505362402415,None,1,0.70187051105313,86.04505362402415,None,4,86.76356674300041,None,102,B,1,2021_May_19_1802,GazeFlow,2020.1.2,59.95400484266423,
1,Block809.xls,B,9,3,117,21,None,incongruent,Left,Right,Left,39,38,1,yellow,2,5,/home/docky/apps/exp/images/39Yi.jpeg,/home/docky/apps/exp/images/38Y.jpeg,0,0,0,0,0,2,2,2,87.76509647798957,None,87.76509647798957,None,1,3.5910142959910445,87.76509647798957,None,91.38969017798081,None,91.38969017798081,None,93.89478846400743,None,93.89478846400743,None,1.5009788390016183,95.69287000602344,None,95.69287000602344,None,5,1,0.8345612589619122,97.18400343297981,None,97.18400343297981,None,97.18400343297981,None,98.0350447249948,None,1,0.568869415030349,98.0350447249948,None,6,98.61994471499929,None,102,B,1,2021_May_19_1802,GazeFlow,2020.1.2,59.95400484266423,
1,Block809.xls,B,9,4,94,94,None,congruent,Right,Right,Left,80,79,1,yellow,2,5,/home/docky/apps/exp/images/80Y.jpeg,/home/docky/apps/exp/images/79Yi.jpeg,0,0,0,0,0,3,3,3,99.6215802860097,None,99.6215802860097,None,1,7.982717281032819,99.6215802860097,None,107.63831355498405,None,107.63831355498405,None,110.14133045898052,None,110.14133045898052,None,1.0668687300058082,111.94537773699267,None,111.94537773699267,None,5,1,0.7839340249774978,112.99829081102507,None,112.99829081102507,None,112.99829081102507,None,113.79891754098935,None,1,0.4520394359715283,113.79891754098935,None,8,114.2668620669865,None,102,B,1,2021_May_19_1802,GazeFlow,2020.1.2,59.95400484266423,
1,Block809.xls,B,9,5,41,41,None,congruent,Right,Right,Left,79,76,3,blue,2,5,/home/docky/apps/exp/images/79Bi.jpeg,/home/docky/apps/exp/images/76B.jpeg,0,0,0,0,0,4,4,4,115.2682163239806,None,115.2682163239806,None,1,3.6581003880128264,115.2682163239806,None,118.96025486901635,None,118.96025486901635,None,121.46518150297925,None,121.46518150297925,None,1.0169064640067518,123.26675583701581,None,123.26675583701581,None,5,1,2.2205257599707693,124.26984423398972,None,124.26984423398972,None,124.26984423398972,None,126.50704837898957,None,1,0.46767669200198725,126.50704837898957,None,10,126.99127666198183,None,102,B,1,2021_May_19_1802,GazeFlow,2020.1.2,59.95400484266423,
1,Block809.xls,B,9,6,36,36,None,congruent,Right,Right,Left,79,73,6,blue,2,5,/home/docky/apps/exp/images/79Bi.jpeg,/home/docky/apps/exp/images/73B.jpeg,0,0,0,0,0,5,5,5,127.99368626601063,None,127.99368626601063,None,1,3.974609070981387,127.99368626601063,None,132.00219143001596,None,132.00219143001596,None,134.50548091199016,None,134.50548091199016,None,0.9501781110302545,136.31052475300385,None,136.31052475300385,None,5,1,0.7677827100269496,137.24519271001918,None,137.24519271001918,None,137.24519271001918,None,138.02910875703674,None,1,0.6686637809616514,138.02910875703674,None,12,138.7144322770182,None,102,B,1,2021_May_19_1802,GazeFlow,2020.1.2,59.95400484266423,
1,Block809.xls,B,9,7,78,78,None,congruent,Right,Right,Left,39,38,1,yellow,2,5,/home/docky/apps/exp/images/39Yi.jpeg,/home/docky/apps/exp/images/38Y.jpeg,0,0,0,0,0,6,6,6,139.71627642499516,None,139.71627642499516,None,1,3.7076686439686455,139.71627642499516,None,143.45770389999961,None,143.45770389999961,None,145.9626122600166,None,145.9626122600166,None,0.933452773024328,147.75891420501284,None,147.75891420501284,None,5,1,0.8343519290210679,148.68406021798728,None,148.68406021798728,None,148.68406021798728,None,149.53513107902836,None,1,0.6518123869900592,149.53513107902836,None,14,150.2033281190088,None,102,B,1,2021_May_19_1802,GazeFlow,2020.1.2,59.95400484266423,
1,Block809.xls,B,9,8,29,29,None,congruent,Right,Right,Left,38,35,3,blue,2,5,/home/docky/apps/exp/images/38B.jpeg,/home/docky/apps/exp/images/35Bi.jpeg,0,0,0,0,0,7,7,7,151.20470421400387,None,151.20470421400387,None,1,5.1944263149634935,151.20470421400387,None,156.43290060100844,None,156.43290060100844,None,158.9377297629835,None,158.9377297629835,None,0.9158552560256794,160.73763244401198,None,160.73763244401198,None,5,1,0.8177066699718125,161.64263772498816,None,161.64263772498816,None,161.64263772498816,None,162.47676995402435,None,1,0.6686625389847904,162.47676995402435,None,16,163.16196259198477,None,102,B,1,2021_May_19_1802,GazeFlow,2020.1.2,59.95400484266423,
1,Block809.xls,B,,,,,,,,,,,,,,,,,,0,0,0,0,,,,,,,,,,,,,,,,,,,,,,,,,,,,,,,,,,,,,,,,,,,,102,B,1,2021_May_19_1802,GazeFlow,2020.1.2,59.95400484266423,
2,Block805.xls,B,5,1,16,16,None,congruent,Left,Left,Right,73,76,3,blue,2,6,/home/docky/apps/exp/images/73B.jpeg,/home/docky/apps/exp/images/76Bi.jpeg,0,1,1,1,0,0,0,0,187.61189992103027,None,187.61189992103027,None,1,7.252027899958193,187.61189992103027,None,194.8946681499947,None,194.8946681499947,None,197.4130383930169,None,197.4130383930169,None,1.0160183820407838,199.215859775024,None,199.215859775024,None,6,1,0.9513138370239176,200.21735648298636,None,200.21735648298636,None,200.21735648298636,None,201.18524756201077,None,1,0.6524383049691096,201.18524756201077,None,18,201.85341237700777,None,102,B,1,2021_May_19_1802,GazeFlow,2020.1.2,59.95400484266423,
2,Block805.xls,B,5,2,2,2,None,congruent,Left,Left,Right,16,19,3,blue,2,6,/home/docky/apps/exp/images/16B.jpeg,/home/docky/apps/exp/images/19Bi.jpeg,0,1,1,1,0,1,1,1,202.8553421929828,None,202.8553421929828,None,1,3.2237164709949866,202.8553421929828,None,206.11280472303042,None,206.11280472303042,None,208.61729197000386,None,208.61729197000386,None,1.0000974400318228,210.42080906999763,None,210.42080906999763,None,6,1,0.8848173030419275,211.40556711802492,None,211.40556711802492,None,211.40556711802492,None,212.3070159649942,None,1,0.5181595829781145,212.3070159649942,None,20,212.84174437698675,None,102,B,1,2021_May_19_1802,GazeFlow,2020.1.2,59.95400484266423,
2,Block805.xls,B,5,3,64,64,None,congruent,Left,Left,Right,69,76,7,yellow,2,6,/home/docky/apps/exp/images/69Y.jpeg,/home/docky/apps/exp/images/76Yi.jpeg,0,1,1,1,0,2,2,2,213.84330455499003,None,213.84330455499003,None,1,3.007070511986967,213.84330455499003,None,216.88370177801698,None,216.88370177801698,None,219.3873903490021,None,219.3873903490021,None,1.2007475179852918,221.191795428982,None,221.191795428982,None,6,1,0.9014691680204123,222.3771936930134,None,222.3771936930134,None,222.3771936930134,None,223.29506843700074,None,1,1.0020817229524255,223.29506843700074,None,22,224.31342861399753,None,102,B,1,2021_May_19_1802,GazeFlow,2020.1.2,59.95400484266423,
2,Block805.xls,B,5,4,61,61,None,congruent,Left,Left,Right,38,39,1,yellow,2,6,/home/docky/apps/exp/images/38Yi.jpeg,/home/docky/apps/exp/images/39Y.jpeg,0,1,1,1,0,3,3,3,225.31567774299765,None,225.31567774299765,None,1,3.039805941982195,225.31567774299765,None,228.38920408900594,None,228.38920408900594,None,230.89408068999182,None,230.89408068999182,None,1.9351828240323812,232.69022925302852,None,232.69022925302852,None,5,0,0.9021844509989023,234.61764393001795,None,234.61764393001795,None,234.61764393001795,None,235.5358801240218,None,1,0.7010259960079566,235.5358801240218,None,20,236.2535605300218,None,102,B,1,2021_May_19_1802,GazeFlow,2020.1.2,59.95400484266423,
2,Block805.xls,B,5,5,23,23,None,congruent,Left,Left,Right,80,83,3,blue,2,6,/home/docky/apps/exp/images/80B.jpeg,/home/docky/apps/exp/images/83Bi.jpeg,0,1,1,1,0,4,4,4,237.25586328603094,None,237.25586328603094,None,1,3.724338719039224,237.25586328603094,None,241.0137898559915,None,241.0137898559915,None,243.51686770602828,None,243.51686770602828,None,0.9832235550275072,245.32214134500828,None,245.32214134500828,None,6,1,0.8845004930044524,246.2903682180331,None,246.2903682180331,None,246.2903682180331,None,247.19131989200832,None,1,0.4849746279651299,247.19131989200832,None,22,247.69286632200237,None,102,B,1,2021_May_19_1802,GazeFlow,2020.1.2,59.95400484266423,
2,Block805.xls,B,5,6,87,87,None,congruent,Right,Right,Left,76,69,7,yellow,2,5,/home/docky/apps/exp/images/76Yi.jpeg,/home/docky/apps/exp/images/69Y.jpeg,0,1,1,1,0,5,5,5,248.69428363401676,None,248.69428363401676,None,1,3.2404372339951806,248.69428363401676,None,251.96863145398675,None,251.96863145398675,None,254.47189727402292,None,254.47189727402292,None,1.0670247439993545,256.27549592999276,None,256.27549592999276,None,5,1,0.9347115760319866,257.3283426699927,None,257.3283426699927,None,257.3283426699927,None,258.279761376034,None,1,0.901647733990103,258.279761376034,None,24,259.19829341303557,None,102,B,1,2021_May_19_1802,GazeFlow,2020.1.2,59.95400484266423,
2,Block805.xls,B,5,7,4,4,None,congruent,Left,Left,Right,35,38,3,blue,2,6,/home/docky/apps/exp/images/35B.jpeg,/home/docky/apps/exp/images/38Bi.jpeg,0,1,1,1,0,6,6,6,260.2004621489905,None,260.2004621489905,None,1,3.0564098430331796,260.2004621489905,None,263.2906164220185,None,263.2906164220185,None,265.7935339360265,None,265.7935339360265,None,1.6004622890031897,267.59415355400415,None,267.59415355400415,None,6,1,0.9521068030153401,269.1849051649915,None,269.1849051649915,None,269.1849051649915,None,270.1531292370055,None,1,1.0017009339644574,270.1531292370055,None,26,271.171313363011,None,102,B,1,2021_May_19_1802,GazeFlow,2020.1.2,59.95400484266423,
2,Block805.xls,B,5,8,114,18,None,incongruent,Right,Left,Right,79,82,3,yellow,2,6,/home/docky/apps/exp/images/79Y.jpeg,/home/docky/apps/exp/images/80Yi.jpeg,0,1,1,1,0,7,7,7,272.1732470060233,None,272.1732470060233,None,1,3.1568251739954576,272.1732470060233,None,275.3643064009957,None,275.3643064009957,None,277.8672179839923,None,277.8672179839923,None,2.5870056559797376,279.6651653299923,None,279.6651653299923,None,5,0,1.1177298339898698,282.2608197890222,None,282.2608197890222,None,282.2608197890222,None,283.3951409860165,None,1,0.5513990769977681,283.3951409860165,None,24,283.96313206199557,None,102,B,1,2021_May_19_1802,GazeFlow,2020.1.2,59.95400484266423,
2,Block805.xls,B,,,,,,,,,,,,,,,,,,0,1,1,1,,,,,,,,,,,,,,,,,,,,,,,,,,,,,,,,,,,,,,,,,,,,102,B,1,2021_May_19_1802,GazeFlow,2020.1.2,59.95400484266423,
3,Block804.xls,B,4,1,95,95,None,congruent,Right,Right,Left,80,79,1,yellow,2,5,/home/docky/apps/exp/images/80Yi.jpeg,/home/docky/apps/exp/images/79Y.jpeg,0,2,2,2,0,0,0,0,305.1567201379803,None,305.1567201379803,None,1,5.698012851993553,305.1567201379803,None,310.88889604399446,None,310.88889604399446,None,313.40465877903625,None,313.40465877903625,None,1.0496480679721572,315.20809795102105,None,315.20809795102105,None,5,1,0.901917573006358,316.2426732869935,None,316.2426732869935,None,316.2426732869935,None,317.160555200011,None,1,0.6017099620075896,317.160555200011,None,26,317.77834201202495,None,102,B,1,2021_May_19_1802,GazeFlow,2020.1.2,59.95400484266423,
3,Block804.xls,B,4,2,107,11,None,incongruent,Left,Right,Left,83,80,3,blue,2,5,/home/docky/apps/exp/images/83Bi.jpeg,/home/docky/apps/exp/images/80B.jpeg,0,2,2,2,0,1,1,1,318.78067365603056,None,318.78067365603056,None,1,3.691545479989145,318.78067365603056,None,322.5095072410186,None,322.5095072410186,None,325.010356615996,None,325.010356615996,None,1.718237069027964,326.81392523198156,None,326.81392523198156,None,5,1,1.0021665390231647,328.51659835799364,None,328.51659835799364,None,328.51659835799364,None,329.5351814820315,None,1,0.6174164930125698,329.5351814820315,None,28,330.16954093798995,None,102,B,1,2021_May_19_1802,GazeFlow,2020.1.2,59.95400484266423,
3,Block804.xls,B,4,3,27,27,None,congruent,Right,Right,Left,19,16,3,blue,2,5,/home/docky/apps/exp/images/19Bi.jpeg,/home/docky/apps/exp/images/16B.jpeg,0,2,2,2,0,2,2,2,331.17119319399353,None,331.17119319399353,None,1,3.808228520967532,331.17119319399353,None,335.01305532001425,None,335.01305532001425,None,337.5163321379805,None,337.5163321379805,None,0.9665554009843618,339.31911188701633,None,339.31911188701633,None,5,1,0.8174837719998322,340.27289467898663,None,340.27289467898663,None,340.27289467898663,None,341.10718364600325,None,1,0.5851350779994391,341.10718364600325,None,30,341.7087972750305,None,102,B,1,2021_May_19_1802,GazeFlow,2020.1.2,59.95400484266423,
3,Block804.xls,B,4,4,101,5,None,incongruent,Right,Left,Right,76,79,3,blue,2,6,/home/docky/apps/exp/images/76B.jpeg,/home/docky/apps/exp/images/79Bi.jpeg,0,2,2,2,0,3,3,3,342.71033404400805,None,342.71033404400805,None,1,4.226010545040481,342.71033404400805,None,346.9712570050033,None,346.9712570050033,None,349.47444176702993,None,349.47444176702993,None,1.0337743500131182,351.27625318599166,None,351.27625318599166,None,6,1,0.901585353014525,352.2961503340048,None,352.2961503340048,None,352.2961503340048,None,353.21401719999267,None,1,0.5019291570060886,353.21401719999267,None,32,353.732192408992,None,102,B,1,2021_May_19_1802,GazeFlow,2020.1.2,59.95400484266423,
3,Block804.xls,B,4,5,47,47,None,congruent,Right,Right,Left,39,38,1,blue,2,5,/home/docky/apps/exp/images/39Bi.jpeg,/home/docky/apps/exp/images/38B.jpeg,0,2,2,2,0,4,4,4,354.73338489001617,None,354.73338489001617,None,1,2.7567691639997065,354.73338489001617,None,357.5237228270271,None,357.5237228270271,None,360.02790523000294,None,360.02790523000294,None,0.8836473040282726,361.8318950739922,None,361.8318950739922,None,5,1,0.9010980109451339,362.69979651400354,None,362.69979651400354,None,362.69979651400354,None,363.61765564000234,None,1,0.48487299302360043,363.61765564000234,None,34,364.1191859319806,None,102,B,1,2021_May_19_1802,GazeFlow,2020.1.2,59.95400484266423,
3,Block804.xls,B,4,6,90,90,None,congruent,Right,Right,Left,77,72,5,yellow,2,5,/home/docky/apps/exp/images/77Yi.jpeg,/home/docky/apps/exp/images/72Y.jpeg,0,2,2,2,0,5,5,5,365.1208225750015,None,365.1208225750015,None,1,3.2567473360104486,365.1208225750015,None,368.41138042497914,None,368.41138042497914,None,370.91440355498344,None,370.91440355498344,None,0.9832721029524691,372.7130900140037,None,372.7130900140037,None,5,1,0.9013674509478733,373.6877240950125,None,373.6877240950125,None,373.6877240950125,None,374.60547760903137,None,1,0.6189791980432346,374.60547760903137,None,36,375.2406482290244,None,102,B,1,2021_May_19_1802,GazeFlow,2020.1.2,59.95400484266423,
3,Block804.xls,B,4,7,12,12,None,congruent,Left,Left,Right,38,39,1,blue,2,6,/home/docky/apps/exp/images/38B.jpeg,/home/docky/apps/exp/images/39Bi.jpeg,0,2,2,2,0,6,6,6,376.242104962992,None,376.242104962992,None,1,3.9917220470379107,376.242104962992,None,380.26769161998527,None,380.26769161998527,None,382.7728004910168,None,382.7728004910168,None,1.0168073480017483,384.56995109602576,None,384.56995109602576,None,6,1,0.8845937050064094,385.57776936801383,None,385.57776936801383,None,385.57776936801383,None,386.47859664598946,None,1,0.5353825759957545,386.47859664598946,None,38,387.03016212099465,None,102,B,1,2021_May_19_1802,GazeFlow,2020.1.2,59.95400484266423,
3,Block804.xls,B,4,8,20,20,None,congruent,Left,Left,Right,76,79,3,blue,2,6,/home/docky/apps/exp/images/76Bi.jpeg,/home/docky/apps/exp/images/79B.jpeg,0,2,2,2,0,7,7,7,388.03186463500606,None,388.03186463500606,None,1,3.1070190870086662,388.03186463500606,None,391.17226457502693,None,391.17226457502693,None,393.67489361198386,None,393.67489361198386,None,0.9330594899947755,395.47883910202654,None,395.47883910202654,None,6,1,0.9179479079903103,396.3986637070193,None,396.3986637070193,None,396.3986637070193,None,397.332956348022,None,1,0.568924666964449,397.332956348022,None,40,397.91801645298256,None,102,B,1,2021_May_19_1802,GazeFlow,2020.1.2,59.95400484266423,
3,Block804.xls,B,,,,,,,,,,,,,,,,,,0,2,2,2,,,,,,,,,,,,,,,,,,,,,,,,,,,,,,,,,,,,,,,,,,,,102,B,1,2021_May_19_1802,GazeFlow,2020.1.2,59.95400484266423,
4,Block814.xls,B,14,1,99,3,None,incongruent,Right,Left,Right,65,66,1,blue,2,6,/home/docky/apps/exp/images/35Yi.jpeg,/home/docky/apps/exp/images/66B.jpeg,0,3,3,3,0,0,0,0,417.35577294498216,None,417.35577294498216,None,1,6.1363471079966985,417.35577294498216,None,423.51774957601447,None,423.51774957601447,None,426.0410079230205,None,426.0410079230205,None,2.1851384220062755,427.8435917519964,None,427.8435917519964,None,6,1,1.5359113099984825,430.0137497649994,None,430.0137497649994,None,430.0137497649994,None,431.5665006660274,None,1,0.6009432789869606,431.5665006660274,None,42,432.184220495983,None,102,B,1,2021_May_19_1802,GazeFlow,2020.1.2,59.95400484266423,
4,Block814.xls,B,14,2,34,34,None,congruent,Right,Right,Left,66,65,1,blue,2,5,/home/docky/apps/exp/images/66B.jpeg,/home/docky/apps/exp/images/35Yi.jpeg,0,3,3,3,0,1,1,1,433.1865966490004,None,433.1865966490004,None,1,2.838989603042137,433.1865966490004,None,436.0595501100179,None,436.0595501100179,None,438.56445213599363,None,438.56445213599363,None,0.983391018002294,440.366287434008,None,440.366287434008,None,5,1,0.8341821870417334,441.3357062059804,None,441.3357062059804,None,441.3357062059804,None,442.1867811609991,None,1,0.5855414000106975,442.1867811609991,None,44,442.7885113020311,None,102,B,1,2021_May_19_1802,GazeFlow,2020.1.2,59.95400484266423,
4,Block814.xls,B,14,3,91,91,None,congruent,Right,Right,Left,77,72,5,yellow,2,5,/home/docky/apps/exp/images/77Yi.jpeg,/home/docky/apps/exp/images/72Y.jpeg,0,3,3,3,0,2,2,2,443.78978099499363,None,443.78978099499363,None,1,3.374470769020263,443.78978099499363,None,447.19761521200417,None,447.19761521200417,None,449.7024232810363,None,449.7024232810363,None,1.0670083629665896,451.50398475001566,None,451.50398475001566,None,5,1,0.9347793830092996,452.5574430929846,None,452.5574430929846,None,452.5574430929846,None,453.50875969900517,None,1,0.6855618000263348,453.50875969900517,None,46,454.2106960589881,None,102,B,1,2021_May_19_1802,GazeFlow,2020.1.2,59.95400484266423,
4,Block814.xls,B,14,4,68,68,None,congruent,Left,Left,Right,72,77,5,yellow,2,6,/home/docky/apps/exp/images/72Yi.jpeg,/home/docky/apps/exp/images/77Y.jpeg,0,3,3,3,0,3,3,3,455.2121062860242,None,455.2121062860242,None,1,3.3577454289770685,455.2121062860242,None,458.6031029460137,None,458.6031029460137,None,461.10790982597973,None,461.10790982597973,None,0.7661958480020985,462.91147139301756,None,462.91147139301756,None,6,1,0.8181864810176194,463.662375445012,None,463.662375445012,None,463.662375445012,None,464.49681758199586,None,1,0.6012930030119605,464.49681758199586,None,48,465.1149532030104,None,102,B,1,2021_May_19_1802,GazeFlow,2020.1.2,59.95400484266423,
4,Block814.xls,B,14,5,66,66,None,congruent,Left,Left,Right,69,76,7,yellow,2,6,/home/docky/apps/exp/images/69Yi.jpeg,/home/docky/apps/exp/images/76Y.jpeg,0,3,3,3,0,4,4,4,466.1169301960035,None,466.1169301960035,None,1,2.7892487110220827,466.1169301960035,None,468.94004666002,None,468.94004666002,None,471.4445714909816,None,471.4445714909816,None,1.1006861900095828,473.24839103699196,None,473.24839103699196,None,6,1,0.9347287079435773,474.3332793089794,None,474.3332793089794,None,474.3332793089794,None,475.2847112210002,None,1,0.6514970129937865,475.2847112210002,None,50,475.95289151300676,None,102,B,1,2021_May_19_1802,GazeFlow,2020.1.2,59.95400484266423,
4,Block814.xls,B,14,6,115,19,None,incongruent,Left,Right,Left,80,79,1,yellow,2,5,/home/docky/apps/exp/images/80Yi.jpeg,/home/docky/apps/exp/images/79Y.jpeg,0,3,3,3,0,5,5,5,476.9545209450298,None,476.9545209450298,None,1,2.5560093230451457,476.9545209450298,None,479.54373953398317,None,479.54373953398317,None,482.04708679998294,None,482.04708679998294,None,2.537038506998215,483.850427486992,None,483.850427486992,None,5,1,1.9362626009969972,486.39049481303664,None,486.39049481303664,None,486.39049481303664,None,488.3432113280287,None,1,0.5186462710262276,488.3432113280287,None,52,488.87804692500504,None,102,B,1,2021_May_19_1802,GazeFlow,2020.1.2,59.95400484266423,
4,Block814.xls,B,14,7,9,9,None,congruent,Left,Left,Right,65,66,1,blue,2,6,/home/docky/apps/exp/images/35Yi.jpeg,/home/docky/apps/exp/images/66B.jpeg,0,3,3,3,0,6,6,6,489.87998212798266,None,489.87998212798266,None,1,3.524070458021015,489.87998212798266,None,493.4375191340223,None,493.4375191340223,None,495.9421628600103,None,495.9421628600103,None,0.9163706800318323,497.7391128860181,None,497.7391128860181,None,6,1,0.9011937340255827,498.6472241579904,None,498.6472241579904,None,498.6472241579904,None,499.56473193102283,None,1,0.5686996660078876,499.56473193102283,None,54,500.1498530090321,None,102,B,1,2021_May_19_1802,GazeFlow,2020.1.2,59.95400484266423,
4,Block814.xls,B,14,8,14,14,None,congruent,Left,Left,Right,38,39,1,blue,2,6,/home/docky/apps/exp/images/38Bi.jpeg,/home/docky/apps/exp/images/39B.jpeg,0,3,3,3,0,7,7,7,501.1513663579826,None,501.1513663579826,None,1,2.772773311997298,501.1513663579826,None,503.9578692910145,None,503.9578692910145,None,506.46089878003113,None,506.46089878003113,None,1.5344152040197514,508.26472596498206,None,508.26472596498206,None,6,1,3.039475369034335,509.7855717840139,None,509.7855717840139,None,509.7855717840139,None,512.8410812399816,None,1,0.7687685260316357,512.8410812399816,None,56,513.6259142089984,None,102,B,1,2021_May_19_1802,GazeFlow,2020.1.2,59.95400484266423,
4,Block814.xls,B,,,,,,,,,,,,,,,,,,0,3,3,3,,,,,,,,,,,,,,,,,,,,,,,,,,,,,,,,,,,,,,,,,,,,102,B,1,2021_May_19_1802,GazeFlow,2020.1.2,59.95400484266423,
5,Block812.xls,B,12,1,18,18,None,congruent,Left,Left,Right,73,76,3,blue,2,6,/home/docky/apps/exp/images/73B.jpeg,/home/docky/apps/exp/images/76Bi.jpeg,0,4,4,4,0,0,0,0,538.1569838700234,None,538.1569838700234,None,1,5.180585188034456,538.1569838700234,None,543.3627524669864,None,543.3627524669864,None,545.8874711390235,None,545.8874711390235,None,1.0161438930081204,547.6695971270092,None,547.6695971270092,None,6,1,0.9677467400324531,548.677802709979,None,548.677802709979,None,548.677802709979,None,549.6623563180328,None,1,0.6347271560225636,549.6623563180328,None,58,550.3135891110287,None,102,B,1,2021_May_19_1802,GazeFlow,2020.1.2,59.95400484266423,
5,Block812.xls,B,12,2,3,3,None,congruent,Left,Left,Right,16,19,3,blue,2,6,/home/docky/apps/exp/images/16Bi.jpeg,/home/docky/apps/exp/images/19B.jpeg,0,4,4,4,0,1,1,1,551.315875736007,None,551.315875736007,None,1,3.8911743669887073,551.315875736007,None,555.2409355809796,None,555.2409355809796,None,557.742960764037,None,557.742960764037,None,0.9496885039843619,559.5473831249983,None,559.5473831249983,None,6,1,0.8848012610105798,560.4837759999791,None,560.4837759999791,None,560.4837759999791,None,561.3851327510201,None,1,0.5517187400255352,561.3851327510201,None,60,561.953275693988,None,102,B,1,2021_May_19_1802,GazeFlow,2020.1.2,59.95400484266423,
5,Block812.xls,B,12,3,56,56,None,congruent,Left,Left,Right,62,65,3,yellow,2,6,/home/docky/apps/exp/images/38Bi.jpeg,/home/docky/apps/exp/images/35B.jpeg,0,4,4,4,0,2,2,2,562.9546037390246,None,562.9546037390246,None,1,2.739535531029105,562.9546037390246,None,565.7286362010054,None,565.7286362010054,None,568.2306739520282,None,568.2306739520282,None,0.9331132179941051,570.0347890389967,None,570.0347890389967,None,6,1,0.884403910022229,570.9542782980134,None,570.9542782980134,None,570.9542782980134,None,571.8555812450359,None,1,0.5007572390022688,571.8555812450359,None,62,572.3730472230236,None,102,B,1,2021_May_19_1802,GazeFlow,2020.1.2,59.95400484266423,
5,Block812.xls,B,12,4,11,11,None,congruent,Left,Left,Right,38,39,1,blue,2,6,/home/docky/apps/exp/images/38B.jpeg,/home/docky/apps/exp/images/39Bi.jpeg,0,4,4,4,0,3,3,3,573.3751341769821,None,573.3751341769821,None,1,2.8564900070196018,573.3751341769821,None,576.2718874390121,None,576.2718874390121,None,578.7698372920277,None,578.7698372920277,None,1.6181999439722858,580.5662497410085,None,580.5662497410085,None,6,1,0.8349442750331946,582.1760964210262,None,582.1760964210262,None,582.1760964210262,None,583.0274091170286,None,1,0.434504178003408,583.0274091170286,None,64,583.4785797850345,None,102,B,1,2021_May_19_1802,GazeFlow,2020.1.2,59.95400484266423,
5,Block812.xls,B,12,5,116,20,None,incongruent,Left,Right,Left,35,33,2,yellow,2,5,/home/docky/apps/exp/images/35Yi.jpeg,/home/docky/apps/exp/images/33Y.jpeg,0,4,4,4,0,4,4,4,584.4801380099962,None,584.4801380099962,None,1,2.755728847987484,584.4801380099962,None,587.2694869510015,None,587.2694869510015,None,589.7745210269932,None,589.7745210269932,None,1.0339308860129677,591.5711477150326,None,591.5711477150326,None,5,1,0.9847129060071893,592.5963028569822,None,592.5963028569822,None,592.5963028569822,None,593.5975996730267,None,1,0.4678551980177872,593.5975996730267,None,66,594.0818397160037,None,102,B,1,2021_May_19_1802,GazeFlow,2020.1.2,59.95400484266423,
5,Block812.xls,B,12,6,40,40,None,congruent,Right,Right,Left,79,76,3,blue,2,5,/home/docky/apps/exp/images/79Bi.jpeg,/home/docky/apps/exp/images/76B.jpeg,0,4,4,4,0,5,5,5,595.0837515880121,None,595.0837515880121,None,1,3.991898123000283,595.0837515880121,None,599.109223233012,None,599.109223233012,None,601.6126673829858,None,601.6126673829858,None,1.1338666150113568,603.4159909120062,None,603.4159909120062,None,5,1,0.8679034609813243,604.5361823689891,None,604.5361823689891,None,604.5361823689891,None,605.4205489720334,None,1,0.5844009550055489,605.4205489720334,None,68,606.0217397820088,None,102,B,1,2021_May_19_1802,GazeFlow,2020.1.2,59.95400484266423,
5,Block812.xls,B,12,7,76,76,None,congruent,Right,Right,Left,39,38,1,yellow,2,5,/home/docky/apps/exp/images/39Yi.jpeg,/home/docky/apps/exp/images/38Y.jpeg,0,4,4,4,0,6,6,6,607.0237378120073,None,607.0237378120073,None,1,3.6076730400091037,607.0237378120073,None,610.6651960990275,None,610.6651960990275,None,613.1685493770055,None,613.1685493770055,None,0.9330839330214076,614.9720643340261,None,614.9720643340261,None,5,1,0.8844640059978701,615.8914912290056,None,615.8914912290056,None,615.8914912290056,None,616.7926450060331,None,1,0.501666741038207,616.7926450060331,None,70,617.3107543539954,None,102,B,1,2021_May_19_1802,GazeFlow,2020.1.2,59.95400484266423,
5,Block812.xls,B,12,8,77,77,None,congruent,Right,Right,Left,39,38,1,yellow,2,5,/home/docky/apps/exp/images/39Y.jpeg,/home/docky/apps/exp/images/38Yi.jpeg,0,4,4,4,0,7,7,7,618.3122825720347,None,618.3122825720347,None,1,3.774684349016752,618.3122825720347,None,622.1209789889981,None,622.1209789889981,None,624.6235684540006,None,624.6235684540006,None,2.0022922650096007,626.4272540250095,None,626.4272540250095,None,5,1,0.8350627269828692,628.4158057870227,None,628.4158057870227,None,628.4158057870227,None,629.2672402560129,None,1,0.43395137699553743,629.2672402560129,None,72,629.7179859420285,None,102,B,1,2021_May_19_1802,GazeFlow,2020.1.2,59.95400484266423,
5,Block812.xls,B,,,,,,,,,,,,,,,,,,0,4,4,4,,,,,,,,,,,,,,,,,,,,,,,,,,,,,,,,,,,,,,,,,,,,102,B,1,2021_May_19_1802,GazeFlow,2020.1.2,59.95400484266423,
6,Block803.xls,B,3,1,84,84,None,congruent,Right,Right,Left,75,69,6,yellow,2,5,/home/docky/apps/exp/images/76Yi.jpeg,/home/docky/apps/exp/images/69Y.jpeg,0,5,5,5,0,0,0,0,658.7152403770015,None,658.7152403770015,None,1,5.162760943989269,658.7152403770015,None,663.9056894429959,None,663.9056894429959,None,666.4233553670347,None,666.4233553670347,None,1.1833950729924254,668.2270440260181,None,668.2270440260181,None,5,1,1.0513541820109822,669.3955710729933,None,669.3955710729933,None,669.3955710729933,None,670.4634585669846,None,1,0.5684905649977736,670.4634585669846,None,74,671.0486392389867,None,102,B,1,2021_May_19_1802,GazeFlow,2020.1.2,59.95400484266423,
6,Block803.xls,B,3,2,82,82,None,congruent,Right,Right,Left,66,65,1,yellow,2,5,/home/docky/apps/exp/images/66Y.jpeg,/home/docky/apps/exp/images/35Bi.jpeg,0,5,5,5,0,1,1,1,672.0500013899873,None,672.0500013899873,None,1,3.374375867017079,672.0500013899873,None,675.4578267299803,None,675.4578267299803,None,677.9608585280366,None,677.9608585280366,None,0.8663037320366129,679.7596030450077,None,679.7596030450077,None,5,1,0.8510409499867819,680.6172333040158,None,680.6172333040158,None,680.6172333040158,None,681.4852154420223,None,1,0.5011635649716482,681.4852154420223,None,76,682.0027256890316,None,102,B,1,2021_May_19_1802,GazeFlow,2020.1.2,59.95400484266423,
6,Block803.xls,B,3,3,80,80,None,congruent,Right,Right,Left,66,65,1,yellow,2,5,/home/docky/apps/exp/images/66Yi.jpeg,/home/docky/apps/exp/images/35B.jpeg,0,5,5,5,0,2,2,2,683.0048279860057,None,683.0048279860057,None,1,4.091841591987759,683.0048279860057,None,687.1306410470279,None,687.1306410470279,None,689.635181738995,None,689.635181738995,None,2.202404511976056,691.437209847034,None,691.437209847034,None,5,1,0.9183233580552042,693.6258582500159,None,693.6258582500159,None,693.6258582500159,None,694.5605012230226,None,1,0.4676397700095549,694.5605012230226,None,78,695.0447021599975,None,102,B,1,2021_May_19_1802,GazeFlow,2020.1.2,59.95400484266423,
6,Block803.xls,B,3,4,79,79,None,congruent,Right,Right,Left,66,65,1,yellow,2,5,/home/docky/apps/exp/images/66Y.jpeg,/home/docky/apps/exp/images/35Bi.jpeg,0,5,5,5,0,3,3,3,696.0470292040263,None,696.0470292040263,None,1,4.727024095016532,696.0470292040263,None,700.8070123330108,None,700.8070123330108,None,703.3117043600068,None,703.3117043600068,None,0.9166819579550065,705.114837482979,None,705.114837482979,None,5,1,0.850862129998859,706.0166443220223,None,706.0166443220223,None,706.0166443220223,None,706.8845709129819,None,1,0.4841837999993004,706.8845709129819,None,80,707.3858574380283,None,102,B,1,2021_May_19_1802,GazeFlow,2020.1.2,59.95400484266423,
6,Block803.xls,B,3,5,92,92,None,congruent,Right,Right,Left,77,72,5,yellow,2,5,/home/docky/apps/exp/images/77Y.jpeg,/home/docky/apps/exp/images/72Yi.jpeg,0,5,5,5,0,4,4,4,708.3872844260186,None,708.3872844260186,None,1,3.424046667001676,708.3872844260186,None,711.8449690110283,None,711.8449690110283,None,714.3513811900048,None,714.3513811900048,None,0.9667696339893155,716.1508196089999,None,716.1508196089999,None,5,1,0.8343968419940211,717.1048700470128,None,717.1048700470128,None,717.1048700470128,None,717.9557563469862,None,1,0.5349300010129809,717.9557563469862,None,82,718.5072135219816,None,102,B,1,2021_May_19_1802,GazeFlow,2020.1.2,59.95400484266423,
6,Block803.xls,B,3,6,106,10,None,incongruent,Left,Right,Left,79,76,3,blue,2,5,/home/docky/apps/exp/images/79Bi.jpeg,/home/docky/apps/exp/images/76B.jpeg,0,5,5,5,0,5,5,5,719.5089207470301,None,719.5089207470301,None,1,4.04200930299703,719.5089207470301,None,723.5881135039963,None,723.5881135039963,None,726.0893943299889,None,726.0893943299889,None,0.9333178499946371,727.8910650060279,None,727.8910650060279,None,5,1,0.8844093669904396,728.810880753037,None,728.810880753037,None,728.810880753037,None,729.7119044850115,None,1,0.5177747490233742,729.7119044850115,None,84,730.2470771439839,None,102,B,1,2021_May_19_1802,GazeFlow,2020.1.2,59.95400484266423,
6,Block803.xls,B,3,7,25,25,None,congruent,Right,Right,Left,19,16,3,blue,2,5,/home/docky/apps/exp/images/19Bi.jpeg,/home/docky/apps/exp/images/16B.jpeg,0,5,5,5,0,6,6,6,731.2485797189875,None,731.2485797189875,None,1,4.709607437020168,731.2485797189875,None,735.9918625170249,None,735.9918625170249,None,738.4946691300138,None,738.4946691300138,None,1.2006002940470353,740.2980083000148,None,740.2980083000148,None,5,1,0.9848484930116683,741.4855198530131,None,741.4855198530131,None,741.4855198530131,None,742.4869296920369,None,1,0.6685685639968142,742.4869296920369,None,86,743.1720071040327,None,102,B,1,2021_May_19_1802,GazeFlow,2020.1.2,59.95400484266423,
6,Block803.xls,B,3,8,46,46,None,congruent,Right,Right,Left,39,38,1,blue,2,5,/home/docky/apps/exp/images/39B.jpeg,/home/docky/apps/exp/images/38Bi.jpeg,0,5,5,5,0,7,7,7,744.1735981840175,None,744.1735981840175,None,1,4.075248843000736,744.1735981840175,None,748.2824803389958,None,748.2824803389958,None,750.7858578049927,None,750.7858578049927,None,0.9328599389991723,752.5839049310307,None,752.5839049310307,None,5,1,0.7844564319821075,753.508917750034,None,753.508917750034,None,753.508917750034,None,754.3097138300072,None,1,0.48435644002165645,754.3097138300072,None,88,754.8108866480179,None,102,B,1,2021_May_19_1802,GazeFlow,2020.1.2,59.95400484266423,
6,Block803.xls,B,,,,,,,,,,,,,,,,,,0,5,5,5,,,,,,,,,,,,,,,,,,,,,,,,,,,,,,,,,,,,,,,,,,,,102,B,1,2021_May_19_1802,GazeFlow,2020.1.2,59.95400484266423,
7,Block810.xls,B,10,1,119,23,None,incongruent,Left,Right,Left,76,69,7,yellow,2,5,/home/docky/apps/exp/images/76Yi.jpeg,/home/docky/apps/exp/images/69Y.jpeg,0,6,6,6,0,0,0,0,777.1362210750231,None,777.1362210750231,None,1,4.499953688995447,777.1362210750231,None,781.6701439280296,None,781.6701439280296,None,784.1855025860132,None,784.1855025860132,None,3.0707717670011334,785.9866351970122,None,785.9866351970122,None,5,1,0.9843390890164301,789.061736505013,None,789.061736505013,None,789.061736505013,None,790.0623153549968,None,1,0.6012775810086168,790.0623153549968,None,90,790.6802357800188,None,102,B,1,2021_May_19_1802,GazeFlow,2020.1.2,59.95400484266423,
7,Block810.xls,B,10,2,43,43,None,congruent,Right,Right,Left,83,80,3,blue,2,5,/home/docky/apps/exp/images/83B.jpeg,/home/docky/apps/exp/images/80Bi.jpeg,0,6,6,6,0,1,1,1,791.6826035800041,None,791.6826035800041,None,1,4.726359911961481,791.6826035800041,None,796.4428776350105,None,796.4428776350105,None,798.946204197011,None,798.946204197011,None,0.9501197339850478,800.7448822769802,None,800.7448822769802,None,5,1,0.8843708430067636,801.6856878949911,None,801.6856878949911,None,801.6856878949911,None,802.5866936509847,None,1,0.7525391840026714,802.5866936509847,None,92,803.3552501479862,None,102,B,1,2021_May_19_1802,GazeFlow,2020.1.2,59.95400484266423,
7,Block810.xls,B,10,3,53,53,None,congruent,Left,Left,Right,65,66,1,yellow,2,6,/home/docky/apps/exp/images/35Bi.jpeg,/home/docky/apps/exp/images/66Y.jpeg,0,6,6,6,0,2,2,2,804.3569676210172,None,804.3569676210172,None,1,3.642129769024905,804.3569676210172,None,808.0324790389859,None,808.0324790389859,None,810.5351183930179,None,810.5351183930179,None,0.7665204739896581,812.3383558529895,None,812.3383558529895,None,6,1,1.0848769760341384,813.0912258760072,None,813.0912258760072,None,813.0912258760072,None,814.1926880970132,None,1,1.0360899799852632,814.1926880970132,None,94,815.2451723709819,None,102,B,1,2021_May_19_1802,GazeFlow,2020.1.2,59.95400484266423,
7,Block810.xls,B,10,4,74,74,None,congruent,Right,Right,Left,35,33,2,yellow,2,5,/home/docky/apps/exp/images/35Y.jpeg,/home/docky/apps/exp/images/33Yi.jpeg,0,6,6,6,0,3,3,3,816.2474078250234,None,816.2474078250234,None,1,2.7219568619620986,816.2474078250234,None,819.0030892909854,None,819.0030892909854,None,821.5066987369792,None,821.5066987369792,None,1.0164739839965478,823.311578525987,None,823.311578525987,None,5,1,0.8345072420197539,824.3129521689843,None,824.3129521689843,None,824.3129521689843,None,825.1644176010159,None,1,0.5684101849910803,825.1644176010159,None,96,825.7489541170071,None,102,B,1,2021_May_19_1802,GazeFlow,2020.1.2,59.95400484266423,
7,Block810.xls,B,10,5,21,21,None,congruent,Left,Left,Right,76,79,3,blue,2,6,/home/docky/apps/exp/images/76B.jpeg,/home/docky/apps/exp/images/79Bi.jpeg,0,6,6,6,0,4,4,4,826.7503374370281,None,826.7503374370281,None,1,4.6771400480065495,826.7503374370281,None,831.4607292480068,None,831.4607292480068,None,833.9638853290235,None,833.9638853290235,None,0.9670991050079465,835.7620551270084,None,835.7620551270084,None,6,1,0.8677143169916235,836.7204742830363,None,836.7204742830363,None,836.7204742830363,None,837.6048924800125,None,1,0.5684665699955076,837.6048924800125,None,98,838.1897096179891,None,102,B,1,2021_May_19_1802,GazeFlow,2020.1.2,59.95400484266423,
7,Block810.xls,B,10,6,85,85,None,congruent,Right,Right,Left,75,69,6,yellow,2,5,/home/docky/apps/exp/images/76Y.jpeg,/home/docky/apps/exp/images/69Yi.jpeg,0,6,6,6,0,5,5,5,839.1911826269934,None,839.1911826269934,None,1,2.472806410980411,839.1911826269934,None,841.697196826979,None,841.697196826979,None,844.2017604960129,None,844.2017604960129,None,1.117038594034966,846.0040060239844,None,846.0040060239844,None,5,1,0.90122863301076,847.1072312649922,None,847.1072312649922,None,847.1072312649922,None,848.0251112499973,None,1,0.6021652480121702,848.0251112499973,None,100,848.6439783850219,None,102,B,1,2021_May_19_1802,GazeFlow,2020.1.2,59.95400484266423,
7,Block810.xls,B,10,7,49,49,None,congruent,Left,Left,Right,33,35,2,yellow,2,6,/home/docky/apps/exp/images/33Yi.jpeg,/home/docky/apps/exp/images/35Y.jpeg,0,6,6,6,0,6,6,6,849.6450306840125,None,849.6450306840125,None,1,3.206719037028961,849.6450306840125,None,852.885751445021,None,852.885751445021,None,855.3888398979907,None,855.3888398979907,None,0.9166435620281845,857.1922824479989,None,857.1922824479989,None,6,1,0.7842944559524767,858.0954022289952,None,858.0954022289952,None,858.0954022289952,None,858.8963115320075,None,1,0.4006293029524386,858.8963115320075,None,102,859.3137593410211,None,102,B,1,2021_May_19_1802,GazeFlow,2020.1.2,59.95400484266423,
7,Block810.xls,B,10,8,63,63,None,congruent,Left,Left,Right,38,39,1,yellow,2,6,/home/docky/apps/exp/images/38Y.jpeg,/home/docky/apps/exp/images/39Yi.jpeg,0,6,6,6,0,7,7,7,860.3159882070031,None,860.3159882070031,None,1,2.3720266390009783,860.3159882070031,None,862.7212719860254,None,862.7212719860254,None,865.226144935994,None,865.226144935994,None,0.8664880539872684,867.0272714960156,None,867.0272714960156,None,6,1,0.8679275710019283,867.8809148329892,None,867.8809148329892,None,867.8809148329892,None,868.7656086630304,None,1,0.551041956001427,868.7656086630304,None,104,869.3331495050224,None,102,B,1,2021_May_19_1802,GazeFlow,2020.1.2,59.95400484266423,
7,Block810.xls,B,,,,,,,,,,,,,,,,,,0,6,6,6,,,,,,,,,,,,,,,,,,,,,,,,,,,,,,,,,,,,,,,,,,,,102,B,1,2021_May_19_1802,GazeFlow,2020.1.2,59.95400484266423,
8,Block801.xls,B,1,1,1,1,None,congruent,Left,Left,Right,16,19,3,blue,2,6,/home/docky/apps/exp/images/16Bi.jpeg,/home/docky/apps/exp/images/19B.jpeg,0,7,7,7,0,0,0,0,899.2601492970134,None,899.2601492970134,None,1,3.379123766964767,899.2601492970134,None,902.6687402540119,None,902.6687402540119,None,905.187178350985,None,905.187178350985,None,1.0659010210074484,906.9909300639993,None,906.9909300639993,None,6,1,0.9349442669772543,908.0423721740372,None,908.0423721740372,None,908.0423721740372,None,908.9934546980076,None,1,0.5679101429996081,908.9934546980076,None,106,909.5782234270009,None,102,B,1,2021_May_19_1802,GazeFlow,2020.1.2,59.95400484266423,
8,Block801.xls,B,1,2,105,9,None,incongruent,Left,Right,Left,79,73,6,blue,2,5,/home/docky/apps/exp/images/79B.jpeg,/home/docky/apps/exp/images/73Bi.jpeg,0,7,7,7,0,1,1,1,910.5800147050177,None,910.5800147050177,None,1,2.839459716982674,910.5800147050177,None,913.4584031950217,None,913.4584031950217,None,915.95596612402,None,915.95596612402,None,1.634937689988874,917.7540666200221,None,917.7540666200221,None,5,1,0.8353166779852472,919.381060543994,None,919.381060543994,None,919.381060543994,None,920.2324726440129,None,1,0.5841517259832472,920.2324726440129,None,108,920.8328264800366,None,102,B,1,2021_May_19_1802,GazeFlow,2020.1.2,59.95400484266423,
8,Block801.xls,B,1,3,62,62,None,congruent,Left,Left,Right,38,39,1,yellow,2,6,/home/docky/apps/exp/images/38Y.jpeg,/home/docky/apps/exp/images/39Yi.jpeg,0,7,7,7,0,2,2,2,921.8353645700263,None,921.8353645700263,None,1,3.490623151010368,921.8353645700263,None,925.3574583390146,None,925.3574583390146,None,927.8628334060195,None,927.8628334060195,None,0.9336191799957305,929.6602832209901,None,929.6602832209901,None,6,1,0.8343887759838253,930.5861978320172,None,930.5861978320172,None,930.5861978320172,None,931.4370271500084,None,1,0.5343782469863072,931.4370271500084,None,110,931.9882694080006,None,102,B,1,2021_May_19_1802,GazeFlow,2020.1.2,59.95400484266423,
8,Block801.xls,B,1,4,38,38,None,congruent,Right,Right,Left,79,73,6,blue,2,5,/home/docky/apps/exp/images/79B.jpeg,/home/docky/apps/exp/images/73Bi.jpeg,0,7,7,7,0,3,3,3,932.9899699530215,None,932.9899699530215,None,1,2.5057826510164887,932.9899699530215,None,935.5293872869806,None,935.5293872869806,None,938.0326677039848,None,938.0326677039848,None,0.9669676490011625,939.8358001720044,None,939.8358001720044,None,5,1,0.8342583740013652,940.789260843012,None,940.789260843012,None,940.789260843012,None,941.6401502650115,None,1,0.7353298100060783,941.6401502650115,None,112,942.3916133529856,None,102,B,1,2021_May_19_1802,GazeFlow,2020.1.2,59.95400484266423,
8,Block801.xls,B,1,5,6,6,None,congruent,Left,Left,Right,35,38,3,blue,2,6,/home/docky/apps/exp/images/35Bi.jpeg,/home/docky/apps/exp/images/38B.jpeg,0,7,7,7,0,4,4,4,943.3937234529876,None,943.3937234529876,None,1,3.3242171989986673,943.3937234529876,None,946.7543828309863,None,946.7543828309863,None,949.2601076710271,None,949.2601076710271,None,0.9332638580235653,951.0573841630248,None,951.0573841630248,None,6,1,0.8678195690154098,951.9775933719939,None,951.9775933719939,None,951.9775933719939,None,952.8619142930256,None,1,0.5177972880192101,952.8619142930256,None,114,953.3962958680349,None,102,B,1,2021_May_19_1802,GazeFlow,2020.1.2,59.95400484266423,
8,Block801.xls,B,1,6,51,51,None,congruent,Left,Left,Right,33,35,2,yellow,2,6,/home/docky/apps/exp/images/33Yi.jpeg,/home/docky/apps/exp/images/35Y.jpeg,0,7,7,7,0,5,5,5,954.3983504060307,None,954.3983504060307,None,1,2.7059191199950874,954.3983504060307,None,957.1382182469824,None,957.1382182469824,None,959.6407771499944,None,959.6407771499944,None,1.0501578940311447,961.4450003880193,None,961.4450003880193,None,6,1,0.8343667020089924,962.481434974994,None,962.481434974994,None,962.481434974994,None,963.3324747430161,None,1,0.6184862569789402,963.3324747430161,None,116,963.9672216679901,None,102,B,1,2021_May_19_1802,GazeFlow,2020.1.2,59.95400484266423,
8,Block801.xls,B,1,7,73,73,None,congruent,Right,Right,Left,35,33,2,yellow,2,5,/home/docky/apps/exp/images/35Yi.jpeg,/home/docky/apps/exp/images/33Y.jpeg,0,7,7,7,0,6,6,6,964.9689028440043,None,964.9689028440043,None,1,3.6915900880121626,964.9689028440043,None,968.694937332999,None,968.694937332999,None,971.1987901050015,None,971.1987901050015,None,0.9832891050027683,973.000877620012,None,973.000877620012,None,5,1,0.9176626720000058,973.9704336330178,None,973.9704336330178,None,973.9704336330178,None,974.9051817230065,None,1,0.5514879350084811,974.9051817230065,None,118,975.4731477460009,None,102,B,1,2021_May_19_1802,GazeFlow,2020.1.2,59.95400484266423,
8,Block801.xls,B,1,8,96,96,None,congruent,Right,Right,Left,80,79,1,yellow,2,5,/home/docky/apps/exp/images/80Yi.jpeg,/home/docky/apps/exp/images/79Y.jpeg,0,7,7,7,0,7,7,7,976.4747996720253,None,976.4747996720253,None,1,3.156622642010916,976.4747996720253,None,979.6652005040087,None,979.6652005040087,None,982.1685030719964,None,982.1685030719964,None,1.049607452005148,983.9701082920074,None,983.9701082920074,None,5,1,0.867392236017622,985.0089065560023,None,985.0089065560023,None,985.0089065560023,None,985.8930515969987,None,1,0.5351304280338809,985.8930515969987,None,120,986.444418323983,None,102,B,1,2021_May_19_1802,GazeFlow,2020.1.2,59.95400484266423,
8,Block801.xls,B,,,,,,,,,,,,,,,,,,0,7,7,7,,,,,,,,,,,,,,,,,,,,,,,,,,,,,,,,,,,,,,,,,,,,102,B,1,2021_May_19_1802,GazeFlow,2020.1.2,59.95400484266423,
9,Block802.xls,B,2,1,30,30,None,congruent,Right,Right,Left,38,35,3,blue,2,5,/home/docky/apps/exp/images/38B.jpeg,/home/docky/apps/exp/images/35Bi.jpeg,0,8,8,8,0,0,0,0,1013.8820846219896,None,1013.8820846219896,None,1,4.247027777950279,1013.8820846219896,None,1018.1603690920165,None,1018.1603690920165,None,1020.6766155940131,None,1020.6766155940131,None,10.351452636008617,1022.4818383780075,None,1022.4818383780075,None,5,1,12.557152145018335,1032.8353241989971,None,1032.8353241989971,None,1032.8353241989971,None,1045.408870415995,None,1,0.9354088900145143,1045.408870415995,None,122,1046.3607855620212,None,102,B,1,2021_May_19_1802,GazeFlow,2020.1.2,59.95400484266423,
9,Block802.xls,B,2,2,5,5,None,congruent,Left,Left,Right,35,38,3,blue,2,6,/home/docky/apps/exp/images/35B.jpeg,/home/docky/apps/exp/images/38Bi.jpeg,0,8,8,8,0,1,1,1,1047.3627465160098,None,1047.3627465160098,None,1,4.092068477999419,1047.3627465160098,None,1051.4880726999836,None,1051.4880726999836,None,1053.9912642409909,None,1053.9912642409909,None,1.1337259790161625,1055.7923166659893,None,1055.7923166659893,None,6,1,0.9179132839781232,1056.9147261590115,None,1056.9147261590115,None,1056.9147261590115,None,1057.8493686360307,None,1,0.7854916210053489,1057.8493686360307,None,124,1058.651245711022,None,102,B,1,2021_May_19_1802,GazeFlow,2020.1.2,59.95400484266423,
9,Block802.xls,B,2,3,103,7,None,incongruent,Left,Right,Left,19,16,3,blue,2,5,/home/docky/apps/exp/images/19Bi.jpeg,/home/docky/apps/exp/images/16B.jpeg,0,8,8,8,0,2,2,2,1059.6529188239947,None,1059.6529188239947,None,1,2.438959415012505,1059.6529188239947,None,1062.1254307589843,None,1062.1254307589843,None,1064.6300808800152,None,1064.6300808800152,None,1.3177112090052105,1066.4326214910252,None,1066.4326214910252,None,5,1,1.0015049920184538,1067.7358131119981,None,1067.7358131119981,None,1067.7358131119981,None,1068.7537364379968,None,1,0.5686106709763408,1068.7537364379968,None,126,1069.3388404370053,None,102,B,1,2021_May_19_1802,GazeFlow,2020.1.2,59.95400484266423,
9,Block802.xls,B,2,4,35,35,None,congruent,Right,Right,Left,66,65,1,blue,2,5,/home/docky/apps/exp/images/66B.jpeg,/home/docky/apps/exp/images/35Yi.jpeg,0,8,8,8,0,3,3,3,1070.3401326949825,None,1070.3401326949825,None,1,3.2236129870289005,1070.3401326949825,None,1073.596038800024,None,1073.596038800024,None,1076.1021309930366,None,1076.1021309930366,None,0.949953388015274,1077.9036400199984,None,1077.9036400199984,None,5,1,0.8512400609906763,1078.8407097710297,None,1078.8407097710297,None,1078.8407097710297,None,1079.7083179409965,None,1,0.6019163510063663,1079.7083179409965,None,128,1080.3265103650047,None,102,B,1,2021_May_19_1802,GazeFlow,2020.1.2,59.95400484266423,
9,Block802.xls,B,2,5,42,42,None,congruent,Right,Right,Left,83,80,3,blue,2,5,/home/docky/apps/exp/images/83Bi.jpeg,/home/docky/apps/exp/images/80B.jpeg,0,8,8,8,0,4,4,4,1081.3284667039989,None,1081.3284667039989,None,1,3.123000825988129,1081.3284667039989,None,1084.4854233859805,None,1084.4854233859805,None,1086.990386453981,None,1086.990386453981,None,0.9326606250251643,1088.790811016981,None,1088.790811016981,None,5,1,0.8846229659975506,1089.7118846779922,None,1089.7118846779922,None,1089.7118846779922,None,1090.613173242018,None,1,0.8690394920413382,1090.613173242018,None,130,1091.4984151379904,None,102,B,1,2021_May_19_1802,GazeFlow,2020.1.2,59.95400484266423,
9,Block802.xls,B,2,6,104,8,None,incongruent,Left,Right,Left,38,35,3,blue,2,5,/home/docky/apps/exp/images/38B.jpeg,/home/docky/apps/exp/images/35Bi.jpeg,0,8,8,8,0,5,5,5,1092.4999987109913,None,1092.4999987109913,None,1,3.958913221023977,1092.4999987109913,None,1096.4922821720247,None,1096.4922821720247,None,1098.9954466540366,None,1098.9954466540366,None,4.690831425017677,1100.7981193379965,None,1100.7981193379965,None,5,1,0.8171636349870823,1105.4930417329888,None,1105.4930417329888,None,1105.4930417329888,None,1106.3269612049917,None,1,0.5011064439895563,1106.3269612049917,None,132,1106.8445390129928,None,102,B,1,2021_May_19_1802,GazeFlow,2020.1.2,59.95400484266423,
9,Block802.xls,B,2,7,22,22,None,congruent,Left,Left,Right,80,83,3,blue,2,6,/home/docky/apps/exp/images/80Bi.jpeg,/home/docky/apps/exp/images/83B.jpeg,0,8,8,8,0,6,6,6,1107.8467897670344,None,1107.8467897670344,None,1,3.256432735011913,1107.8467897670344,None,1111.138686389022,None,1111.138686389022,None,1113.6406730639865,None,1113.6406730639865,None,0.9834625970106572,1115.445637051016,None,1115.445637051016,None,6,1,0.9180571609758772,1116.4136644119862,None,1116.4136644119862,None,1116.4136644119862,None,1117.348177406995,None,1,0.7686866110307164,1117.348177406995,None,134,1118.1334114469937,None,102,B,1,2021_May_19_1802,GazeFlow,2020.1.2,59.95400484266423,
9,Block802.xls,B,2,8,54,54,None,congruent,Left,Left,Right,65,66,1,yellow,2,6,/home/docky/apps/exp/images/35Bi.jpeg,/home/docky/apps/exp/images/66Y.jpeg,0,8,8,8,0,7,7,7,1119.1349982540123,None,1119.1349982540123,None,1,2.605884909047745,1119.1349982540123,None,1121.7743979209918,None,1121.7743979209918,None,1124.277619510016,None,1124.277619510016,None,1.0834754899842665,1126.080074055004,None,1126.080074055004,None,6,1,0.8010822199867107,1127.1511670789914,None,1127.1511670789914,None,1127.1511670789914,None,1127.9689037069911,None,1,0.8018402049783617,1127.9689037069911,None,136,1128.7874683740083,None,102,B,1,2021_May_19_1802,GazeFlow,2020.1.2,59.95400484266423,
9,Block802.xls,B,,,,,,,,,,,,,,,,,,0,8,8,8,,,,,,,,,,,,,,,,,,,,,,,,,,,,,,,,,,,,,,,,,,,,102,B,1,2021_May_19_1802,GazeFlow,2020.1.2,59.95400484266423,
10,Block813.xls,B,13,1,70,70,None,congruent,Left,Left,Right,79,82,3,yellow,2,6,/home/docky/apps/exp/images/79Yi.jpeg,/home/docky/apps/exp/images/80Y.jpeg,0,9,9,9,0,0,0,0,1147.8412106100004,None,1147.8412106100004,None,1,4.700466819049325,1147.8412106100004,None,1152.568382241996,None,1152.568382241996,None,1155.0892214030027,None,1155.0892214030027,None,1.01651808997849,1156.8927293979796,None,1156.8927293979796,None,6,1,0.8847927899914794,1157.8942947839969,None,1157.8942947839969,None,1157.8942947839969,None,1158.7953545770142,None,1,0.8020717300241813,1158.7953545770142,None,138,1159.6140558940242,None,102,B,1,2021_May_19_1802,GazeFlow,2020.1.2,59.95400484266423,
10,Block813.xls,B,13,2,60,60,None,congruent,Left,Left,Right,38,39,1,yellow,2,6,/home/docky/apps/exp/images/38Yi.jpeg,/home/docky/apps/exp/images/39Y.jpeg,0,9,9,9,0,1,1,1,1160.6155879879952,None,1160.6155879879952,None,1,2.639678876963444,1160.6155879879952,None,1163.2898516749847,None,1163.2898516749847,None,1165.7913164059864,None,1165.7913164059864,None,1.3842540229670703,1167.5891231540008,None,1167.5891231540008,None,5,0,3.824379272002261,1168.9657715450157,None,1168.9657715450157,None,1168.9657715450157,None,1172.8063171670074,None,1,0.6348180200438946,1172.8063171670074,None,136,1173.4576565410243,None,102,B,1,2021_May_19_1802,GazeFlow,2020.1.2,59.95400484266423,
10,Block813.xls,B,13,3,81,81,None,congruent,Right,Right,Left,66,65,1,yellow,2,5,/home/docky/apps/exp/images/66Y.jpeg,/home/docky/apps/exp/images/35Bi.jpeg,0,9,9,9,0,2,2,2,1174.4595328270225,None,1174.4595328270225,None,1,4.458670366031583,1174.4595328270225,None,1178.9519763630233,None,1178.9519763630233,None,1181.4571037649876,None,1181.4571037649876,None,1.0502064459724352,1183.2590019580093,None,1183.2590019580093,None,5,1,0.8175960839726031,1184.2956644539954,None,1184.2956644539954,None,1184.2956644539954,None,1185.1300777519937,None,1,0.651855347037781,1185.1300777519937,None,138,1185.7980386909912,None,102,B,1,2021_May_19_1802,GazeFlow,2020.1.2,59.95400484266423,
10,Block813.xls,B,13,4,110,14,None,incongruent,Right,Left,Right,65,66,1,yellow,2,6,/home/docky/apps/exp/images/35B.jpeg,/home/docky/apps/exp/images/66Yi.jpeg,0,9,9,9,0,3,3,3,1186.799961931014,None,1186.799961931014,None,1,3.3743319800123572,1186.799961931014,None,1190.2075697529945,None,1190.2075697529945,None,1192.7124026290257,None,1192.7124026290257,None,3.872837664966937,1194.513722371019,None,1194.513722371019,None,6,1,0.7692315230378881,1198.3877859099885,None,1198.3877859099885,None,1198.3877859099885,None,1199.1736781559885,None,1,0.5012165509979241,1199.1736781559885,None,140,1199.6913965719868,None,102,B,1,2021_May_19_1802,GazeFlow,2020.1.2,59.95400484266423,
10,Block813.xls,B,13,5,17,17,None,congruent,Left,Left,Right,73,76,3,blue,2,6,/home/docky/apps/exp/images/73Bi.jpeg,/home/docky/apps/exp/images/76B.jpeg,0,9,9,9,0,4,4,4,1200.693893091986,None,1200.693893091986,None,1,2.354759062989615,1200.693893091986,None,1203.0861306129955,None,1203.0861306129955,None,1205.5876144979848,None,1205.5876144979848,None,0.9500810300232843,1207.390606815985,None,1207.390606815985,None,6,1,0.9680078509845771,1208.3254251130274,None,1208.3254251130274,None,1208.3254251130274,None,1209.3102584650042,None,1,0.584838229988236,1209.3102584650042,None,142,1209.911771635001,None,102,B,1,2021_May_19_1802,GazeFlow,2020.1.2,59.95400484266423,
10,Block813.xls,B,13,6,111,15,None,incongruent,Right,Left,Right,62,65,3,yellow,2,6,/home/docky/apps/exp/images/38B.jpeg,/home/docky/apps/exp/images/35Bi.jpeg,0,9,9,9,0,5,5,5,1210.9131601640256,None,1210.9131601640256,None,1,2.405984909972176,1210.9131601640256,None,1213.3525797959883,None,1213.3525797959883,None,1215.8548401620355,None,1215.8548401620355,None,2.5869096079841256,1217.6531717060134,None,1217.6531717060134,None,6,1,0.8005703499657102,1220.2491501090117,None,1220.2491501090117,None,1220.2491501090117,None,1221.0662431690143,None,1,0.5176989320316352,1221.0662431690143,None,144,1221.600687200029,None,102,B,1,2021_May_19_1802,GazeFlow,2020.1.2,59.95400484266423,
10,Block813.xls,B,13,7,55,55,None,congruent,Left,Left,Right,65,66,1,yellow,2,6,/home/docky/apps/exp/images/35B.jpeg,/home/docky/apps/exp/images/66Yi.jpeg,0,9,9,9,0,6,6,6,1222.6030536629842,None,1222.6030536629842,None,1,2.7556130030425265,1222.6030536629842,None,1225.392547424999,None,1225.392547424999,None,1227.8954284270294,None,1227.8954284270294,None,3.9398892620229162,1229.6938580499846,None,1229.6938580499846,None,6,1,3.589709664986003,1233.641899009992,None,1233.641899009992,None,1233.641899009992,None,1237.2481685740058,None,1,0.5846929569961503,1237.2481685740058,None,146,1237.8493358209962,None,102,B,1,2021_May_19_1802,GazeFlow,2020.1.2,59.95400484266423,
10,Block813.xls,B,13,8,26,26,None,congruent,Right,Right,Left,19,16,3,blue,2,5,/home/docky/apps/exp/images/19B.jpeg,/home/docky/apps/exp/images/16Bi.jpeg,0,9,9,9,0,7,7,7,1238.8512357270229,None,1238.8512357270229,None,1,3.240343267971184,1238.8512357270229,None,1242.124865225982,None,1242.124865225982,None,1244.627728558029,None,1244.627728558029,None,1.0339137149858288,1246.4319451950141,None,1246.4319451950141,None,5,1,0.9344363950076513,1247.4514696220285,None,1247.4514696220285,None,1247.4514696220285,None,1248.4030752740218,None,1,0.718627431022469,1248.4030752740218,None,148,1249.1379425270134,None,102,B,1,2021_May_19_1802,GazeFlow,2020.1.2,59.95400484266423,
10,Block813.xls,B,,,,,,,,,,,,,,,,,,0,9,9,9,,,,,,,,,,,,,,,,,,,,,,,,,,,,,,,,,,,,,,,,,,,,102,B,1,2021_May_19_1802,GazeFlow,2020.1.2,59.95400484266423,
11,Block806.xls,B,6,1,10,10,None,congruent,Left,Left,Right,65,66,1,blue,2,6,/home/docky/apps/exp/images/35Y.jpeg,/home/docky/apps/exp/images/66Bi.jpeg,0,10,10,10,0,0,0,0,1270.564507047995,None,1270.564507047995,None,1,4.5307326260372065,1270.564507047995,None,1275.120129066985,None,1275.120129066985,None,1277.6440459070145,None,1277.6440459070145,None,3.4211709529627115,1279.4475718170288,None,1279.4475718170288,None,6,1,1.0842210330301896,1282.870926010015,None,1282.870926010015,None,1282.870926010015,None,1283.9719856189913,None,1,0.71803990699118,1283.9719856189913,None,150,1284.7068015949917,None,102,B,1,2021_May_19_1802,GazeFlow,2020.1.2,59.95400484266423,
11,Block806.xls,B,6,2,89,89,None,congruent,Right,Right,Left,76,69,7,yellow,2,5,/home/docky/apps/exp/images/76Yi.jpeg,/home/docky/apps/exp/images/69Y.jpeg,0,10,10,10,0,1,1,1,1285.7090204940178,None,1285.7090204940178,None,1,2.6887229780550115,1285.7090204940178,None,1288.4300387619878,None,1288.4300387619878,None,1290.9347083600005,None,1290.9347083600005,None,0.8832168349763379,1292.7329415599816,None,1292.7329415599816,None,5,1,0.8510675689904019,1293.607854848029,None,1293.607854848029,None,1293.607854848029,None,1294.475364654034,None,1,0.6020282770041376,1294.475364654034,None,152,1295.093909725023,None,102,B,1,2021_May_19_1802,GazeFlow,2020.1.2,59.95400484266423,
11,Block806.xls,B,6,3,88,88,None,congruent,Right,Right,Left,76,69,7,yellow,2,5,/home/docky/apps/exp/images/76Y.jpeg,/home/docky/apps/exp/images/69Yi.jpeg,0,10,10,10,0,2,2,2,1296.0952277220204,None,1296.0952277220204,None,1,3.0066211039666086,1296.0952277220204,None,1299.1354657720076,None,1299.1354657720076,None,1301.6385024359915,None,1301.6385024359915,None,0.9667435690062121,1303.4422318300349,None,1303.4422318300349,None,5,1,0.8511866519693285,1304.395408942015,None,1304.395408942015,None,1304.395408942015,None,1305.2631320509827,None,1,0.5350472849677317,1305.2631320509827,None,154,1305.814667973027,None,102,B,1,2021_May_19_1802,GazeFlow,2020.1.2,59.95400484266423,
11,Block806.xls,B,6,4,109,13,None,incongruent,Right,Left,Right,33,35,2,yellow,2,6,/home/docky/apps/exp/images/33Yi.jpeg,/home/docky/apps/exp/images/35Y.jpeg,0,10,10,10,0,3,3,3,1306.8162921380135,None,1306.8162921380135,None,1,6.8637809860520065,1306.8162921380135,None,1313.7120210410212,None,1313.7120210410212,None,1316.2174422350363,None,1316.2174422350363,None,1.0503083459916525,1318.022245789005,None,1318.022245789005,None,5,0,0.8178043839870952,1319.0571561410325,None,1319.0571561410325,None,1319.0571561410325,None,1319.891508865985,None,1,0.501714684010949,1319.891508865985,None,152,1320.4096641649958,None,102,B,1,2021_May_19_1802,GazeFlow,2020.1.2,59.95400484266423,
11,Block806.xls,B,6,5,37,37,None,congruent,Right,Right,Left,79,73,6,blue,2,5,/home/docky/apps/exp/images/79Bi.jpeg,/home/docky/apps/exp/images/73B.jpeg,0,10,10,10,0,4,4,4,1321.4115200550295,None,1321.4115200550295,None,1,3.6241242790129036,1321.4115200550295,None,1325.069426125032,None,1325.069426125032,None,1327.5739948030096,None,1327.5739948030096,None,0.9166618069866672,1329.376414281025,None,1329.376414281025,None,5,1,0.8510333960293792,1330.279236079019,None,1330.279236079019,None,1330.279236079019,None,1331.1468467070372,None,1,0.7019686650019139,1331.1468467070372,None,154,1331.8651007940061,None,102,B,1,2021_May_19_1802,GazeFlow,2020.1.2,59.95400484266423,
11,Block806.xls,B,6,6,108,12,None,incongruent,Left,Right,Left,39,38,1,blue,2,5,/home/docky/apps/exp/images/39Bi.jpeg,/home/docky/apps/exp/images/38B.jpeg,0,10,10,10,0,5,5,5,1332.8668972470332,None,1332.8668972470332,None,1,3.2238345830119215,1332.8668972470332,None,1336.1241636420018,None,1336.1241636420018,None,1338.6258868580335,None,1338.6258868580335,None,1.1003555740462616,1340.430241101014,None,1340.430241101014,None,5,1,0.7844290970242582,1341.5174250130076,None,1341.5174250130076,None,1341.5174250130076,None,1342.3183978039888,None,1,0.5183688970282674,1342.3183978039888,None,156,1342.8532847110182,None,102,B,1,2021_May_19_1802,GazeFlow,2020.1.2,59.95400484266423,
11,Block806.xls,B,6,7,52,52,None,congruent,Left,Left,Right,65,66,1,yellow,2,6,/home/docky/apps/exp/images/35B.jpeg,/home/docky/apps/exp/images/66Yi.jpeg,0,10,10,10,0,6,6,6,1343.855075325002,None,1343.855075325002,None,1,3.8918968249927275,1343.855075325002,None,1347.780021479004,None,1347.780021479004,None,1350.2845596889965,None,1350.2845596889965,None,1.4676406150101684,1352.085956785013,None,1352.085956785013,None,6,1,1.0191116019850597,1353.5408066469827,None,1353.5408066469827,None,1353.5408066469827,None,1354.5760239600204,None,1,1.569436890014913,1354.5760239600204,None,158,1356.161917667021,None,102,B,1,2021_May_19_1802,GazeFlow,2020.1.2,59.95400484266423,
11,Block806.xls,B,6,8,75,75,None,congruent,Right,Right,Left,35,33,2,yellow,2,5,/home/docky/apps/exp/images/35Yi.jpeg,/home/docky/apps/exp/images/33Y.jpeg,0,10,10,10,0,7,7,7,1357.1644156810362,None,1357.1644156810362,None,1,3.657094007008709,1357.1644156810362,None,1360.8539702530252,None,1360.8539702530252,None,1363.3583158919937,None,1363.3583158919937,None,0.8332740280311555,1365.161476473033,None,1365.161476473033,None,5,1,0.8844117600237951,1365.9818640070152,None,1365.9818640070152,None,1365.9818640070152,None,1366.8828638219857,None,1,0.6360976730356924,1366.8828638219857,None,160,1367.5345826420235,None,102,B,1,2021_May_19_1802,GazeFlow,2020.1.2,59.95400484266423,
11,Block806.xls,B,,,,,,,,,,,,,,,,,,0,10,10,10,,,,,,,,,,,,,,,,,,,,,,,,,,,,,,,,,,,,,,,,,,,,102,B,1,2021_May_19_1802,GazeFlow,2020.1.2,59.95400484266423,
12,Block811.xls,B,11,1,86,86,None,congruent,Right,Right,Left,75,69,6,yellow,2,5,/home/docky/apps/exp/images/76Y.jpeg,/home/docky/apps/exp/images/69Yi.jpeg,0,11,11,11,0,0,0,0,1390.2133167870343,None,1390.2133167870343,None,1,4.680669210036285,1390.2133167870343,None,1394.9243262549862,None,1394.9243262549862,None,1397.4432332380093,None,1397.4432332380093,None,0.915915813005995,1399.2449580020038,None,1399.2449580020038,None,5,1,0.8677632799954154,1400.1481119539822,None,1400.1481119539822,None,1400.1481119539822,None,1401.0324581849854,None,1,0.5852614710456692,1401.0324581849854,None,162,1401.6341025300208,None,102,B,1,2021_May_19_1802,GazeFlow,2020.1.2,59.95400484266423,
12,Block811.xls,B,11,2,83,83,None,congruent,Right,Right,Left,75,69,6,yellow,2,5,/home/docky/apps/exp/images/76Yi.jpeg,/home/docky/apps/exp/images/69Y.jpeg,0,11,11,11,0,1,1,1,1402.635603954026,None,1402.635603954026,None,1,3.3075901260017417,1402.635603954026,None,1405.9765827159863,None,1405.9765827159863,None,1408.4798466439825,None,1408.4798466439825,None,1.0834440450416878,1410.2854223169852,None,1410.2854223169852,None,5,1,1.0182292379904538,1411.353264903999,None,1411.353264903999,None,1411.353264903999,None,1412.3879039239837,None,1,0.5350597869837657,1412.3879039239837,None,164,1412.9392040729872,None,102,B,1,2021_May_19_1802,GazeFlow,2020.1.2,59.95400484266423,
12,Block811.xls,B,11,3,28,28,None,congruent,Right,Right,Left,38,35,3,blue,2,5,/home/docky/apps/exp/images/38Bi.jpeg,/home/docky/apps/exp/images/35B.jpeg,0,11,11,11,0,2,2,2,1413.9409238260123,None,1413.9409238260123,None,1,4.976985839952249,1413.9409238260123,None,1418.9517683390295,None,1418.9517683390295,None,1421.4551038380014,None,1421.4551038380014,None,1.0670819120132364,1423.2583626930136,None,1423.2583626930136,None,5,1,0.8345492979860865,1424.3116568599944,None,1424.3116568599944,None,1424.3116568599944,None,1425.1629113560193,None,1,1.085353659989778,1425.1629113560193,None,166,1426.2646824999829,None,102,B,1,2021_May_19_1802,GazeFlow,2020.1.2,59.95400484266423,
12,Block811.xls,B,11,4,58,58,None,congruent,Left,Left,Right,62,65,3,yellow,2,6,/home/docky/apps/exp/images/38B.jpeg,/home/docky/apps/exp/images/35Bi.jpeg,0,11,11,11,0,3,3,3,1427.267217967019,None,1427.267217967019,None,1,3.590355528984219,1427.267217967019,None,1430.8894508800004,None,1430.8894508800004,None,1433.3947425560327,None,1433.3947425560327,None,1.4678405160084367,1435.198321161035,None,1435.198321161035,None,6,1,0.851189676031936,1436.6522468629992,None,1436.6522468629992,None,1436.6522468629992,None,1437.5199966820073,None,1,0.5351004360127263,1437.5199966820073,None,168,1438.07148495398,None,102,B,1,2021_May_19_1802,GazeFlow,2020.1.2,59.95400484266423,
12,Block811.xls,B,11,5,32,32,None,congruent,Right,Right,Left,66,65,1,blue,2,5,/home/docky/apps/exp/images/66Bi.jpeg,/home/docky/apps/exp/images/35Y.jpeg,0,11,11,11,0,4,4,4,1439.0730229759938,None,1439.0730229759938,None,1,2.3551873930264264,1439.0730229759938,None,1441.460317249992,None,1441.460317249992,None,1443.965152950026,None,1443.965152950026,None,0.9835770520148799,1445.7636784029892,None,1445.7636784029892,None,5,1,0.8180862389854155,1446.738435332023,None,1446.738435332023,None,1446.738435332023,None,1447.57279041101,None,1,0.4682206339784898,1447.57279041101,None,170,1448.057611569995,None,102,B,1,2021_May_19_1802,GazeFlow,2020.1.2,59.95400484266423,
12,Block811.xls,B,11,6,67,67,None,congruent,Left,Left,Right,72,77,5,yellow,2,6,/home/docky/apps/exp/images/72Y.jpeg,/home/docky/apps/exp/images/77Yi.jpeg,0,11,11,11,0,5,5,5,1449.0593768790131,None,1449.0593768790131,None,1,4.024741227040067,1449.0593768790131,None,1453.1159612879856,None,1453.1159612879856,None,1455.625571297016,None,1455.625571297016,None,0.9834546979982406,1457.42452830798,None,1457.42452830798,None,6,1,0.9016492769587785,1458.3943221269874,None,1458.3943221269874,None,1458.3943221269874,None,1459.3125249799923,None,1,0.6851950549753383,1459.3125249799923,None,172,1460.0141747639864,None,102,B,1,2021_May_19_1802,GazeFlow,2020.1.2,59.95400484266423,
12,Block811.xls,B,11,7,120,24,None,incongruent,Left,Right,Left,77,72,5,yellow,2,5,/home/docky/apps/exp/images/77Y.jpeg,/home/docky/apps/exp/images/72Yi.jpeg,0,11,11,11,0,6,6,6,1461.0158021679963,None,1461.0158021679963,None,1,3.791234095057007,1461.0158021679963,None,1464.8390760049806,None,1464.8390760049806,None,1467.344277072989,None,1467.344277072989,None,2.0687129300204106,1469.1464195030276,None,1469.1464195030276,None,5,1,0.8018794679665007,1471.2028066600324,None,1471.2028066600324,None,1471.2028066600324,None,1472.0207861280069,None,1,0.7344229070004076,1472.0207861280069,None,174,1472.77170891501,None,102,B,1,2021_May_19_1802,GazeFlow,2020.1.2,59.95400484266423,
12,Block811.xls,B,11,8,57,57,None,congruent,Left,Left,Right,62,65,3,yellow,2,6,/home/docky/apps/exp/images/38Bi.jpeg,/home/docky/apps/exp/images/35B.jpeg,0,11,11,11,0,7,7,7,1473.7738397879875,None,1473.7738397879875,None,1,4.409533653990366,1473.7738397879875,None,1478.2169455880066,None,1478.2169455880066,None,1480.724238426017,None,1480.724238426017,None,0.9835435370332561,1482.5236391240032,None,1482.5236391240032,None,6,1,0.8347549780155532,1483.4932443340076,None,1483.4932443340076,None,1483.4932443340076,None,1484.3442083130358,None,1,0.5185073239845224,1484.3442083130358,None,176,1484.8791233429802,None,102,B,1,2021_May_19_1802,GazeFlow,2020.1.2,59.95400484266423,
12,Block811.xls,B,,,,,,,,,,,,,,,,,,0,11,11,11,,,,,,,,,,,,,,,,,,,,,,,,,,,,,,,,,,,,,,,,,,,,102,B,1,2021_May_19_1802,GazeFlow,2020.1.2,59.95400484266423,
13,Block808.xls,B,8,1,118,22,None,incongruent,Left,Right,Left,75,69,6,yellow,2,5,/home/docky/apps/exp/images/76Y.jpeg,/home/docky/apps/exp/images/69Yi.jpeg,0,12,12,12,0,0,0,0,1510.7306240780163,None,1510.7306240780163,None,1,4.650011816993356,1510.7306240780163,None,1515.4056540250313,None,1515.4056540250313,None,1517.9269269690267,None,1517.9269269690267,None,1.3504385779961012,1519.7241105290013,None,1519.7241105290013,None,5,1,0.9679446890368126,1521.066241314984,None,1521.066241314984,None,1521.066241314984,None,1522.0512475800351,None,1,0.6341464730212465,1522.0512475800351,None,178,1522.7022544229985,None,102,B,1,2021_May_19_1802,GazeFlow,2020.1.2,59.95400484266423,
13,Block808.xls,B,8,2,7,7,None,congruent,Left,Left,Right,65,66,1,blue,2,6,/home/docky/apps/exp/images/35Yi.jpeg,/home/docky/apps/exp/images/66B.jpeg,0,12,12,12,0,1,1,1,1523.7039675040287,None,1523.7039675040287,None,1,3.3071758950245567,1523.7039675040287,None,1527.0432342030108,None,1527.0432342030108,None,1529.547656602983,None,1529.547656602983,None,0.9669349340256304,1531.3511605029926,None,1531.3511605029926,None,6,1,0.7844531059963629,1532.3046032330021,None,1532.3046032330021,None,1532.3046032330021,None,1533.1058093589963,None,1,0.5853201380232349,1533.1058093589963,None,180,1533.7073223509942,None,102,B,1,2021_May_19_1802,GazeFlow,2020.1.2,59.95400484266423,
13,Block808.xls,B,8,3,112,16,None,incongruent,Right,Left,Right,69,76,7,yellow,2,6,/home/docky/apps/exp/images/69Yi.jpeg,/home/docky/apps/exp/images/76Y.jpeg,0,12,12,12,0,2,2,2,1534.7088057880173,None,1534.7088057880173,None,1,2.405583433981519,1534.7088057880173,None,1537.1479840970132,None,1537.1479840970132,None,1539.651179331995,None,1539.651179331995,None,0.9502807990065776,1541.454539938015,None,1541.454539938015,None,6,1,0.9179879759903997,1542.3910241370322,None,1542.3910241370322,None,1542.3910241370322,None,1543.325400679023,None,1,0.5017626580083743,1543.325400679023,None,182,1543.8436424779939,None,102,B,1,2021_May_19_1802,GazeFlow,2020.1.2,59.95400484266423,
13,Block808.xls,B,8,4,97,1,None,incongruent,Right,Left,Right,16,19,3,blue,2,6,/home/docky/apps/exp/images/16Bi.jpeg,/home/docky/apps/exp/images/19B.jpeg,0,12,12,12,0,3,3,3,1544.8450679070083,None,1544.8450679070083,None,1,2.3886214820086025,1544.8450679070083,None,1547.267553179001,None,1547.267553179001,None,1549.7725604230072,None,1549.7725604230072,None,2.0020993119687773,1551.5689970270032,None,1551.5689970270032,None,6,1,0.8017114229733124,1553.562670821033,None,1553.562670821033,None,1553.562670821033,None,1554.3808019629796,None,1,1.0181060689501464,1554.3808019629796,None,184,1555.4156171969953,None,102,B,1,2021_May_19_1802,GazeFlow,2020.1.2,59.95400484266423,
13,Block808.xls,B,8,5,24,24,None,congruent,Left,Left,Right,80,83,3,blue,2,6,/home/docky/apps/exp/images/80Bi.jpeg,/home/docky/apps/exp/images/83B.jpeg,0,12,12,12,0,4,4,4,1556.4181330460124,None,1556.4181330460124,None,1,2.621997736976482,1556.4181330460124,None,1559.0777688249946,None,1559.0777688249946,None,1561.578660611005,None,1561.578660611005,None,0.8499344500014558,1563.3822590580094,None,1563.3822590580094,None,6,1,0.8343775140237994,1564.2167370630195,None,1564.2167370630195,None,1564.2167370630195,None,1565.0678173939814,None,1,1.168923318036832,1565.0678173939814,None,186,1566.253400104004,None,102,B,1,2021_May_19_1802,GazeFlow,2020.1.2,59.95400484266423,
13,Block808.xls,B,8,6,13,13,None,congruent,Left,Left,Right,38,39,1,blue,2,6,/home/docky/apps/exp/images/38Bi.jpeg,/home/docky/apps/exp/images/39B.jpeg,0,12,12,12,0,5,5,5,1567.2552324209828,None,1567.2552324209828,None,1,1.9212365369894542,1567.2552324209828,None,1569.208724703989,None,1569.208724703989,None,1571.713806882035,None,1571.713806882035,None,1.2169959360035136,1573.5165296830237,None,1573.5165296830237,None,6,1,0.8512054309831001,1574.7203201199882,None,1574.7203201199882,None,1574.7203201199882,None,1575.5880930760177,None,1,1.0189879379468039,1575.5880930760177,None,188,1576.6234523220337,None,102,B,1,2021_May_19_1802,GazeFlow,2020.1.2,59.95400484266423,
13,Block808.xls,B,8,7,8,8,None,congruent,Left,Left,Right,65,66,1,blue,2,6,/home/docky/apps/exp/images/35Y.jpeg,/home/docky/apps/exp/images/66Bi.jpeg,0,12,12,12,0,6,6,6,1577.6256466470077,None,1577.6256466470077,None,1,2.155444690026343,1577.6256466470077,None,1579.8139277650043,None,1579.8139277650043,None,1582.318825158989,None,1582.318825158989,None,1.0500870239920914,1584.1212217059801,None,1584.1212217059801,None,6,1,0.8511316700023599,1585.1573782920022,None,1585.1573782920022,None,1585.1573782920022,None,1586.025252727035,None,1,0.5343140590121038,1586.025252727035,None,190,1586.576275851985,None,102,B,1,2021_May_19_1802,GazeFlow,2020.1.2,59.95400484266423,
13,Block808.xls,B,8,8,31,31,None,congruent,Right,Right,Left,66,65,1,blue,2,5,/home/docky/apps/exp/images/66B.jpeg,/home/docky/apps/exp/images/35Yi.jpeg,0,12,12,12,0,7,7,7,1587.5779607390286,None,1587.5779607390286,None,1,2.2222056449973024,1587.5779607390286,None,1589.8335697469884,None,1589.8335697469884,None,1592.3382285169791,None,1592.3382285169791,None,2.085826325987,1594.1399906119914,None,1594.1399906119914,None,5,1,1.9867255439748988,1596.2121077289921,None,1596.2121077289921,None,1596.2121077289921,None,1598.215579969983,None,1,0.602115124987904,1598.215579969983,None,192,1598.8338595629903,None,102,B,1,2021_May_19_1802,GazeFlow,2020.1.2,59.95400484266423,
13,Block808.xls,B,,,,,,,,,,,,,,,,,,0,12,12,12,,,,,,,,,,,,,,,,,,,,,,,,,,,,,,,,,,,,,,,,,,,,102,B,1,2021_May_19_1802,GazeFlow,2020.1.2,59.95400484266423,
14,Block815.xls,B,15,1,65,65,None,congruent,Left,Left,Right,69,76,7,yellow,2,6,/home/docky/apps/exp/images/69Yi.jpeg,/home/docky/apps/exp/images/76Y.jpeg,0,13,13,13,0,0,0,0,1631.2987752170302,None,1631.2987752170302,None,1,5.198923042975366,1631.2987752170302,None,1636.5246222399874,None,1636.5246222399874,None,1639.0460592919844,None,1639.0460592919844,None,1.0158036750508472,1640.848089770996,None,1640.848089770996,None,6,1,0.9518098669941537,1641.8507395350025,None,1641.8507395350025,None,1641.8507395350025,None,1642.8187069770065,None,1,0.6018991990131326,1642.8187069770065,None,194,1643.4371280120104,None,102,B,1,2021_May_19_1802,GazeFlow,2020.1.2,59.95400484266423,
14,Block815.xls,B,15,2,102,6,None,incongruent,Right,Left,Right,80,83,3,blue,2,6,/home/docky/apps/exp/images/80B.jpeg,/home/docky/apps/exp/images/83Bi.jpeg,0,13,13,13,0,1,1,1,1644.438812843,None,1644.438812843,None,1,3.975369044987019,1644.438812843,None,1648.4471864700317,None,1648.4471864700317,None,1650.9523329639924,None,1650.9523329639924,None,1.4844798499834724,1652.7490770699806,None,1652.7490770699806,None,6,1,1.1012389909592457,1654.2249639490037,None,1654.2249639490037,None,1654.2249639490037,None,1655.3433904810227,None,1,0.7345368179958314,1655.3433904810227,None,196,1656.0946280150092,None,102,B,1,2021_May_19_1802,GazeFlow,2020.1.2,59.95400484266423,
14,Block815.xls,B,15,3,33,33,None,congruent,Right,Right,Left,66,65,1,blue,2,5,/home/docky/apps/exp/images/66Bi.jpeg,/home/docky/apps/exp/images/35Y.jpeg,0,13,13,13,0,2,2,2,1657.0965396109968,None,1657.0965396109968,None,1,5.628511006012559,1657.0965396109968,None,1662.7556745730108,None,1662.7556745730108,None,1665.2658151339856,None,1665.2658151339856,None,3.789202262996696,1667.0644412240363,None,1667.0644412240363,None,5,1,0.9373738139984198,1670.8551783660077,None,1670.8551783660077,None,1670.8551783660077,None,1671.8085153769935,None,1,0.6011006509652361,1671.8085153769935,None,198,1672.4269007050316,None,102,B,1,2021_May_19_1802,GazeFlow,2020.1.2,59.95400484266423,
14,Block815.xls,B,15,4,72,72,None,congruent,Left,Left,Right,79,82,3,yellow,2,6,/home/docky/apps/exp/images/79Yi.jpeg,/home/docky/apps/exp/images/80Y.jpeg,0,13,13,13,0,3,3,3,1673.4287038940238,None,1673.4287038940238,None,1,4.141578751965426,1673.4287038940238,None,1677.6049536580103,None,1677.6049536580103,None,1680.1066041120212,None,1680.1066041120212,None,0.916685702977702,1681.9107428510324,None,1681.9107428510324,None,6,1,0.850981944007799,1682.813714649994,None,1682.813714649994,None,1682.813714649994,None,1683.6812820989871,None,1,0.6184341050102375,1683.6812820989871,None,200,1684.3164662410272,None,102,B,1,2021_May_19_1802,GazeFlow,2020.1.2,59.95400484266423,
14,Block815.xls,B,15,5,100,4,None,incongruent,Right,Left,Right,73,76,3,blue,2,6,/home/docky/apps/exp/images/73B.jpeg,/home/docky/apps/exp/images/76Bi.jpeg,0,13,13,13,0,4,4,4,1685.3176940039848,None,1685.3176940039848,None,1,2.856950312969275,1685.3176940039848,None,1688.208181429014,None,1688.208181429014,None,1690.7110703539802,None,1690.7110703539802,None,1.9522316840011626,1692.5148473490262,None,1692.5148473490262,None,6,1,1.0515486469957978,1694.4529041200294,None,1694.4529041200294,None,1694.4529041200294,None,1695.5208702689852,None,1,0.5848299560020678,1695.5208702689852,None,202,1696.1219550510286,None,102,B,1,2021_May_19_1802,GazeFlow,2020.1.2,59.95400484266423,
14,Block815.xls,B,15,6,45,45,None,congruent,Right,Right,Left,39,38,1,blue,2,5,/home/docky/apps/exp/images/39B.jpeg,/home/docky/apps/exp/images/38Bi.jpeg,0,13,13,13,0,5,5,5,1697.1246680730255,None,1697.1246680730255,None,1,2.688803524011746,1697.1246680730255,None,1699.8473103999859,None,1699.8473103999859,None,1702.3505419419962,None,1702.3505419419962,None,0.983359785983339,1704.153687240032,None,1704.153687240032,None,5,1,0.8344759949832223,1705.1237853459897,None,1705.1237853459897,None,1705.1237853459897,None,1705.974706405017,None,1,0.5012497539864853,1705.974706405017,None,204,1706.4923995040008,None,102,B,1,2021_May_19_1802,GazeFlow,2020.1.2,59.95400484266423,
14,Block815.xls,B,15,7,98,2,None,incongruent,Right,Left,Right,35,38,3,blue,2,6,/home/docky/apps/exp/images/35Bi.jpeg,/home/docky/apps/exp/images/38B.jpeg,0,13,13,13,0,6,6,6,1707.4942901250324,None,1707.4942901250324,None,1,3.8084876550128683,1707.4942901250324,None,1711.3359801709885,None,1711.3359801709885,None,1713.8394121620222,None,1713.8394121620222,None,1.9670345520135015,1715.639378856984,None,1715.639378856984,None,6,1,0.7515372220077552,1717.5978013970307,None,1717.5978013970307,None,1717.5978013970307,None,1718.3659424310317,None,1,0.4672023029997945,1718.3659424310317,None,206,1718.8494538110099,None,102,B,1,2021_May_19_1802,GazeFlow,2020.1.2,59.95400484266423,
14,Block815.xls,B,15,8,59,59,None,congruent,Left,Left,Right,38,39,1,yellow,2,6,/home/docky/apps/exp/images/38Yi.jpeg,/home/docky/apps/exp/images/39Y.jpeg,0,13,13,13,0,7,7,7,1719.8519586530165,None,1719.8519586530165,None,1,2.7221614220179617,1719.8519586530165,None,1722.6067962659872,None,1722.6067962659872,None,1725.110262821021,None,1725.110262821021,None,2.219254039984662,1726.916459035012,None,1726.916459035012,None,6,1,0.8175805989885703,1729.1203409309965,None,1729.1203409309965,None,1729.1203409309965,None,1729.9549118779832,None,1,0.5008500639814883,1729.9549118779832,None,208,1730.472267471021,None,102,B,1,2021_May_19_1802,GazeFlow,2020.1.2,59.95400484266423,
14,Block815.xls,B,,,,,,,,,,,,,,,,,,0,13,13,13,,,,,,,,,,,,,,,,,,,,,,,,,,,,,,,,,,,,,,,,,,,,102,B,1,2021_May_19_1802,GazeFlow,2020.1.2,59.95400484266423,
15,Block807.xls,B,7,1,71,71,None,congruent,Left,Left,Right,79,82,3,yellow,2,6,/home/docky/apps/exp/images/79Y.jpeg,/home/docky/apps/exp/images/80Yi.jpeg,0,14,14,14,0,0,0,0,1760.9666744510178,None,1760.9666744510178,None,1,4.795800826046616,1760.9666744510178,None,1765.7898697030032,None,1765.7898697030032,None,1768.311836872017,None,1768.311836872017,None,1.0829544820007868,1770.0990172949969,None,1770.0990172949969,None,6,1,0.9678660520003177,1771.168780745007,None,1771.168780745007,None,1771.168780745007,None,1772.1530259809806,None,1,0.8023006719886325,1772.1530259809806,None,210,1772.9718934340053,None,102,B,1,2021_May_19_1802,GazeFlow,2020.1.2,59.95400484266423,
15,Block807.xls,B,7,2,44,44,None,congruent,Right,Right,Left,83,80,3,blue,2,5,/home/docky/apps/exp/images/83Bi.jpeg,/home/docky/apps/exp/images/80B.jpeg,0,14,14,14,0,1,1,1,1773.9739401470288,None,1773.9739401470288,None,1,3.156407826987561,1773.9739401470288,None,1777.1639618279878,None,1777.1639618279878,None,1779.6691446509794,None,1779.6691446509794,None,1.0004693470546044,1781.4707508510328,None,1781.4707508510328,None,5,1,0.9014408499933779,1782.4571925950004,None,1782.4571925950004,None,1782.4571925950004,None,1783.3750970180263,None,1,0.635739418969024,1783.3750970180263,None,212,1784.0268080850365,None,102,B,1,2021_May_19_1802,GazeFlow,2020.1.2,59.95400484266423,
15,Block807.xls,B,7,3,48,48,None,congruent,Right,Right,Left,39,38,1,blue,2,5,/home/docky/apps/exp/images/39Bi.jpeg,/home/docky/apps/exp/images/38B.jpeg,0,14,14,14,0,2,2,2,1785.0285005189944,None,1785.0285005189944,None,1,3.1399763979716226,1785.0285005189944,None,1788.2024351159926,None,1788.2024351159926,None,1790.7066025990061,None,1790.7066025990061,None,0.900304576032795,1792.508617067011,None,1792.508617067011,None,5,1,0.9013899939600378,1793.395213094016,None,1793.395213094016,None,1793.395213094016,None,1794.3128763840068,None,1,0.8188395690522157,1794.3128763840068,None,214,1795.1484237849945,None,102,B,1,2021_May_19_1802,GazeFlow,2020.1.2,59.95400484266423,
15,Block807.xls,B,7,4,113,17,None,incongruent,Right,Left,Right,72,77,5,yellow,2,6,/home/docky/apps/exp/images/72Yi.jpeg,/home/docky/apps/exp/images/77Y.jpeg,0,14,14,14,0,3,3,3,1796.149714544008,None,1796.149714544008,None,1,3.7082566340104677,1796.149714544008,None,1799.8917319339816,None,1799.8917319339816,None,1802.3964613819844,None,1802.3964613819844,None,1.099974199954886,1804.198277987016,None,1804.198277987016,None,6,1,0.902250052022282,1805.2849091999815,None,1805.2849091999815,None,1805.2849091999815,None,1806.2026670780033,None,1,0.48501274798763916,1806.2026670780033,None,216,1806.7041326080216,None,102,B,1,2021_May_19_1802,GazeFlow,2020.1.2,59.95400484266423,
15,Block807.xls,B,7,5,69,69,None,congruent,Left,Left,Right,72,77,5,yellow,2,6,/home/docky/apps/exp/images/72Y.jpeg,/home/docky/apps/exp/images/77Yi.jpeg,0,14,14,14,0,4,4,4,1807.7054561669938,None,1807.7054561669938,None,1,2.3057439679978415,1807.7054561669938,None,1810.0444066390046,None,1810.0444066390046,None,1812.5471121480223,None,1812.5471121480223,None,0.9507136160391383,1814.349891040998,None,1814.349891040998,None,6,1,0.8678240540320985,1815.287592407025,None,1815.287592407025,None,1815.287592407025,None,1816.1720568630262,None,1,0.484644633019343,1816.1720568630262,None,218,1816.6729773440165,None,102,B,1,2021_May_19_1802,GazeFlow,2020.1.2,59.95400484266423,
15,Block807.xls,B,7,6,39,39,None,congruent,Right,Right,Left,79,76,3,blue,2,5,/home/docky/apps/exp/images/79B.jpeg,/home/docky/apps/exp/images/76Bi.jpeg,0,14,14,14,0,5,5,5,1817.6752422020072,None,1817.6752422020072,None,1,2.372148472990375,1817.6752422020072,None,1820.0808898230316,None,1820.0808898230316,None,1822.5840386869968,None,1822.5840386869968,None,1.0335294669494033,1824.3872355470085,None,1824.3872355470085,None,5,1,0.833935473987367,1825.4075395099935,None,1825.4075395099935,None,1825.4075395099935,None,1826.2581148840254,None,1,0.602069713990204,1826.2581148840254,None,220,1826.8767709020176,None,102,B,1,2021_May_19_1802,GazeFlow,2020.1.2,59.95400484266423,
15,Block807.xls,B,7,7,50,50,None,congruent,Left,Left,Right,33,35,2,yellow,2,6,/home/docky/apps/exp/images/33Y.jpeg,/home/docky/apps/exp/images/35Yi.jpeg,0,14,14,14,0,6,6,6,1827.8779806949897,None,1827.8779806949897,None,1,3.4239888319862075,1827.8779806949897,None,1831.33621898602,None,1831.33621898602,None,1833.8386638350203,None,1833.8386638350203,None,1.0500745449680835,1835.63817452098,None,1835.63817452098,None,6,1,0.7675239960080944,1836.679240864003,None,1836.679240864003,None,1836.679240864003,None,1837.463520246034,None,1,0.5517882279818878,1837.463520246034,None,222,1838.0316167760175,None,102,B,1,2021_May_19_1802,GazeFlow,2020.1.2,59.95400484266423,
15,Block807.xls,B,7,8,19,19,None,congruent,Left,Left,Right,76,79,3,blue,2,6,/home/docky/apps/exp/images/76B.jpeg,/home/docky/apps/exp/images/79Bi.jpeg,0,14,14,14,0,7,7,7,1839.0332577900263,None,1839.0332577900263,None,1,2.7392081080470234,1839.0332577900263,None,1841.8059392400319,None,1841.8059392400319,None,1844.3110401739832,None,1844.3110401739832,None,0.9668094050139189,1846.1126210659859,None,1846.1126210659859,None,6,1,0.8679099759901874,1847.066138032009,None,1847.066138032009,None,1847.066138032009,None,1847.9508015569882,None,1,0.5006633129669353,1847.9508015569882,None,224,1848.4686486310093,None,102,B,1,2021_May_19_1802,GazeFlow,2020.1.2,59.95400484266423,
15,Block807.xls,B,,,,,,,,,,,,,,,,,,0,14,14,14,,,,,,,,,,,,,,,,,,,,,,,,,,,,,,,,,,,,,,,,,,,,102,B,1,2021_May_19_1802,GazeFlow,2020.1.2,59.95400484266423,
