Nblock,condsFile,grouping,Block,TrialBlock,N,trialN,trialCond,gazeCon,gazedirR,corrBinR,corrBinP,valLBY,valRBY,diff,colorCube,feedbacktext,corrAns,imageL,imageR,SelBlocks.thisRepN,SelBlocks.thisTrialN,SelBlocks.thisN,SelBlocks.thisIndex,Trials.thisRepN,Trials.thisTrialN,Trials.thisN,Trials.thisIndex,waitCube.started,waitCube.stopped,text_3.started,text_3.stopped,StartKeyPress.keys,StartKeyPress.rt,StartKeyPress.started,StartKeyPress.stopped,StimL.started,StimL.stopped,StimR.started,StimR.stopped,imageStim2L.started,imageStim2L.stopped,imageStim2R.started,imageStim2R.stopped,RTkeyRelease,imageStim3L.started,imageStim3L.stopped,imageStim3R.started,imageStim3R.stopped,dropResp.keys,dropResp.corr,dropResp.rt,dropResp.started,dropResp.stopped,imageStim5L.started,imageStim5L.stopped,imageStim5R.started,imageStim5R.stopped,text_2.started,text_2.stopped,ReturnSpace.keys,ReturnSpace.rt,ReturnSpace.started,ReturnSpace.stopped,totalpoints,textFeedback.started,textFeedback.stopped,participant,group,session,date,expName,psychopyVersion,frameRate,
1,Block502.xls,A,2,1,93,33,22,incongruent,Left,Right,Left,38,35,3,blue,2,5,/home/docky/apps/exp/images/38B.jpeg,/home/docky/apps/exp/images/35Bi.jpeg,0,0,0,0,0,0,0,0,52.15443372899972,None,52.15443372899972,None,1,4.648586479999722,52.15443372899972,None,56.83607712799949,None,56.83607712799949,None,59.35317645299983,None,59.35317645299983,None,0.9333099539999239,61.154846374000044,None,61.154846374000044,None,5,1,0.8178834560003452,62.071404254999834,None,62.071404254999834,None,62.071404254999834,None,62.90558645999954,None,1,0.8359166259997437,62.90558645999954,None,2,63.758078645999376,None,103,A,1,2021_May_20_0924,GazeFlow,2020.1.2,59.880837253531894,
1,Block502.xls,A,2,2,42,42,12,congruent,Right,Right,Left,83,80,3,blue,2,5,/home/docky/apps/exp/images/83Bi.jpeg,/home/docky/apps/exp/images/80B.jpeg,0,0,0,0,0,1,1,1,64.75943647099939,None,64.75943647099939,None,1,4.827231176999703,64.75943647099939,None,69.62022892299956,None,69.62022892299956,None,72.12315449000016,None,72.12315449000016,None,0.849565628000164,73.92640879499959,None,73.92640879499959,None,5,1,0.8847228739996353,74.76262055699954,None,74.76262055699954,None,74.76262055699954,None,75.66392891399937,None,1,0.7189396899993881,75.66392891399937,None,4,76.39892392699949,None,103,A,1,2021_May_20_0924,GazeFlow,2020.1.2,59.880837253531894,
1,Block502.xls,A,2,3,9,9,11,congruent,Left,Left,Right,38,39,1,blue,2,6,/home/docky/apps/exp/images/38Bi.jpeg,/home/docky/apps/exp/images/39B.jpeg,0,0,0,0,0,2,2,2,77.40080740399935,None,77.40080740399935,None,1,5.060343060000378,77.40080740399935,None,82.49765534000016,None,82.49765534000016,None,84.99779659399974,None,84.99779659399974,None,0.8664830550005718,86.79654980599935,None,86.79654980599935,None,6,1,0.867686059999869,87.6546242509994,None,87.6546242509994,None,87.6546242509994,None,88.53895672399995,None,1,0.7351383840004928,88.53895672399995,None,6,89.29080659899955,None,103,A,1,2021_May_20_0924,GazeFlow,2020.1.2,59.880837253531894,
1,Block502.xls,A,2,4,23,23,11,congruent,Left,Left,Right,38,39,1,yellow,2,6,/home/docky/apps/exp/images/38Yi.jpeg,/home/docky/apps/exp/images/39Y.jpeg,0,0,0,0,0,3,3,3,90.2926054949994,None,90.2926054949994,None,1,3.440834160999657,90.2926054949994,None,93.767072525,None,93.767072525,None,96.27162109099936,None,96.27162109099936,None,0.9831772400002592,98.07481935499982,None,98.07481935499982,None,6,1,0.8010893489999944,99.04321499399975,None,99.04321499399975,None,99.04321499399975,None,99.86084450499948,None,1,0.618371290000141,99.86084450499948,None,8,100.49581134999971,None,103,A,1,2021_May_20_0924,GazeFlow,2020.1.2,59.880837253531894,
1,Block502.xls,A,2,5,57,57,12,congruent,Right,Right,Left,77,72,5,yellow,2,5,/home/docky/apps/exp/images/77Y.jpeg,/home/docky/apps/exp/images/72Yi.jpeg,0,0,0,0,0,4,4,4,101.49753043999954,None,101.49753043999954,None,1,3.608145647999663,101.49753043999954,None,105.13920293999945,None,105.13920293999945,None,107.6420587879993,None,107.6420587879993,None,3.2048712949999754,109.44600797400017,None,109.44600797400017,None,5,1,0.7504106609994778,112.65366309599995,None,112.65366309599995,None,112.65366309599995,None,113.42052235899973,None,1,0.618060594999406,113.42052235899973,None,10,114.05515811799978,None,103,A,1,2021_May_20_0924,GazeFlow,2020.1.2,59.880837253531894,
1,Block502.xls,A,2,6,118,58,22,incongruent,Left,Right,Left,80,79,1,yellow,2,5,/home/docky/apps/exp/images/80Yi.jpeg,/home/docky/apps/exp/images/79Y.jpeg,0,0,0,0,0,5,5,5,115.05750464099947,None,115.05750464099947,None,1,3.8077209679995576,115.05750464099947,None,118.89906918499946,None,118.89906918499946,None,121.40226002399959,None,121.40226002399959,None,1.1169014629995218,123.20743511099954,None,123.20743511099954,None,5,1,0.767693550000331,124.30905566000001,None,124.30905566000001,None,124.30905566000001,None,125.09316838399991,None,1,0.618598115000168,125.09316838399991,None,12,125.72831966800004,None,103,A,1,2021_May_20_0924,GazeFlow,2020.1.2,59.880837253531894,
1,Block502.xls,A,2,7,101,41,22,incongruent,Left,Right,Left,83,80,3,blue,2,5,/home/docky/apps/exp/images/83Bi.jpeg,/home/docky/apps/exp/images/80B.jpeg,0,0,0,0,0,6,6,6,126.72991941700002,None,126.72991941700002,None,1,3.073593074999735,126.72991941700002,None,129.83973940399937,None,129.83973940399937,None,132.34166165399984,None,132.34166165399984,None,1.300787670000318,134.1436352159999,None,134.1436352159999,None,5,1,0.8010704469998018,135.4304928900001,None,135.4304928900001,None,135.4304928900001,None,136.24828011199952,None,1,0.5681647339997653,136.24828011199952,None,14,136.8330600419995,None,103,A,1,2021_May_20_0924,GazeFlow,2020.1.2,59.880837253531894,
1,Block502.xls,A,2,8,69,9,21,incongruent,Right,Left,Right,73,76,3,blue,2,6,/home/docky/apps/exp/images/73B.jpeg,/home/docky/apps/exp/images/76Bi.jpeg,0,0,0,0,0,7,7,7,137.83432079999966,None,137.83432079999966,None,1,3.2574764199998754,137.83432079999966,None,141.1262962840001,None,141.1262962840001,None,143.6288845549998,None,143.6288845549998,None,0.8499705590002122,145.43172006499935,None,145.43172006499935,None,6,1,0.7508713509996596,146.26821409199965,None,146.26821409199965,None,146.26821409199965,None,147.03604772499966,None,1,0.6345915440006138,147.03604772499966,None,16,147.6877883899997,None,103,A,1,2021_May_20_0924,GazeFlow,2020.1.2,59.880837253531894,
1,Block502.xls,A,,,,,,,,,,,,,,,,,,0,0,0,0,,,,,,,,,,,,,,,,,,,,,,,,,,,,,,,,,,,,,,,,,,,,103,A,1,2021_May_20_0924,GazeFlow,2020.1.2,59.880837253531894,
2,Block506.xls,A,6,1,120,60,22,incongruent,Left,Right,Left,80,79,1,yellow,2,5,/home/docky/apps/exp/images/80Yi.jpeg,/home/docky/apps/exp/images/79Y.jpeg,0,1,1,1,0,0,0,0,198.28674100399985,None,198.28674100399985,None,1,4.312128737000421,198.28674100399985,None,202.62323913899945,None,202.62323913899945,None,205.1498777809993,None,205.1498777809993,None,0.9330580269997881,206.95199888199932,None,206.95199888199932,None,6,0,0.8174224730000788,207.87153548100014,None,207.87153548100014,None,207.87153548100014,None,208.7056896969998,None,1,0.46789135100061685,208.7056896969998,None,14,209.18993698299982,None,103,A,1,2021_May_20_0924,GazeFlow,2020.1.2,59.880837253531894,
2,Block506.xls,A,6,2,51,51,12,congruent,Right,Right,Left,66,65,1,yellow,2,5,/home/docky/apps/exp/images/66Y.jpeg,/home/docky/apps/exp/images/35Bi.jpeg,0,1,1,1,0,1,1,1,210.19182614300007,None,210.19182614300007,None,1,4.092367125000237,210.19182614300007,None,214.31753379600013,None,214.31753379600013,None,216.82236918699982,None,216.82236918699982,None,0.9832809489998908,218.62407170000006,None,218.62407170000006,None,5,1,0.8344831470003555,219.594042058,None,219.594042058,None,219.594042058,None,220.44524055300008,None,1,0.4506930679999641,220.44524055300008,None,16,220.91316506600015,None,103,A,1,2021_May_20_0924,GazeFlow,2020.1.2,59.880837253531894,
2,Block506.xls,A,6,3,119,59,22,incongruent,Left,Right,Left,80,79,1,yellow,2,5,/home/docky/apps/exp/images/80Y.jpeg,/home/docky/apps/exp/images/79Yi.jpeg,0,1,1,1,0,2,2,2,221.91460796799947,None,221.91460796799947,None,1,2.9564675990004616,221.91460796799947,None,224.904543484,None,224.904543484,None,227.40741616200012,None,227.40741616200012,None,1.000217817999328,229.2116424400001,None,229.2116424400001,None,5,1,0.7846197549997669,230.19806330099982,None,230.19806330099982,None,230.19806330099982,None,230.9987078059994,None,1,1.4698355139998966,230.9987078059994,None,18,232.48502577399995,None,103,A,1,2021_May_20_0924,GazeFlow,2020.1.2,59.880837253531894,
2,Block506.xls,A,6,4,28,28,11,congruent,Left,Left,Right,72,77,5,yellow,2,6,/home/docky/apps/exp/images/72Y.jpeg,/home/docky/apps/exp/images/77Yi.jpeg,0,1,1,1,0,3,3,3,233.48714152699995,None,233.48714152699995,None,1,4.125455755000075,233.48714152699995,None,237.64634475299954,None,237.64634475299954,None,240.15123801199934,None,240.15123801199934,None,0.7995182190006744,241.95303900599993,None,241.95303900599993,None,6,1,0.9349367350005195,242.73878225999943,None,242.73878225999943,None,242.73878225999943,None,243.69019097299952,None,1,1.0530926279998312,243.69019097299952,None,20,244.75950395099972,None,103,A,1,2021_May_20_0924,GazeFlow,2020.1.2,59.880837253531894,
2,Block506.xls,A,6,5,85,25,21,incongruent,Right,Left,Right,69,75,6,yellow,2,6,/home/docky/apps/exp/images/69Y.jpeg,/home/docky/apps/exp/images/76Yi.jpeg,0,1,1,1,0,4,4,4,245.7610937469999,None,245.7610937469999,None,1,4.4096711169995615,245.7610937469999,None,250.20427245700012,None,250.20427245700012,None,252.70957378899948,None,252.70957378899948,None,1.1166688579996844,254.51265995799986,None,254.51265995799986,None,6,1,0.8344657370007553,255.61398136699972,None,255.61398136699972,None,255.61398136699972,None,256.46529316599936,None,1,0.6176733909996983,256.46529316599936,None,22,257.0999685030001,None,103,A,1,2021_May_20_0924,GazeFlow,2020.1.2,59.880837253531894,
2,Block506.xls,A,6,6,71,11,21,incongruent,Right,Left,Right,76,79,3,blue,2,6,/home/docky/apps/exp/images/76B.jpeg,/home/docky/apps/exp/images/79Bi.jpeg,0,1,1,1,0,5,5,5,258.10168625299957,None,258.10168625299957,None,1,4.1425105950002035,258.10168625299957,None,262.2773871319996,None,262.2773871319996,None,264.7836316739995,None,264.7836316739995,None,1.1505839930005095,266.585519663,None,266.585519663,None,6,1,0.8842607990000033,267.72102581799936,None,267.72102581799936,None,267.72102581799936,None,268.62207819499963,None,1,0.5014972660001149,268.62207819499963,None,24,269.1400721659993,None,103,A,1,2021_May_20_0924,GazeFlow,2020.1.2,59.880837253531894,
2,Block506.xls,A,6,7,56,56,12,congruent,Right,Right,Left,76,69,7,yellow,2,5,/home/docky/apps/exp/images/76Yi.jpeg,/home/docky/apps/exp/images/69Y.jpeg,0,1,1,1,0,6,6,6,270.14186815499943,None,270.14186815499943,None,1,3.52465191400006,270.14186815499943,None,273.69940834299996,None,273.69940834299996,None,276.2042104439997,None,276.2042104439997,None,1.016775564999989,278.00642625899945,None,278.00642625899945,None,5,1,0.8343169740001031,279.0095585680001,None,279.0095585680001,None,279.0095585680001,None,279.8603263489995,None,1,0.6691927359997862,279.8603263489995,None,26,280.5456002689998,None,103,A,1,2021_May_20_0924,GazeFlow,2020.1.2,59.880837253531894,
2,Block506.xls,A,6,8,33,33,12,congruent,Right,Right,Left,38,35,3,blue,2,5,/home/docky/apps/exp/images/38B.jpeg,/home/docky/apps/exp/images/35Bi.jpeg,0,1,1,1,0,7,7,7,281.54728232099933,None,281.54728232099933,None,1,2.872675280000294,281.54728232099933,None,284.4537798229994,None,284.4537798229994,None,286.95847449899975,None,286.95847449899975,None,1.0169867869999507,288.75535894399945,None,288.75535894399945,None,6,0,0.8344696989997828,289.7636892669998,None,289.7636892669998,None,289.7636892669998,None,290.6149095559995,None,1,0.4177293220000138,290.6149095559995,None,24,291.04930897099985,None,103,A,1,2021_May_20_0924,GazeFlow,2020.1.2,59.880837253531894,
2,Block506.xls,A,,,,,,,,,,,,,,,,,,0,1,1,1,,,,,,,,,,,,,,,,,,,,,,,,,,,,,,,,,,,,,,,,,,,,103,A,1,2021_May_20_0924,GazeFlow,2020.1.2,59.880837253531894,
3,Block505.xls,A,5,1,1,1,11,congruent,Left,Left,Right,16,19,3,blue,2,6,/home/docky/apps/exp/images/16Bi.jpeg,/home/docky/apps/exp/images/19B.jpeg,0,2,2,2,0,0,0,0,317.15139957999963,None,317.15139957999963,None,1,4.062489279000147,317.15139957999963,None,321.24454778200015,None,321.24454778200015,None,323.7635921909996,None,323.7635921909996,None,1.633756588000324,325.5682213270002,None,325.5682213270002,None,5,0,0.2000712819999535,327.1861274889998,None,327.1861274889998,None,327.1861274889998,None,327.4027777609999,None,1,0.6018953900002089,327.4027777609999,None,22,328.02109649999966,None,103,A,1,2021_May_20_0924,GazeFlow,2020.1.2,59.880837253531894,
3,Block505.xls,A,5,2,10,10,11,congruent,Left,Left,Right,73,76,3,blue,2,6,/home/docky/apps/exp/images/73B.jpeg,/home/docky/apps/exp/images/76Bi.jpeg,0,2,2,2,0,1,1,1,329.02267914000004,None,329.02267914000004,None,1,4.00816724500055,329.02267914000004,None,333.06357577200015,None,333.06357577200015,None,335.5680292249999,None,335.5680292249999,None,3.0047449419998884,337.3707362559999,None,337.3707362559999,None,6,1,0.06834091699965938,340.3771289509996,None,340.3771289509996,None,340.3771289509996,None,340.4619512519994,None,1,0.8345555910000257,340.4619512519994,None,24,341.3133545519995,None,103,A,1,2021_May_20_0924,GazeFlow,2020.1.2,59.880837253531894,
3,Block505.xls,A,5,3,95,35,22,incongruent,Left,Right,Left,66,65,1,blue,2,5,/home/docky/apps/exp/images/66B.jpeg,/home/docky/apps/exp/images/35Yi.jpeg,0,2,2,2,0,2,2,2,342.31518269800017,None,342.31518269800017,None,1,4.108549668999331,342.31518269800017,None,346.4574839779998,None,346.4574839779998,None,348.96207506500014,None,348.96207506500014,None,1.0503105210000285,350.7581403719996,None,350.7581403719996,None,6,0,0.8341332589998274,351.8008580229998,None,351.8008580229998,None,351.8008580229998,None,352.65191099099957,None,1,0.3674680789999911,352.65191099099957,None,22,353.0357689699995,None,103,A,1,2021_May_20_0924,GazeFlow,2020.1.2,59.880837253531894,
3,Block505.xls,A,5,4,46,46,12,congruent,Right,Right,Left,35,33,2,yellow,2,5,/home/docky/apps/exp/images/35Yi.jpeg,/home/docky/apps/exp/images/33Y.jpeg,0,2,2,2,0,3,3,3,354.03791778199957,None,354.03791778199957,None,1,3.240629309999349,354.03791778199957,None,357.3120908559995,None,357.3120908559995,None,359.81535681700007,None,359.81535681700007,None,1.2506580850003957,361.6188236959997,None,361.6188236959997,None,5,1,0.9846227670004737,362.8556617489994,None,362.8556617489994,None,362.8556617489994,None,363.8568118839994,None,1,0.7014539700003297,363.8568118839994,None,24,364.5749279369993,None,103,A,1,2021_May_20_0924,GazeFlow,2020.1.2,59.880837253531894,
3,Block505.xls,A,5,5,78,18,21,incongruent,Right,Left,Right,65,66,1,yellow,2,6,/home/docky/apps/exp/images/35Bi.jpeg,/home/docky/apps/exp/images/66Y.jpeg,0,2,2,2,0,4,4,4,365.57705129699934,None,365.57705129699934,None,1,3.9415393369999947,365.57705129699934,None,369.555612397,None,369.555612397,None,372.05729537800016,None,372.05729537800016,None,1.017049641000085,373.857500049,None,373.857500049,None,6,1,0.9516986860007819,374.8622663489996,None,374.8622663489996,None,374.8622663489996,None,375.8302080630001,None,1,0.40144164400044247,375.8302080630001,None,26,376.2477322149998,None,103,A,1,2021_May_20_0924,GazeFlow,2020.1.2,59.880837253531894,
3,Block505.xls,A,5,6,43,43,12,congruent,Right,Right,Left,83,80,3,blue,2,5,/home/docky/apps/exp/images/83B.jpeg,/home/docky/apps/exp/images/80Bi.jpeg,0,2,2,2,0,5,5,5,377.2495993399998,None,377.2495993399998,None,1,3.4908134759998575,377.2495993399998,None,380.7739904629998,None,380.7739904629998,None,383.27911124099955,None,383.27911124099955,None,0.7829869150000377,385.0808202239996,None,385.0808202239996,None,5,1,0.9013250340003651,385.85030454299977,None,385.85030454299977,None,385.85030454299977,None,386.76826414599964,None,1,0.6510801970007378,386.76826414599964,None,28,387.4361318729998,None,103,A,1,2021_May_20_0924,GazeFlow,2020.1.2,59.880837253531894,
3,Block505.xls,A,5,7,44,44,12,congruent,Right,Right,Left,39,38,1,blue,2,5,/home/docky/apps/exp/images/39Bi.jpeg,/home/docky/apps/exp/images/38B.jpeg,0,2,2,2,0,6,6,6,388.43808311799967,None,388.43808311799967,None,1,3.540647885999533,388.43808311799967,None,392.01271403899955,None,392.01271403899955,None,394.51774224200017,None,394.51774224200017,None,1.0838107599993236,396.31932480199976,None,396.31932480199976,None,5,1,3.3062631550001242,397.3892877779999,None,397.3892877779999,None,397.3892877779999,None,400.7117213579995,None,1,0.20166263500050263,400.7117213579995,None,30,400.92935059699994,None,103,A,1,2021_May_20_0924,GazeFlow,2020.1.2,59.880837253531894,
3,Block505.xls,A,5,8,116,56,22,incongruent,Left,Right,Left,77,72,5,yellow,2,5,/home/docky/apps/exp/images/77Y.jpeg,/home/docky/apps/exp/images/72Y.jpeg,0,2,2,2,0,7,7,7,401.9312601470001,None,401.9312601470001,None,1,3.357373144000121,401.9312601470001,None,405.32181596400005,None,405.32181596400005,None,407.82508319499993,None,407.82508319499993,None,1.1505888840001717,409.6304340959996,None,409.6304340959996,None,5,1,0.8676639549994434,410.765415717,None,410.765415717,None,410.765415717,None,411.64989846499975,None,1,0.7185112729994216,411.64989846499975,None,32,412.38496447599937,None,103,A,1,2021_May_20_0924,GazeFlow,2020.1.2,59.880837253531894,
3,Block505.xls,A,,,,,,,,,,,,,,,,,,0,2,2,2,,,,,,,,,,,,,,,,,,,,,,,,,,,,,,,,,,,,,,,,,,,,103,A,1,2021_May_20_0924,GazeFlow,2020.1.2,59.880837253531894,
4,Block509.xls,A,9,1,34,34,12,congruent,Right,Right,Left,38,35,3,blue,2,5,/home/docky/apps/exp/images/38Bi.jpeg,/home/docky/apps/exp/images/35B.jpeg,0,3,3,3,0,0,0,0,437.7684876349995,None,437.7684876349995,None,1,4.032318366000254,437.7684876349995,None,441.82410677499956,None,441.82410677499956,None,444.3513102119996,None,444.3513102119996,None,0.8658344280001984,446.1514245769995,None,446.1514245769995,None,5,1,0.834590493000178,447.00219122699946,None,447.00219122699946,None,447.00219122699946,None,447.8535645359998,None,1,0.735940560999552,447.8535645359998,None,34,448.6053007969995,None,103,A,1,2021_May_20_0924,GazeFlow,2020.1.2,59.880837253531894,
4,Block509.xls,A,9,2,7,7,11,congruent,Left,Left,Right,65,66,1,blue,2,6,/home/docky/apps/exp/images/35Yi.jpeg,/home/docky/apps/exp/images/66B.jpeg,0,3,3,3,0,1,1,1,449.60691966099967,None,449.60691966099967,None,1,3.1070801220002977,449.60691966099967,None,452.7473378119994,None,452.7473378119994,None,455.2505629110001,None,455.2505629110001,None,1.0669816190002166,457.0537436129998,None,457.0537436129998,None,6,1,0.8342079119993286,458.10741547199996,None,458.10741547199996,None,458.10741547199996,None,458.9583892999999,None,1,0.5012642020001294,458.9583892999999,None,36,459.4764136369995,None,103,A,1,2021_May_20_0924,GazeFlow,2020.1.2,59.880837253531894,
4,Block509.xls,A,9,3,74,14,21,incongruent,Right,Left,Right,80,83,3,blue,2,6,/home/docky/apps/exp/images/80B.jpeg,/home/docky/apps/exp/images/83Bi.jpeg,0,3,3,3,0,2,2,2,460.47795029699955,None,460.47795029699955,None,1,2.856333689999701,460.47795029699955,None,463.3678316129999,None,463.3678316129999,None,465.8711041059996,None,465.8711041059996,None,1.2671406550007305,467.67032622499937,None,467.67032622499937,None,6,1,0.834092471999611,468.9284143499999,None,468.9284143499999,None,468.9284143499999,None,469.7793067859993,None,1,0.45083531299951574,469.7793067859993,None,38,470.24754242499966,None,103,A,1,2021_May_20_0924,GazeFlow,2020.1.2,59.880837253531894,
4,Block509.xls,A,9,4,19,19,11,congruent,Left,Left,Right,65,66,1,yellow,2,6,/home/docky/apps/exp/images/35Bi.jpeg,/home/docky/apps/exp/images/66Y.jpeg,0,3,3,3,0,3,3,3,471.2488455089997,None,471.2488455089997,None,1,2.5396974059995046,471.2488455089997,None,473.8217268219996,None,473.8217268219996,None,476.3248523579996,None,476.3248523579996,None,1.4180390580004314,478.128529308,None,478.128529308,None,5,0,0.8176182609995521,479.53226171499955,None,479.53226171499955,None,479.53226171499955,None,480.36649875999956,None,1,0.6356198720004613,480.36649875999956,None,36,481.01829120599996,None,103,A,1,2021_May_20_0924,GazeFlow,2020.1.2,59.880837253531894,
4,Block509.xls,A,9,5,60,60,12,congruent,Right,Right,Left,80,79,1,yellow,2,5,/home/docky/apps/exp/images/80Yi.jpeg,/home/docky/apps/exp/images/79Y.jpeg,0,3,3,3,0,4,4,4,482.0197866190001,None,482.0197866190001,None,1,3.090624315000241,482.0197866190001,None,485.14393099300014,None,485.14393099300014,None,487.64858110299974,None,487.64858110299974,None,1.2672027969992996,489.4519611019996,None,489.4519611019996,None,6,0,0.8010893889995714,490.70390003600005,None,490.70390003600005,None,490.70390003600005,None,491.52189963099954,None,1,0.5007062199993015,491.52189963099954,None,34,492.0390594929995,None,103,A,1,2021_May_20_0924,GazeFlow,2020.1.2,59.880837253531894,
4,Block509.xls,A,9,6,83,23,21,incongruent,Right,Left,Right,38,39,1,yellow,2,6,/home/docky/apps/exp/images/38Yi.jpeg,/home/docky/apps/exp/images/39Y.jpeg,0,3,3,3,0,5,5,5,493.04129247999936,None,493.04129247999936,None,1,3.624623093000082,493.04129247999936,None,496.6993893869994,None,496.6993893869994,None,499.20419485799994,None,499.20419485799994,None,1.0166869799995766,501.0056025899994,None,501.0056025899994,None,6,1,0.9015816780001842,502.00926729,None,502.00926729,None,502.00926729,None,502.92707316199994,None,1,0.5012681480002357,502.92707316199994,None,36,503.4447578649997,None,103,A,1,2021_May_20_0924,GazeFlow,2020.1.2,59.880837253531894,
4,Block509.xls,A,9,7,4,4,11,congruent,Left,Left,Right,35,38,3,blue,2,6,/home/docky/apps/exp/images/35B.jpeg,/home/docky/apps/exp/images/38Bi.jpeg,0,3,3,3,0,6,6,6,504.4466607839995,None,504.4466607839995,None,1,3.424055135999879,504.4466607839995,None,507.90402297499986,None,507.90402297499986,None,510.4071621059993,None,510.4071621059993,None,1.0166154890002872,512.2108791299997,None,512.2108791299997,None,6,1,0.8682416969995757,513.2139843469995,None,513.2139843469995,None,513.2139843469995,None,514.0985708549997,None,1,0.5184199719997196,514.0985708549997,None,38,514.6334824219994,None,103,A,1,2021_May_20_0924,GazeFlow,2020.1.2,59.880837253531894,
4,Block509.xls,A,9,8,24,24,11,congruent,Left,Left,Right,38,39,1,yellow,2,6,/home/docky/apps/exp/images/38Y.jpeg,/home/docky/apps/exp/images/39Yi.jpeg,0,3,3,3,0,7,7,7,515.6352459219997,None,515.6352459219997,None,1,3.708076044000336,515.6352459219997,None,519.3767462609994,None,519.3767462609994,None,521.8798692979999,None,521.8798692979999,None,2.135821937000401,523.6771174549995,None,523.6771174549995,None,5,0,0.8515791200006788,525.8053160310001,None,525.8053160310001,None,525.8053160310001,None,526.6730527629998,None,1,0.6515751509996335,526.6730527629998,None,36,527.3407830589995,None,103,A,1,2021_May_20_0924,GazeFlow,2020.1.2,59.880837253531894,
4,Block509.xls,A,,,,,,,,,,,,,,,,,,0,3,3,3,,,,,,,,,,,,,,,,,,,,,,,,,,,,,,,,,,,,,,,,,,,,103,A,1,2021_May_20_0924,GazeFlow,2020.1.2,59.880837253531894,
5,Block504.xls,A,4,1,11,11,11,congruent,Left,Left,Right,73,76,3,blue,2,6,/home/docky/apps/exp/images/73Bi.jpeg,/home/docky/apps/exp/images/76B.jpeg,0,4,4,4,0,0,0,0,549.7524309379996,None,549.7524309379996,None,1,5.118292986999222,549.7524309379996,None,554.8916824899998,None,554.8916824899998,None,557.4156410529995,None,557.4156410529995,None,1.3668941480000285,559.2210155960001,None,559.2210155960001,None,6,1,0.8510629000002154,560.5729783449997,None,560.5729783449997,None,560.5729783449997,None,561.4405883029995,None,1,0.46771201100000326,561.4405883029995,None,38,561.9249503029996,None,103,A,1,2021_May_20_0924,GazeFlow,2020.1.2,59.880837253531894,
5,Block504.xls,A,4,2,87,27,21,incongruent,Right,Left,Right,72,77,5,yellow,2,6,/home/docky/apps/exp/images/72Y.jpeg,/home/docky/apps/exp/images/77Yi.jpeg,0,4,4,4,0,1,1,1,562.9269385439993,None,562.9269385439993,None,1,2.9731527379999534,562.9269385439993,None,565.9335047499999,None,565.9335047499999,None,568.4370329419999,None,568.4370329419999,None,1.1507675030006794,570.2403261539994,None,570.2403261539994,None,6,1,0.8510256780000418,571.3773826199995,None,571.3773826199995,None,571.3773826199995,None,572.2452389669998,None,1,0.46837325300020893,572.2452389669998,None,40,572.7296685949996,None,103,A,1,2021_May_20_0924,GazeFlow,2020.1.2,59.880837253531894,
5,Block504.xls,A,4,3,48,48,12,congruent,Right,Right,Left,39,38,1,yellow,2,5,/home/docky/apps/exp/images/39Yi.jpeg,/home/docky/apps/exp/images/38Y.jpeg,0,4,4,4,0,2,2,2,573.7312352749996,None,573.7312352749996,None,1,2.8395322849992226,573.7312352749996,None,576.6044543339995,None,576.6044543339995,None,579.1071279309999,None,579.1071279309999,None,1.0837402999995902,580.9108090270001,None,580.9108090270001,None,5,1,0.8345133700004226,581.9811897049995,None,581.9811897049995,None,581.9811897049995,None,582.8325430269997,None,1,0.5013222210000094,582.8325430269997,None,42,583.3503762829996,None,103,A,1,2021_May_20_0924,GazeFlow,2020.1.2,59.880837253531894,
5,Block504.xls,A,4,4,38,38,12,congruent,Right,Right,Left,79,73,6,blue,2,5,/home/docky/apps/exp/images/79B.jpeg,/home/docky/apps/exp/images/73Bi.jpeg,0,4,4,4,0,3,3,3,584.3518905149995,None,584.3518905149995,None,1,2.7224026129997583,584.3518905149995,None,587.1084916069995,None,587.1084916069995,None,589.6109023459994,None,589.6109023459994,None,0.9836744909998743,591.4140165179997,None,591.4140165179997,None,5,1,0.8008713970002646,592.38473626,None,592.38473626,None,592.38473626,None,593.2023432839997,None,1,0.568695433999892,593.2023432839997,None,44,593.7871475969996,None,103,A,1,2021_May_20_0924,GazeFlow,2020.1.2,59.880837253531894,
5,Block504.xls,A,4,5,2,2,11,congruent,Left,Left,Right,16,19,3,blue,2,6,/home/docky/apps/exp/images/16B.jpeg,/home/docky/apps/exp/images/19Bi.jpeg,0,4,4,4,0,4,4,4,594.7889554659996,None,594.7889554659996,None,1,2.939682272999562,594.7889554659996,None,597.7624326559999,None,597.7624326559999,None,600.26507915,None,600.26507915,None,1.3846315410000898,602.0684254070002,None,602.0684254070002,None,6,1,0.8017693060000965,603.4393203009995,None,603.4393203009995,None,603.4393203009995,None,604.2571860849994,None,1,0.5182758440005273,604.2571860849994,None,46,604.7919245349995,None,103,A,1,2021_May_20_0924,GazeFlow,2020.1.2,59.880837253531894,
5,Block504.xls,A,4,6,73,13,21,incongruent,Right,Left,Right,80,83,3,blue,2,6,/home/docky/apps/exp/images/80Bi.jpeg,/home/docky/apps/exp/images/83B.jpeg,0,4,4,4,0,5,5,5,605.7935473819998,None,605.7935473819998,None,1,2.95691448999969,605.7935473819998,None,608.7836219840001,None,608.7836219840001,None,611.2867464109995,None,611.2867464109995,None,0.9498681630002466,613.0899462919997,None,613.0899462919997,None,6,1,0.7846194600006129,614.0267960329993,None,614.0267960329993,None,614.0267960329993,None,614.8275931179996,None,1,0.5179611889998341,614.8275931179996,None,48,615.3623344379994,None,103,A,1,2021_May_20_0924,GazeFlow,2020.1.2,59.880837253531894,
5,Block504.xls,A,4,7,63,3,21,incongruent,Right,Left,Right,35,38,3,blue,2,6,/home/docky/apps/exp/images/35B.jpeg,/home/docky/apps/exp/images/38Bi.jpeg,0,4,4,4,0,6,6,6,616.3643005710001,None,616.3643005710001,None,1,2.4890353650007455,616.3643005710001,None,618.8865506709999,None,618.8865506709999,None,621.3890088709995,None,621.3890088709995,None,1.0504898780000076,623.1929045609995,None,623.1929045609995,None,6,1,0.8178102000001672,624.229947668,None,624.229947668,None,624.229947668,None,625.0643304300002,None,1,0.484923039000023,625.0643304300002,None,50,625.5656406170001,None,103,A,1,2021_May_20_0924,GazeFlow,2020.1.2,59.880837253531894,
5,Block504.xls,A,4,8,86,26,21,incongruent,Right,Left,Right,72,77,5,yellow,2,6,/home/docky/apps/exp/images/72Yi.jpeg,/home/docky/apps/exp/images/77Y.jpeg,0,4,4,4,0,7,7,7,626.5672207959997,None,626.5672207959997,None,1,3.057012491000023,626.5672207959997,None,629.6564226479995,None,629.6564226479995,None,632.1603528300002,None,632.1603528300002,None,0.9502737559996604,633.9639650190002,None,633.9639650190002,None,6,1,0.8850789070002065,634.900477872,None,634.900477872,None,634.900477872,None,635.8016828469999,None,1,0.5352348739997979,635.8016828469999,None,52,636.3533177809995,None,103,A,1,2021_May_20_0924,GazeFlow,2020.1.2,59.880837253531894,
5,Block504.xls,A,,,,,,,,,,,,,,,,,,0,4,4,4,,,,,,,,,,,,,,,,,,,,,,,,,,,,,,,,,,,,,,,,,,,,103,A,1,2021_May_20_0924,GazeFlow,2020.1.2,59.880837253531894,
6,Block511.xls,A,11,1,15,15,11,congruent,Left,Left,Right,80,83,3,blue,2,6,/home/docky/apps/exp/images/80Bi.jpeg,/home/docky/apps/exp/images/83B.jpeg,0,5,5,5,0,0,0,0,658.1469309989998,None,658.1469309989998,None,1,5.713629537999623,658.1469309989998,None,663.8858474620001,None,663.8858474620001,None,666.4124238329996,None,666.4124238329996,None,0.8492270500000814,668.199019095,None,668.199019095,None,6,1,0.8846881480003503,669.0337104639993,None,669.0337104639993,None,669.0337104639993,None,669.9344924970001,None,1,0.5678347230004874,669.9344924970001,None,54,670.5190374670001,None,103,A,1,2021_May_20_0924,GazeFlow,2020.1.2,59.880837253531894,
6,Block511.xls,A,11,2,105,45,22,incongruent,Left,Right,Left,39,38,1,blue,2,5,/home/docky/apps/exp/images/39Bi.jpeg,/home/docky/apps/exp/images/38B.jpeg,0,5,5,5,0,1,1,1,671.521179798,None,671.521179798,None,1,2.9230134030003683,671.521179798,None,674.478068419,None,674.478068419,None,676.9817277060001,None,676.9817277060001,None,1.4343371720005962,678.7805623189997,None,678.7805623189997,None,5,1,3.9414654910005993,680.2052767659998,None,680.2052767659998,None,680.2052767659998,None,684.162765733,None,1,0.9692949399995996,684.162765733,None,56,685.148047912,None,103,A,1,2021_May_20_0924,GazeFlow,2020.1.2,59.880837253531894,
6,Block511.xls,A,11,3,68,8,21,incongruent,Right,Left,Right,38,39,1,blue,2,6,/home/docky/apps/exp/images/38B.jpeg,/home/docky/apps/exp/images/39Bi.jpeg,0,5,5,5,0,2,2,2,686.1500151529999,None,686.1500151529999,None,1,4.108389181999883,686.1500151529999,None,690.292219979,None,690.292219979,None,692.795512621,None,692.795512621,None,0.9501306290003413,694.5981208389994,None,694.5981208389994,None,6,1,0.9011858809999467,695.5351006619994,None,695.5351006619994,None,695.5351006619994,None,696.453201155,None,1,0.6517194250000102,696.453201155,None,58,697.1212498699997,None,103,A,1,2021_May_20_0924,GazeFlow,2020.1.2,59.880837253531894,
6,Block511.xls,A,11,4,80,20,21,incongruent,Right,Left,Right,62,65,3,yellow,2,6,/home/docky/apps/exp/images/38Bi.jpeg,/home/docky/apps/exp/images/35B.jpeg,0,5,5,5,0,3,3,3,698.1230217289994,None,698.1230217289994,None,1,3.307050243000049,698.1230217289994,None,701.4638312589996,None,701.4638312589996,None,703.968496597,None,703.968496597,None,1.000098290999631,705.7650123169997,None,705.7650123169997,None,5,0,0.8345490530000461,706.7568583089997,None,706.7568583089997,None,706.7568583089997,None,707.6079077159993,None,1,0.8690363699997761,707.6079077159993,None,56,708.4934098539998,None,103,A,1,2021_May_20_0924,GazeFlow,2020.1.2,59.880837253531894,
6,Block511.xls,A,11,5,5,5,11,congruent,Left,Left,Right,65,66,1,blue,2,6,/home/docky/apps/exp/images/35Yi.jpeg,/home/docky/apps/exp/images/66B.jpeg,0,5,5,5,0,4,4,4,709.4948659559996,None,709.4948659559996,None,1,3.274272124000163,709.4948659559996,None,712.8022919979994,None,712.8022919979994,None,715.3052282959998,None,715.3052282959998,None,1.2170650079997358,717.1088122329993,None,717.1088122329993,None,5,0,0.8345758549994571,718.3125521239999,None,718.3125521239999,None,718.3125521239999,None,719.1637273409997,None,1,0.6684512579995499,719.1637273409997,None,54,719.848778605,None,103,A,1,2021_May_20_0924,GazeFlow,2020.1.2,59.880837253531894,
6,Block511.xls,A,11,6,18,18,11,congruent,Left,Left,Right,65,66,1,yellow,2,6,/home/docky/apps/exp/images/35B.jpeg,/home/docky/apps/exp/images/66Yi.jpeg,0,5,5,5,0,5,5,5,720.8500372879998,None,720.8500372879998,None,1,2.823295851000694,720.8500372879998,None,723.7069326269993,None,723.7069326269993,None,726.2095854939998,None,726.2095854939998,None,1.2674618080000073,728.0135134789998,None,728.0135134789998,None,5,0,0.8008793839999271,729.267360887,None,729.267360887,None,729.267360887,None,730.0849575299999,None,1,0.6350323130000106,730.0849575299999,None,52,730.73658393,None,103,A,1,2021_May_20_0924,GazeFlow,2020.1.2,59.880837253531894,
6,Block511.xls,A,11,7,25,25,11,congruent,Left,Left,Right,69,75,6,yellow,2,6,/home/docky/apps/exp/images/69Yi.jpeg,/home/docky/apps/exp/images/76Y.jpeg,0,5,5,5,0,6,6,6,731.7379414769994,None,731.7379414769994,None,1,3.1736594009998953,731.7379414769994,None,734.9454463940001,None,734.9454463940001,None,737.4482173309998,None,737.4482173309998,None,0.899975629000437,739.2512212009997,None,739.2512212009997,None,6,1,0.8009044970003742,740.138417145,None,740.138417145,None,740.138417145,None,740.9561562509998,None,1,0.5511885010000697,740.9561562509998,None,54,741.5237388779997,None,103,A,1,2021_May_20_0924,GazeFlow,2020.1.2,59.880837253531894,
6,Block511.xls,A,11,8,3,3,11,congruent,Left,Left,Right,35,38,3,blue,2,6,/home/docky/apps/exp/images/35Bi.jpeg,/home/docky/apps/exp/images/38B.jpeg,0,5,5,5,0,7,7,7,742.5263989949999,None,742.5263989949999,None,1,3.1227035799993246,742.5263989949999,None,745.6814331269998,None,745.6814331269998,None,748.1860054539993,None,748.1860054539993,None,1.2337839970005007,749.9892164019993,None,749.9892164019993,None,6,1,0.8509172650001346,751.2098574169995,None,751.2098574169995,None,751.2098574169995,None,752.0776418839996,None,1,0.401630078999915,752.0776418839996,None,56,752.4954711269993,None,103,A,1,2021_May_20_0924,GazeFlow,2020.1.2,59.880837253531894,
6,Block511.xls,A,,,,,,,,,,,,,,,,,,0,5,5,5,,,,,,,,,,,,,,,,,,,,,,,,,,,,,,,,,,,,,,,,,,,,103,A,1,2021_May_20_0924,GazeFlow,2020.1.2,59.880837253531894,
7,Block508.xls,A,8,1,13,13,11,congruent,Left,Left,Right,76,79,3,blue,2,6,/home/docky/apps/exp/images/76Bi.jpeg,/home/docky/apps/exp/images/79B.jpeg,0,6,6,6,0,0,0,0,776.0436295740001,None,776.0436295740001,None,1,4.915412618999653,776.0436295740001,None,780.9848480499995,None,780.9848480499995,None,783.5050874969993,None,783.5050874969993,None,0.7658308130003206,785.3099243739998,None,785.3099243739998,None,6,1,0.884542865000185,786.060843063,None,786.060843063,None,786.060843063,None,786.9621491799999,None,1,0.45088852100070653,786.9621491799999,None,58,787.429519067,None,103,A,1,2021_May_20_0924,GazeFlow,2020.1.2,59.880837253531894,
7,Block508.xls,A,8,2,21,21,11,congruent,Left,Left,Right,62,65,3,yellow,2,6,/home/docky/apps/exp/images/38B.jpeg,/home/docky/apps/exp/images/35Bi.jpeg,0,6,6,6,0,1,1,1,788.4314818019993,None,788.4314818019993,None,1,2.8730335720001676,788.4314818019993,None,791.3384068179994,None,791.3384068179994,None,793.8430187579997,None,793.8430187579997,None,0.7828785049996441,795.6394089899995,None,795.6394089899995,None,6,1,0.9350566079992859,796.4141621539993,None,796.4141621539993,None,796.4141621539993,None,797.3654189709996,None,1,0.45098046499970224,797.3654189709996,None,60,797.8331860929993,None,103,A,1,2021_May_20_0924,GazeFlow,2020.1.2,59.880837253531894,
7,Block508.xls,A,8,3,99,39,22,incongruent,Left,Right,Left,79,76,3,blue,2,5,/home/docky/apps/exp/images/79Bi.jpeg,/home/docky/apps/exp/images/76B.jpeg,0,6,6,6,0,2,2,2,798.8349930939994,None,798.8349930939994,None,1,3.0238451280001755,798.8349930939994,None,801.8920184789995,None,801.8920184789995,None,804.3949970809999,None,804.3949970809999,None,0.9504906049996862,806.1977974319998,None,806.1977974319998,None,5,1,2.571217243999854,807.135206336,None,807.135206336,None,807.135206336,None,809.7228857519995,None,1,0.9521096400003444,809.7228857519995,None,62,810.6913094369993,None,103,A,1,2021_May_20_0924,GazeFlow,2020.1.2,59.880837253531894,
7,Block508.xls,A,8,4,37,37,12,congruent,Right,Right,Left,66,65,1,blue,2,5,/home/docky/apps/exp/images/66Bi.jpeg,/home/docky/apps/exp/images/35Y.jpeg,0,6,6,6,0,3,3,3,811.6938989559994,None,811.6938989559994,None,1,3.8082683960001305,811.6938989559994,None,815.5351919989998,None,815.5351919989998,None,818.0399467509997,None,818.0399467509997,None,0.9332728659992426,819.8401253020002,None,819.8401253020002,None,5,1,0.8178791909995198,820.76166208,None,820.76166208,None,820.76166208,None,821.5961034989996,None,1,0.8349710180000329,821.5961034989996,None,64,822.4475705429995,None,103,A,1,2021_May_20_0924,GazeFlow,2020.1.2,59.880837253531894,
7,Block508.xls,A,8,5,82,22,21,incongruent,Right,Left,Right,38,39,1,yellow,2,6,/home/docky/apps/exp/images/38Y.jpeg,/home/docky/apps/exp/images/39Yi.jpeg,0,6,6,6,0,4,4,4,823.4498324469996,None,823.4498324469996,None,1,2.421925996999562,823.4498324469996,None,825.9054099209998,None,825.9054099209998,None,828.4151204619993,None,828.4151204619993,None,1.033926959999917,830.2114284439995,None,830.2114284439995,None,6,1,0.8344538060000559,831.2319209269999,None,831.2319209269999,None,831.2319209269999,None,832.0830315859994,None,1,0.5851162670005579,832.0830315859994,None,66,832.6845276189997,None,103,A,1,2021_May_20_0924,GazeFlow,2020.1.2,59.880837253531894,
7,Block508.xls,A,8,6,104,44,22,incongruent,Left,Right,Left,39,38,1,blue,2,5,/home/docky/apps/exp/images/39B.jpeg,/home/docky/apps/exp/images/38Bi.jpeg,0,6,6,6,0,5,5,5,833.6861914029996,None,833.6861914029996,None,1,2.9730634010002177,833.6861914029996,None,836.6931069719994,None,836.6931069719994,None,839.1980208139994,None,839.1980208139994,None,0.9168316189998222,840.9993299179996,None,840.9993299179996,None,6,0,0.8510595850002574,841.9027527079998,None,841.9027527079998,None,841.9027527079998,None,842.7706631619994,None,1,0.5007195019998107,842.7706631619994,None,64,843.2880326999993,None,103,A,1,2021_May_20_0924,GazeFlow,2020.1.2,59.880837253531894,
7,Block508.xls,A,8,7,39,39,12,congruent,Right,Right,Left,79,73,6,blue,2,5,/home/docky/apps/exp/images/79B.jpeg,/home/docky/apps/exp/images/73Bi.jpeg,0,6,6,6,0,6,6,6,844.2902051299998,None,844.2902051299998,None,1,2.723042292000173,844.2902051299998,None,847.046449509,None,847.046449509,None,849.5496735030001,None,849.5496735030001,None,0.8664784709999367,851.3533950699994,None,851.3533950699994,None,5,1,0.8008440129997325,852.2060528080001,None,852.2060528080001,None,852.2060528080001,None,853.0236769779995,None,1,0.6527347900000677,853.0236769779995,None,66,853.6921149129994,None,103,A,1,2021_May_20_0924,GazeFlow,2020.1.2,59.880837253531894,
7,Block508.xls,A,8,8,36,36,12,congruent,Right,Right,Left,66,65,1,blue,2,5,/home/docky/apps/exp/images/66B.jpeg,/home/docky/apps/exp/images/35Yi.jpeg,0,6,6,6,0,7,7,7,854.6934648400002,None,854.6934648400002,None,1,2.8062435940000796,854.6934648400002,None,857.5336541890001,None,857.5336541890001,None,860.0360871889998,None,860.0360871889998,None,0.8831040280001616,861.8378382909996,None,861.8378382909996,None,5,1,0.8012541230000352,862.7097621899993,None,862.7097621899993,None,862.7097621899993,None,863.5272307509995,None,1,0.5850677720000022,863.5272307509995,None,68,864.1290774609997,None,103,A,1,2021_May_20_0924,GazeFlow,2020.1.2,59.880837253531894,
7,Block508.xls,A,,,,,,,,,,,,,,,,,,0,6,6,6,,,,,,,,,,,,,,,,,,,,,,,,,,,,,,,,,,,,,,,,,,,,103,A,1,2021_May_20_0924,GazeFlow,2020.1.2,59.880837253531894,
8,Block510.xls,A,10,1,102,42,22,incongruent,Left,Right,Left,83,80,3,blue,2,5,/home/docky/apps/exp/images/83B.jpeg,/home/docky/apps/exp/images/80Bi.jpeg,0,7,7,7,0,0,0,0,895.2564414259996,None,895.2564414259996,None,1,3.2955237530004524,895.2564414259996,None,898.5797948700001,None,898.5797948700001,None,901.0998563120002,None,901.0998563120002,None,0.8321677940002701,902.9034626080002,None,902.9034626080002,None,5,1,0.8011370650001481,903.7225499769993,None,903.7225499769993,None,903.7225499769993,None,904.5403498539999,None,1,0.6680859489997601,904.5403498539999,None,70,905.2252434510001,None,103,A,1,2021_May_20_0924,GazeFlow,2020.1.2,59.880837253531894,
8,Block510.xls,A,10,2,114,54,22,incongruent,Left,Right,Left,76,69,7,yellow,2,5,/home/docky/apps/exp/images/76Yi.jpeg,/home/docky/apps/exp/images/69Y.jpeg,0,7,7,7,0,1,1,1,906.227090851,None,906.227090851,None,1,2.5388454389994877,906.227090851,None,908.7997017529997,None,908.7997017529997,None,911.3045794189993,None,911.3045794189993,None,0.9331881479993172,913.1078525359999,None,913.1078525359999,None,5,1,0.8176199010003984,914.0261149950002,None,914.0261149950002,None,914.0261149950002,None,914.860444676,None,1,0.6016320139997333,914.860444676,None,72,915.4786947319999,None,103,A,1,2021_May_20_0924,GazeFlow,2020.1.2,59.880837253531894,
8,Block510.xls,A,10,3,72,12,21,incongruent,Right,Left,Right,76,79,3,blue,2,6,/home/docky/apps/exp/images/76Bi.jpeg,/home/docky/apps/exp/images/79B.jpeg,0,7,7,7,0,2,2,2,916.4806008239993,None,916.4806008239993,None,1,3.0062694200005353,916.4806008239993,None,919.5191625759999,None,919.5191625759999,None,922.0234075919998,None,922.0234075919998,None,0.9835027990002345,923.8208187359996,None,923.8208187359996,None,6,1,0.817826280999725,924.7970546819997,None,924.7970546819997,None,924.7970546819997,None,925.6314445569997,None,1,0.6017591859999811,925.6314445569997,None,74,926.2496748249996,None,103,A,1,2021_May_20_0924,GazeFlow,2020.1.2,59.880837253531894,
8,Block510.xls,A,10,4,112,52,22,incongruent,Left,Right,Left,75,69,6,yellow,2,5,/home/docky/apps/exp/images/76Y.jpeg,/home/docky/apps/exp/images/69Yi.jpeg,0,7,7,7,0,3,3,3,927.2511507749996,None,927.2511507749996,None,1,3.524312378000104,927.2511507749996,None,930.8091963659999,None,930.8091963659999,None,933.3120874259994,None,933.3120874259994,None,1.01538243899995,935.1176407809999,None,935.1176407809999,None,5,1,0.8679849809996085,936.1192263209996,None,936.1192263209996,None,936.1192263209996,None,937.0035932289993,None,1,0.6346114039997701,937.0035932289993,None,76,937.654870161,None,103,A,1,2021_May_20_0924,GazeFlow,2020.1.2,59.880837253531894,
8,Block510.xls,A,10,5,17,17,11,congruent,Left,Left,Right,33,35,2,yellow,2,6,/home/docky/apps/exp/images/33Y.jpeg,/home/docky/apps/exp/images/35Yi.jpeg,0,7,7,7,0,4,4,4,938.6568165279996,None,938.6568165279996,None,1,2.6895068170006198,938.6568165279996,None,941.3818333399995,None,941.3818333399995,None,943.882458954,None,943.882458954,None,0.900201219000337,945.6804873229994,None,945.6804873229994,None,6,1,0.8346200180003507,946.572644197,None,946.572644197,None,946.572644197,None,947.4236224030001,None,1,0.5351718769998115,947.4236224030001,None,78,947.9747721249996,None,103,A,1,2021_May_20_0924,GazeFlow,2020.1.2,59.880837253531894,
8,Block510.xls,A,10,6,31,31,12,congruent,Right,Right,Left,19,16,3,blue,2,5,/home/docky/apps/exp/images/19Bi.jpeg,/home/docky/apps/exp/images/16B.jpeg,0,7,7,7,0,5,5,5,948.9766670499994,None,948.9766670499994,None,1,3.3071882329995788,948.9766670499994,None,952.3177481249995,None,952.3177481249995,None,954.8211466229995,None,954.8211466229995,None,0.8996621559999767,956.624580742,None,956.624580742,None,5,1,0.8346001310001157,957.510441468,None,957.510441468,None,957.510441468,None,958.3618124999994,None,1,0.5515578750000714,958.3618124999994,None,80,958.9298023719994,None,103,A,1,2021_May_20_0924,GazeFlow,2020.1.2,59.880837253531894,
8,Block510.xls,A,10,7,61,1,21,incongruent,Right,Left,Right,16,19,3,blue,2,6,/home/docky/apps/exp/images/16Bi.jpeg,/home/docky/apps/exp/images/19B.jpeg,0,7,7,7,0,6,6,6,959.9313662569994,None,959.9313662569994,None,1,2.672865966000245,959.9313662569994,None,962.6377767579997,None,962.6377767579997,None,965.1453787379996,None,965.1453787379996,None,0.9835465299993302,966.9444134799996,None,966.9444134799996,None,6,1,0.8346799339997233,967.9138212179996,None,967.9138212179996,None,967.9138212179996,None,968.7649405499997,None,1,0.4849913749994812,968.7649405499997,None,82,969.2662434779995,None,103,A,1,2021_May_20_0924,GazeFlow,2020.1.2,59.880837253531894,
8,Block510.xls,A,10,8,94,34,22,incongruent,Left,Right,Left,38,35,3,blue,2,5,/home/docky/apps/exp/images/38Bi.jpeg,/home/docky/apps/exp/images/35B.jpeg,0,7,7,7,0,7,7,7,970.2681753050001,None,970.2681753050001,None,1,3.3409739120006634,970.2681753050001,None,973.6424468659998,None,973.6424468659998,None,976.1458386129998,None,976.1458386129998,None,0.9833537999993496,977.9488380570001,None,977.9488380570001,None,6,0,0.8010856159999094,978.918811214,None,978.918811214,None,978.918811214,None,979.736541452,None,1,0.5509027400003106,979.736541452,None,80,980.3046892080001,None,103,A,1,2021_May_20_0924,GazeFlow,2020.1.2,59.880837253531894,
8,Block510.xls,A,,,,,,,,,,,,,,,,,,0,7,7,7,,,,,,,,,,,,,,,,,,,,,,,,,,,,,,,,,,,,,,,,,,,,103,A,1,2021_May_20_0924,GazeFlow,2020.1.2,59.880837253531894,
9,Block507.xls,A,7,1,110,50,22,incongruent,Left,Right,Left,66,65,1,yellow,2,5,/home/docky/apps/exp/images/66Y.jpeg,/home/docky/apps/exp/images/35Bi.jpeg,0,8,8,8,0,0,0,0,1001.631005532,None,1001.631005532,None,1,4.8643048280000585,1001.631005532,None,1006.525405632,None,1006.525405632,None,1009.0446548089994,None,1009.0446548089994,None,0.9661376600006406,1010.8449962209997,None,1010.8449962209997,None,6,0,0.8844796719995429,1011.7994322479999,None,1011.7994322479999,None,1011.7994322479999,None,1012.7005058739996,None,1,0.4342432960002043,1012.7005058739996,None,78,1013.151384754,None,103,A,1,2021_May_20_0924,GazeFlow,2020.1.2,59.880837253531894,
9,Block507.xls,A,7,2,90,30,22,incongruent,Right,Left,Right,16,19,3,blue,2,6,/home/docky/apps/exp/images/16Bi.jpeg,/home/docky/apps/exp/images/19B.jpeg,0,8,8,8,0,1,1,1,1014.1533015329996,None,1014.1533015329996,None,1,2.8232560940004987,1014.1533015329996,None,1017.0101031469994,None,1017.0101031469994,None,1019.5148332210001,None,1019.5148332210001,None,0.8665642030000527,1021.3164563189994,None,1021.3164563189994,None,6,1,0.8512925229997563,1022.1694407369996,None,1022.1694407369996,None,1022.1694407369996,None,1023.0369943039996,None,1,0.5010580590005702,1023.0369943039996,None,80,1023.5546934260001,None,103,A,1,2021_May_20_0924,GazeFlow,2020.1.2,59.880837253531894,
9,Block507.xls,A,7,3,16,16,11,congruent,Left,Left,Right,33,35,2,yellow,2,6,/home/docky/apps/exp/images/33Yi.jpeg,/home/docky/apps/exp/images/35Y.jpeg,0,8,8,8,0,2,2,2,1024.5568203439998,None,1024.5568203439998,None,1,2.2554099319995657,1024.5568203439998,None,1026.8458155709995,None,1026.8458155709995,None,1029.3490101629995,None,1029.3490101629995,None,0.8666526020006131,1031.1521079149998,None,1031.1521079149998,None,6,1,0.9008485899994412,1032.0053180839996,None,1032.0053180839996,None,1032.0053180839996,None,1032.922937366,None,1,0.4676866930003598,1032.922937366,None,82,1033.4073019930001,None,103,A,1,2021_May_20_0924,GazeFlow,2020.1.2,59.880837253531894,
9,Block507.xls,A,7,4,117,57,22,incongruent,Left,Right,Left,77,72,5,yellow,2,5,/home/docky/apps/exp/images/77Y.jpeg,/home/docky/apps/exp/images/72Yi.jpeg,0,8,8,8,0,3,3,3,1034.409237469,None,1034.409237469,None,1,2.1216319530003602,1034.409237469,None,1036.564541271,None,1036.564541271,None,1039.0671531899998,None,1039.0671531899998,None,0.8498459749998801,1040.8708512539997,None,1040.8708512539997,None,5,1,0.8515872709995165,1041.7072958439994,None,1041.7072958439994,None,1041.7072958439994,None,1042.575067529,None,1,0.517656285999692,1042.575067529,None,84,1043.1096126789998,None,103,A,1,2021_May_20_0924,GazeFlow,2020.1.2,59.880837253531894,
9,Block507.xls,A,7,5,53,53,12,congruent,Right,Right,Left,75,69,6,yellow,2,5,/home/docky/apps/exp/images/76Yi.jpeg,/home/docky/apps/exp/images/69Y.jpeg,0,8,8,8,0,4,4,4,1044.1115868709994,None,1044.1115868709994,None,1,2.4222377339992818,1044.1115868709994,None,1046.5674524079996,None,1046.5674524079996,None,1049.0728954249998,None,1049.0728954249998,None,0.8162783769994348,1050.8739677029998,None,1050.8739677029998,None,5,1,0.8344917309996163,1051.6767605609994,None,1051.6767605609994,None,1051.6767605609994,None,1052.5278378209996,None,1,0.5683412749995114,1052.5278378209996,None,86,1053.1128066,None,103,A,1,2021_May_20_0924,GazeFlow,2020.1.2,59.880837253531894,
9,Block507.xls,A,7,6,96,36,22,incongruent,Left,Right,Left,66,65,1,blue,2,5,/home/docky/apps/exp/images/66Bi.jpeg,/home/docky/apps/exp/images/35Y.jpeg,0,8,8,8,0,5,5,5,1054.114133821,None,1054.114133821,None,1,2.7229380839999067,1054.114133821,None,1056.8691898379993,None,1056.8691898379993,None,1059.373471381,None,1059.373471381,None,0.9666423589997066,1061.1765936889997,None,1061.1765936889997,None,5,1,2.103476430000228,1062.1302808109995,None,1062.1302808109995,None,1062.1302808109995,None,1064.2504141709996,None,1,0.8351454730000114,1064.2504141709996,None,88,1065.103022927,None,103,A,1,2021_May_20_0924,GazeFlow,2020.1.2,59.880837253531894,
9,Block507.xls,A,7,7,58,58,12,congruent,Right,Right,Left,77,72,5,yellow,2,5,/home/docky/apps/exp/images/77Yi.jpeg,/home/docky/apps/exp/images/72Y.jpeg,0,8,8,8,0,6,6,6,1066.1046934309998,None,1066.1046934309998,None,1,2.9726615909994507,1066.1046934309998,None,1069.1112197510001,None,1069.1112197510001,None,1071.613978853,None,1071.613978853,None,0.8833317469998292,1073.4173141419997,None,1073.4173141419997,None,5,1,0.8179245390001597,1074.2873779840002,None,1074.2873779840002,None,1074.2873779840002,None,1075.1216219429998,None,1,0.6851650890002929,1075.1216219429998,None,90,1075.8235351579997,None,103,A,1,2021_May_20_0924,GazeFlow,2020.1.2,59.880837253531894,
9,Block507.xls,A,7,8,41,41,12,congruent,Right,Right,Left,79,76,3,blue,2,5,/home/docky/apps/exp/images/79Bi.jpeg,/home/docky/apps/exp/images/76B.jpeg,0,8,8,8,0,7,7,7,1076.824929538,None,1076.824929538,None,1,2.305251177000173,1076.824929538,None,1079.1639670139994,None,1079.1639670139994,None,1081.6673525279994,None,1081.6673525279994,None,0.8165898690003814,1083.4709662569994,None,1083.4709662569994,None,5,1,0.8509976629993616,1084.2735481579994,None,1084.2735481579994,None,1084.2735481579994,None,1085.1411733599998,None,1,0.852352699000221,1085.1411733599998,None,92,1086.009936816,None,103,A,1,2021_May_20_0924,GazeFlow,2020.1.2,59.880837253531894,
9,Block507.xls,A,,,,,,,,,,,,,,,,,,0,8,8,8,,,,,,,,,,,,,,,,,,,,,,,,,,,,,,,,,,,,,,,,,,,,103,A,1,2021_May_20_0924,GazeFlow,2020.1.2,59.880837253531894,
10,Block515.xls,A,15,1,107,47,22,incongruent,Left,Right,Left,35,33,2,yellow,2,5,/home/docky/apps/exp/images/35Yi.jpeg,/home/docky/apps/exp/images/33Y.jpeg,0,9,9,9,0,0,0,0,1123.366182672,None,1123.366182672,None,1,3.14820343700012,1123.366182672,None,1126.5370087169995,None,1126.5370087169995,None,1129.0610177729995,None,1129.0610177729995,None,1.1998903089997839,1130.8611735949999,None,1130.8611735949999,None,6,0,0.6505959930000245,1132.0496237839998,None,1132.0496237839998,None,1132.0496237839998,None,1132.717162727,None,1,0.7847584399996776,1132.717162727,None,90,1133.5182259759995,None,103,A,1,2021_May_20_0924,GazeFlow,2020.1.2,59.880837253531894,
10,Block515.xls,A,15,2,55,55,12,congruent,Right,Right,Left,76,69,7,yellow,2,5,/home/docky/apps/exp/images/76Yi.jpeg,/home/docky/apps/exp/images/69Y.jpeg,0,9,9,9,0,1,1,1,1134.5205308409995,None,1134.5205308409995,None,1,4.059041470000011,1134.5205308409995,None,1138.612998179,None,1138.612998179,None,1141.1176066039998,None,1141.1176066039998,None,0.7500247459993261,1142.919071022,None,1142.919071022,None,5,1,1.0181292480001503,1143.6554026839995,None,1143.6554026839995,None,1143.6554026839995,None,1144.6903019759993,None,1,0.6351258419999795,1144.6903019759993,None,92,1145.3418336059995,None,103,A,1,2021_May_20_0924,GazeFlow,2020.1.2,59.880837253531894,
10,Block515.xls,A,15,3,75,15,21,incongruent,Right,Left,Right,33,35,2,yellow,2,6,/home/docky/apps/exp/images/33Yi.jpeg,/home/docky/apps/exp/images/35Y.jpeg,0,9,9,9,0,2,2,2,1146.3434231789997,None,1146.3434231789997,None,1,2.1218195169994942,1146.3434231789997,None,1148.498832495,None,1148.498832495,None,1151.0048563989994,None,1151.0048563989994,None,0.7664323869994405,1152.799134854,None,1152.799134854,None,6,1,0.9183204649998515,1153.5580062039999,None,1153.5580062039999,None,1153.5580062039999,None,1154.49259042,None,1,0.4173878860001423,1154.49259042,None,94,1154.9269300999995,None,103,A,1,2021_May_20_0924,GazeFlow,2020.1.2,59.880837253531894,
10,Block515.xls,A,15,4,62,2,21,incongruent,Right,Left,Right,35,38,3,blue,2,6,/home/docky/apps/exp/images/35Bi.jpeg,/home/docky/apps/exp/images/38B.jpeg,0,9,9,9,0,3,3,3,1155.9289910899997,None,1155.9289910899997,None,1,2.0717109419992994,1155.9289910899997,None,1158.0338171949998,None,1158.0338171949998,None,1160.5373011309994,None,1160.5373011309994,None,0.8167763780002133,1162.3406359049995,None,1162.3406359049995,None,6,1,0.9847972529996696,1163.1431341489997,None,1163.1431341489997,None,1163.1431341489997,None,1164.1449744729998,None,1,0.4339915029995609,1164.1449744729998,None,96,1164.5961597509995,None,103,A,1,2021_May_20_0924,GazeFlow,2020.1.2,59.880837253531894,
10,Block515.xls,A,15,5,100,40,22,incongruent,Left,Right,Left,79,76,3,blue,2,5,/home/docky/apps/exp/images/79Bi.jpeg,/home/docky/apps/exp/images/76B.jpeg,0,9,9,9,0,4,4,4,1165.597611839,None,1165.597611839,None,1,2.4225060129992926,1165.597611839,None,1168.0534956229994,None,1168.0534956229994,None,1170.5604676719995,None,1170.5604676719995,None,0.7996729879996565,1172.3599359749996,None,1172.3599359749996,None,5,1,1.0179610310005955,1173.1463735449997,None,1173.1463735449997,None,1173.1463735449997,None,1174.1805857729996,None,1,0.6682243459999881,1174.1805857729996,None,98,1174.8651526479998,None,103,A,1,2021_May_20_0924,GazeFlow,2020.1.2,59.880837253531894,
10,Block515.xls,A,15,6,108,48,22,incongruent,Left,Right,Left,39,38,1,yellow,2,5,/home/docky/apps/exp/images/39Y.jpeg,/home/docky/apps/exp/images/38Yi.jpeg,0,9,9,9,0,5,5,5,1175.867395622,None,1175.867395622,None,1,3.0237317150003946,1175.867395622,None,1178.924553502,None,1178.924553502,None,1181.42925938,None,1181.42925938,None,1.1002897119997215,1183.231353923,None,1183.231353923,None,6,0,2.4374118380001164,1184.3178143629993,None,1184.3178143629993,None,1184.3178143629993,None,1186.7718928200002,None,1,0.3840885720001097,1186.7718928200002,None,96,1187.1728949099997,None,103,A,1,2021_May_20_0924,GazeFlow,2020.1.2,59.880837253531894,
10,Block515.xls,A,15,7,59,59,12,congruent,Right,Right,Left,80,79,1,yellow,2,5,/home/docky/apps/exp/images/80Y.jpeg,/home/docky/apps/exp/images/79Yi.jpeg,0,9,9,9,0,6,6,6,1188.1748637519995,None,1188.1748637519995,None,1,2.8558747749993927,1188.1748637519995,None,1191.063255297,None,1191.063255297,None,1193.5675245920002,None,1193.5675245920002,None,0.7163222459994358,1195.3702334789996,None,1195.3702334789996,None,5,1,0.9849249209992195,1196.0739944489997,None,1196.0739944489997,None,1196.0739944489997,None,1197.0753859380002,None,1,0.46780166499956977,1197.0753859380002,None,98,1197.5595476179997,None,103,A,1,2021_May_20_0924,GazeFlow,2020.1.2,59.880837253531894,
10,Block515.xls,A,15,8,8,8,11,congruent,Left,Left,Right,38,39,1,blue,2,6,/home/docky/apps/exp/images/38B.jpeg,/home/docky/apps/exp/images/39Bi.jpeg,0,9,9,9,0,7,7,7,1198.5615907709998,None,1198.5615907709998,None,1,2.4055593430002773,1198.5615907709998,None,1201.000768723,None,1201.000768723,None,1203.5036038439994,None,1203.5036038439994,None,0.7331810050000058,1205.3064349429997,None,1205.3064349429997,None,6,1,0.9010636639995937,1206.0267843089996,None,1206.0267843089996,None,1206.0267843089996,None,1206.9443633739993,None,1,0.38409836499977246,1206.9443633739993,None,100,1207.34512766,None,103,A,1,2021_May_20_0924,GazeFlow,2020.1.2,59.880837253531894,
10,Block515.xls,A,,,,,,,,,,,,,,,,,,0,9,9,9,,,,,,,,,,,,,,,,,,,,,,,,,,,,,,,,,,,,,,,,,,,,103,A,1,2021_May_20_0924,GazeFlow,2020.1.2,59.880837253531894,
11,Block512.xls,A,12,1,30,30,11,congruent,Left,Left,Right,79,82,3,yellow,2,6,/home/docky/apps/exp/images/79Yi.jpeg,/home/docky/apps/exp/images/80Y.jpeg,0,10,10,10,0,0,0,0,1237.1390533879994,None,1237.1390533879994,None,1,3.0633004569999684,1237.1390533879994,None,1240.2264792019996,None,1240.2264792019996,None,1242.7469699989997,None,1242.7469699989997,None,0.9662374299996372,1244.549836532,None,1244.549836532,None,5,0,0.8513184080002247,1245.5034135389997,None,1245.5034135389997,None,1245.5034135389997,None,1246.3710662799995,None,1,0.5182773030001044,1246.3710662799995,None,98,1246.9058130529993,None,103,A,1,2021_May_20_0924,GazeFlow,2020.1.2,59.880837253531894,
11,Block512.xls,A,12,2,115,55,22,incongruent,Left,Right,Left,76,69,7,yellow,2,5,/home/docky/apps/exp/images/76Yi.jpeg,/home/docky/apps/exp/images/69Y.jpeg,0,10,10,10,0,1,1,1,1247.907113071,None,1247.907113071,None,1,2.3724660430007134,1247.907113071,None,1250.3111432699998,None,1250.3111432699998,None,1252.817971941,None,1252.817971941,None,0.9168169869999474,1254.6194287049993,None,1254.6194287049993,None,5,1,0.9013747330000115,1255.5228420759995,None,1255.5228420759995,None,1255.5228420759995,None,1256.4406122809996,None,1,0.5683307729996159,1256.4406122809996,None,100,1257.025482555,None,103,A,1,2021_May_20_0924,GazeFlow,2020.1.2,59.880837253531894,
11,Block512.xls,A,12,3,66,6,21,incongruent,Right,Left,Right,38,39,1,blue,2,6,/home/docky/apps/exp/images/38B.jpeg,/home/docky/apps/exp/images/39Bi.jpeg,0,10,10,10,0,2,2,2,1258.0272333759995,None,1258.0272333759995,None,1,2.255346393000764,1258.0272333759995,None,1260.317624292,None,1260.317624292,None,1262.8144111499996,None,1262.8144111499996,None,0.9504677479999373,1264.622501017,None,1264.622501017,None,6,1,0.8177586800002246,1265.5589395910001,None,1265.5589395910001,None,1265.5589395910001,None,1266.3931869479993,None,1,0.38404082999932143,1266.3931869479993,None,102,1266.7939584469996,None,103,A,1,2021_May_20_0924,GazeFlow,2020.1.2,59.880837253531894,
11,Block512.xls,A,12,4,35,35,12,congruent,Right,Right,Left,66,65,1,blue,2,5,/home/docky/apps/exp/images/66B.jpeg,/home/docky/apps/exp/images/35Yi.jpeg,0,10,10,10,0,3,3,3,1267.7958819369996,None,1267.7958819369996,None,1,2.8568045519996303,1267.7958819369996,None,1270.686121412,None,1270.686121412,None,1273.1908577639997,None,1273.1908577639997,None,0.9668017309995776,1274.991508729,None,1274.991508729,None,5,1,0.8347051609998744,1275.9455846599994,None,1275.9455846599994,None,1275.9455846599994,None,1276.7965943929994,None,1,0.5183617659995434,1276.7965943929994,None,104,1277.3316720359999,None,103,A,1,2021_May_20_0924,GazeFlow,2020.1.2,59.880837253531894,
11,Block512.xls,A,12,5,40,40,12,congruent,Right,Right,Left,79,76,3,blue,2,5,/home/docky/apps/exp/images/79Bi.jpeg,/home/docky/apps/exp/images/76B.jpeg,0,10,10,10,0,4,4,4,1278.3331835489998,None,1278.3331835489998,None,1,2.3051813299998685,1278.3331835489998,None,1280.6720817349997,None,1280.6720817349997,None,1283.1770205229996,None,1283.1770205229996,None,0.8164843790000305,1284.9783080379993,None,1284.9783080379993,None,5,1,0.8681049679998978,1285.7812313939994,None,1285.7812313939994,None,1285.7812313939994,None,1286.666098496,None,1,0.5849570489999678,1286.666098496,None,106,1287.2673652249996,None,103,A,1,2021_May_20_0924,GazeFlow,2020.1.2,59.880837253531894,
11,Block512.xls,A,12,6,64,4,21,incongruent,Right,Left,Right,65,66,1,blue,2,6,/home/docky/apps/exp/images/35Yi.jpeg,/home/docky/apps/exp/images/66B.jpeg,0,10,10,10,0,5,5,5,1288.2692627059996,None,1288.2692627059996,None,1,2.054971214000034,1288.2692627059996,None,1290.357630419,None,1290.357630419,None,1292.8622492619998,None,1292.8622492619998,None,0.9334498079997502,1294.658929696,None,1294.658929696,None,6,1,0.9012887429998955,1295.5838822639998,None,1295.5838822639998,None,1295.5838822639998,None,1296.5016980199998,None,1,0.41751646300053835,1296.5016980199998,None,108,1296.9367098100001,None,103,A,1,2021_May_20_0924,GazeFlow,2020.1.2,59.880837253531894,
11,Block512.xls,A,12,7,12,12,11,congruent,Left,Left,Right,76,79,3,blue,2,6,/home/docky/apps/exp/images/76B.jpeg,/home/docky/apps/exp/images/79Bi.jpeg,0,10,10,10,0,6,6,6,1297.9379404739993,None,1297.9379404739993,None,1,3.090007682999385,1297.9379404739993,None,1301.0626527499999,None,1301.0626527499999,None,1303.5664366659994,None,1303.5664366659994,None,0.8333278160007467,1305.3684415379994,None,1305.3684415379994,None,6,1,0.8513682230004633,1306.187759904,None,1306.187759904,None,1306.187759904,None,1307.0554987429996,None,1,0.4176787959995636,1307.0554987429996,None,110,1307.4896946959998,None,103,A,1,2021_May_20_0924,GazeFlow,2020.1.2,59.880837253531894,
11,Block512.xls,A,12,8,49,49,12,congruent,Right,Right,Left,39,38,1,yellow,2,5,/home/docky/apps/exp/images/39Y.jpeg,/home/docky/apps/exp/images/38Yi.jpeg,0,10,10,10,0,7,7,7,1308.491861265,None,1308.491861265,None,1,2.1548146219993214,1308.491861265,None,1310.6806857709998,None,1310.6806857709998,None,1313.185441054,None,1313.185441054,None,0.8502208889995018,1314.9868714819995,None,1314.9868714819995,None,5,1,0.8845990359995994,1315.8233534049996,None,1315.8233534049996,None,1315.8233534049996,None,1316.7242988489998,None,1,0.5518147590000808,1316.7242988489998,None,112,1317.292538883,None,103,A,1,2021_May_20_0924,GazeFlow,2020.1.2,59.880837253531894,
11,Block512.xls,A,,,,,,,,,,,,,,,,,,0,10,10,10,,,,,,,,,,,,,,,,,,,,,,,,,,,,,,,,,,,,,,,,,,,,103,A,1,2021_May_20_0924,GazeFlow,2020.1.2,59.880837253531894,
12,Block503.xls,A,3,1,22,22,11,congruent,Left,Left,Right,62,65,3,yellow,2,6,/home/docky/apps/exp/images/38Bi.jpeg,/home/docky/apps/exp/images/35B.jpeg,0,11,11,11,0,0,0,0,1346.9675653159993,None,1346.9675653159993,None,1,3.7458851949995733,1346.9675653159993,None,1350.7486179919997,None,1350.7486179919997,None,1353.2662340279994,None,1353.2662340279994,None,0.8991891870000472,1355.0647115309994,None,1355.0647115309994,None,5,0,1.0012804540001525,1355.951229837,None,1355.951229837,None,1355.951229837,None,1356.9691095279995,None,1,0.5183464809997531,1356.9691095279995,None,110,1357.5037361289997,None,103,A,1,2021_May_20_0924,GazeFlow,2020.1.2,59.880837253531894,
12,Block503.xls,A,3,2,65,5,21,incongruent,Right,Left,Right,65,66,1,blue,2,6,/home/docky/apps/exp/images/35Y.jpeg,/home/docky/apps/exp/images/66Bi.jpeg,0,11,11,11,0,1,1,1,1358.5058876929997,None,1358.5058876929997,None,1,3.3568361349998668,1358.5058876929997,None,1361.8965717089995,None,1361.8965717089995,None,1364.3991290049998,None,1364.3991290049998,None,0.8331039909999163,1366.2036011270002,None,1366.2036011270002,None,6,1,0.8345762199996898,1367.0226135039993,None,1367.0226135039993,None,1367.0226135039993,None,1367.8737639169995,None,1,0.45099307500004215,1367.8737639169995,None,112,1368.341248363,None,103,A,1,2021_May_20_0924,GazeFlow,2020.1.2,59.880837253531894,
12,Block503.xls,A,3,3,76,16,21,incongruent,Right,Left,Right,33,35,2,yellow,2,6,/home/docky/apps/exp/images/33Y.jpeg,/home/docky/apps/exp/images/35Yi.jpeg,0,11,11,11,0,2,2,2,1369.3432485980002,None,1369.3432485980002,None,1,3.5241170179997425,1369.3432485980002,None,1372.901144034,None,1372.901144034,None,1375.4060264809996,None,1375.4060264809996,None,0.98346807300004,1377.2076933079998,None,1377.2076933079998,None,6,1,0.8677302440000858,1378.1778290379998,None,1378.1778290379998,None,1378.1778290379998,None,1379.0622052589997,None,1,0.5018995230002474,1379.0622052589997,None,114,1379.5802485220001,None,103,A,1,2021_May_20_0924,GazeFlow,2020.1.2,59.880837253531894,
12,Block503.xls,A,3,4,29,29,11,congruent,Left,Left,Right,79,82,3,yellow,2,6,/home/docky/apps/exp/images/79Y.jpeg,/home/docky/apps/exp/images/80Yi.jpeg,0,11,11,11,0,3,3,3,1380.5817561149997,None,1380.5817561149997,None,1,3.1233932189998086,1380.5817561149997,None,1383.7388936279995,None,1383.7388936279995,None,1386.2424505129993,None,1386.2424505129993,None,0.8832172110005558,1388.0475064869997,None,1388.0475064869997,None,6,1,0.7842260610004814,1388.9153438059993,None,1388.9153438059993,None,1388.9153438059993,None,1389.7162584970001,None,1,0.4007246090004628,1389.7162584970001,None,116,1390.1337209619996,None,103,A,1,2021_May_20_0924,GazeFlow,2020.1.2,59.880837253531894,
12,Block503.xls,A,3,5,103,43,22,incongruent,Left,Right,Left,39,38,1,blue,2,5,/home/docky/apps/exp/images/39Bi.jpeg,/home/docky/apps/exp/images/38B.jpeg,0,11,11,11,0,4,4,4,1391.1358221579994,None,1391.1358221579994,None,1,3.9924252760001764,1391.1358221579994,None,1395.1611965779994,None,1395.1611965779994,None,1397.663961157,None,1397.663961157,None,1.0501420939999662,1399.4662603779998,None,1399.4662603779998,None,5,1,0.8006533970001328,1400.5045076249999,None,1400.5045076249999,None,1400.5045076249999,None,1401.321830039,None,1,0.5352725359998658,1401.321830039,None,118,1401.8736114009998,None,103,A,1,2021_May_20_0924,GazeFlow,2020.1.2,59.880837253531894,
12,Block503.xls,A,3,6,47,47,12,congruent,Right,Right,Left,35,33,2,yellow,2,5,/home/docky/apps/exp/images/35Yi.jpeg,/home/docky/apps/exp/images/33Y.jpeg,0,11,11,11,0,5,5,5,1402.8749608899998,None,1402.8749608899998,None,1,2.9899612580002213,1402.8749608899998,None,1405.8986289579998,None,1405.8986289579998,None,1408.4033741759995,None,1408.4033741759995,None,0.9167343010003606,1410.207266884,None,1410.207266884,None,5,1,0.8178093019996595,1411.1083678559999,None,1411.1083678559999,None,1411.1083678559999,None,1411.9425908419998,None,1,0.551920703000178,1411.9425908419998,None,120,1412.5109904029996,None,103,A,1,2021_May_20_0924,GazeFlow,2020.1.2,59.880837253531894,
12,Block503.xls,A,3,7,20,20,11,congruent,Left,Left,Right,65,66,1,yellow,2,6,/home/docky/apps/exp/images/35Bi.jpeg,/home/docky/apps/exp/images/66Y.jpeg,0,11,11,11,0,6,6,6,1413.5124902059997,None,1413.5124902059997,None,1,2.705969636000191,1413.5124902059997,None,1416.2521868529993,None,1416.2521868529993,None,1418.7568311169998,None,1418.7568311169998,None,0.8821681280005578,1420.5603093290001,None,1420.5603093290001,None,5,0,0.8346867149994068,1421.428372708,None,1421.428372708,None,1421.428372708,None,1422.2794716979997,None,1,0.6513414259998171,1422.2794716979997,None,118,1422.9474714899998,None,103,A,1,2021_May_20_0924,GazeFlow,2020.1.2,59.880837253531894,
12,Block503.xls,A,3,8,27,27,11,congruent,Left,Left,Right,72,77,5,yellow,2,6,/home/docky/apps/exp/images/72Yi.jpeg,/home/docky/apps/exp/images/77Y.jpeg,0,11,11,11,0,7,7,7,1423.9492668510002,None,1423.9492668510002,None,1,2.639266735000092,1423.9492668510002,None,1426.620759069,None,1426.620759069,None,1429.1273153920001,None,1429.1273153920001,None,0.9667741200000819,1430.9304331129997,None,1430.9304331129997,None,6,1,0.8010403800008135,1431.8819699389996,None,1431.8819699389996,None,1431.8819699389996,None,1432.69984329,None,1,0.4842256299998553,1432.69984329,None,120,1433.20058815,None,103,A,1,2021_May_20_0924,GazeFlow,2020.1.2,59.880837253531894,
12,Block503.xls,A,,,,,,,,,,,,,,,,,,0,11,11,11,,,,,,,,,,,,,,,,,,,,,,,,,,,,,,,,,,,,,,,,,,,,103,A,1,2021_May_20_0924,GazeFlow,2020.1.2,59.880837253531894,
13,Block501.xls,A,1,1,54,54,12,congruent,Right,Right,Left,75,69,6,yellow,2,5,/home/docky/apps/exp/images/76Y.jpeg,/home/docky/apps/exp/images/69Yi.jpeg,0,12,12,12,0,0,0,0,1455.9629815239996,None,1455.9629815239996,None,1,4.984239565999815,1455.9629815239996,None,1460.975961788,None,1460.975961788,None,1463.493840999,None,1463.493840999,None,0.8493360060001578,1465.2959170909999,None,1465.2959170909999,None,5,1,0.8346671120007159,1466.1318025789997,None,1466.1318025789997,None,1466.1318025789997,None,1466.9830641059998,None,1,0.5178391520003061,1466.9830641059998,None,122,1467.517578977,None,103,A,1,2021_May_20_0924,GazeFlow,2020.1.2,59.880837253531894,
13,Block501.xls,A,1,2,70,10,21,incongruent,Right,Left,Right,73,76,3,blue,2,6,/home/docky/apps/exp/images/73Bi.jpeg,/home/docky/apps/exp/images/76B.jpeg,0,12,12,12,0,1,1,1,1468.519205957,None,1468.519205957,None,1,2.3724652350001634,1468.519205957,None,1470.9248192559999,None,1470.9248192559999,None,1473.4279915729994,None,1473.4279915729994,None,0.8835172040007819,1475.2311393199998,None,1475.2311393199998,None,6,1,0.8345654900003865,1476.1012737699994,None,1476.1012737699994,None,1476.1012737699994,None,1476.952372195,None,1,0.46756465599992225,1476.952372195,None,124,1477.436493657,None,103,A,1,2021_May_20_0924,GazeFlow,2020.1.2,59.880837253531894,
13,Block501.xls,A,1,3,84,24,21,incongruent,Right,Left,Right,69,76,7,yellow,2,6,/home/docky/apps/exp/images/69Yi.jpeg,/home/docky/apps/exp/images/76Y.jpeg,0,12,12,12,0,2,2,2,1478.4385967990002,None,1478.4385967990002,None,1,2.2887778240001353,1478.4385967990002,None,1480.7633772489999,None,1480.7633772489999,None,1483.2634450730002,None,1483.2634450730002,None,0.9000846830003866,1485.0674725749996,None,1485.0674725749996,None,6,1,0.8682276979998278,1485.9536561719997,None,1485.9536561719997,None,1485.9536561719997,None,1486.8382250739996,None,1,0.5012706329998764,1486.8382250739996,None,126,1487.3561903629998,None,103,A,1,2021_May_20_0924,GazeFlow,2020.1.2,59.880837253531894,
13,Block501.xls,A,1,4,26,26,11,congruent,Left,Left,Right,69,75,6,yellow,2,6,/home/docky/apps/exp/images/69Y.jpeg,/home/docky/apps/exp/images/76Yi.jpeg,0,12,12,12,0,3,3,3,1488.3578697049998,None,1488.3578697049998,None,1,2.555499219000012,1488.3578697049998,None,1490.9472859379994,None,1490.9472859379994,None,1493.4505261249997,None,1493.4505261249997,None,0.8004067419997227,1495.2536090879994,None,1495.2536090879994,None,6,1,0.8346422180002264,1496.0399555369995,None,1496.0399555369995,None,1496.0399555369995,None,1496.8912157609993,None,1,0.46743322600013926,1496.8912157609993,None,128,1497.375238232,None,103,A,1,2021_May_20_0924,GazeFlow,2020.1.2,59.880837253531894,
13,Block501.xls,A,1,5,97,37,22,incongruent,Left,Right,Left,79,73,6,blue,2,5,/home/docky/apps/exp/images/79B.jpeg,/home/docky/apps/exp/images/73Bi.jpeg,0,12,12,12,0,4,4,4,1498.3772005889996,None,1498.3772005889996,None,1,2.0553305359999285,1498.3772005889996,None,1500.4659086349993,None,1500.4659086349993,None,1502.9690605189999,None,1502.9690605189999,None,1.0333530739999333,1504.7668331839996,None,1504.7668331839996,None,5,1,0.934791636999762,1505.792383733,None,1505.792383733,None,1505.792383733,None,1506.743392583,None,1,0.5856577659997129,1506.743392583,None,130,1507.3450490989999,None,103,A,1,2021_May_20_0924,GazeFlow,2020.1.2,59.880837253531894,
13,Block501.xls,A,1,6,98,38,22,incongruent,Left,Right,Left,79,73,6,blue,2,5,/home/docky/apps/exp/images/79B.jpeg,/home/docky/apps/exp/images/73Bi.jpeg,0,12,12,12,0,5,5,5,1508.3466813759997,None,1508.3466813759997,None,1,2.5223753410000427,1508.3466813759997,None,1510.9027010399996,None,1510.9027010399996,None,1513.4060175819995,None,1513.4060175819995,None,0.9334233219997259,1515.2095459169996,None,1515.2095459169996,None,5,1,0.9350842519997968,1516.1289665449995,None,1516.1289665449995,None,1516.1289665449995,None,1517.080449229,None,1,0.5852339610000854,1517.080449229,None,132,1517.6817173149993,None,103,A,1,2021_May_20_0924,GazeFlow,2020.1.2,59.880837253531894,
13,Block501.xls,A,1,7,77,17,21,incongruent,Right,Left,Right,65,66,1,yellow,2,6,/home/docky/apps/exp/images/35B.jpeg,/home/docky/apps/exp/images/66Yi.jpeg,0,12,12,12,0,6,6,6,1518.6834018589998,None,1518.6834018589998,None,1,2.088107356999899,1518.6834018589998,None,1520.804745628,None,1520.804745628,None,1523.3110366149995,None,1523.3110366149995,None,0.7327116569995269,1525.1116339169994,None,1525.1116339169994,None,6,1,0.9848776180006098,1525.8311774289996,None,1525.8311774289996,None,1525.8311774289996,None,1526.8326411119997,None,1,0.4340147880002405,1526.8326411119997,None,134,1527.2833647319994,None,103,A,1,2021_May_20_0924,GazeFlow,2020.1.2,59.880837253531894,
13,Block501.xls,A,1,8,50,50,12,congruent,Right,Right,Left,66,65,1,yellow,2,5,/home/docky/apps/exp/images/66Y.jpeg,/home/docky/apps/exp/images/35Bi.jpeg,0,12,12,12,0,7,7,7,1528.2853523439999,None,1528.2853523439999,None,1,2.589154434000193,1528.2853523439999,None,1530.9128015979995,None,1530.9128015979995,None,1533.411623479,None,1533.411623479,None,0.9163544189996173,1535.214649226,None,1535.214649226,None,6,0,0.9014368280004419,1536.1175796369998,None,1536.1175796369998,None,1536.1175796369998,None,1537.0356949509996,None,1,0.4515237680006976,1537.0356949509996,None,132,1537.5037190530002,None,103,A,1,2021_May_20_0924,GazeFlow,2020.1.2,59.880837253531894,
13,Block501.xls,A,,,,,,,,,,,,,,,,,,0,12,12,12,,,,,,,,,,,,,,,,,,,,,,,,,,,,,,,,,,,,,,,,,,,,103,A,1,2021_May_20_0924,GazeFlow,2020.1.2,59.880837253531894,
14,Block513.xls,A,13,1,32,32,12,congruent,Right,Right,Left,19,16,3,blue,2,5,/home/docky/apps/exp/images/19B.jpeg,/home/docky/apps/exp/images/16Bi.jpeg,0,13,13,13,0,0,0,0,1564.6740492929994,None,1564.6740492929994,None,1,3.078566471999693,1564.6740492929994,None,1567.7814093959996,None,1567.7814093959996,None,1570.301434686,None,1570.301434686,None,0.832881897000334,1572.1047627889993,None,1572.1047627889993,None,5,1,2.0034672820002015,1572.9226502289994,None,1572.9226502289994,None,1572.9226502289994,None,1574.9428432679997,None,1,0.7850455829993734,1574.9428432679997,None,134,1575.744224657,None,103,A,1,2021_May_20_0924,GazeFlow,2020.1.2,59.880837253531894,
14,Block513.xls,A,13,2,81,21,21,incongruent,Right,Left,Right,38,39,1,yellow,2,6,/home/docky/apps/exp/images/38Yi.jpeg,/home/docky/apps/exp/images/39Y.jpeg,0,13,13,13,0,1,1,1,1576.746596201,None,1576.746596201,None,1,2.6058741629994984,1576.746596201,None,1579.3858739309999,None,1579.3858739309999,None,1581.889018752,None,1581.889018752,None,0.9335937490004653,1583.6865301099997,None,1583.6865301099997,None,6,1,0.8173722010005804,1584.6121521289997,None,1584.6121521289997,None,1584.6121521289997,None,1585.4466765959996,None,1,0.4509385720002683,1585.4466765959996,None,136,1585.9140955619996,None,103,A,1,2021_May_20_0924,GazeFlow,2020.1.2,59.880837253531894,
14,Block513.xls,A,13,3,92,32,22,incongruent,Left,Right,Left,19,16,3,blue,2,5,/home/docky/apps/exp/images/19B.jpeg,/home/docky/apps/exp/images/16Bi.jpeg,0,13,13,13,0,2,2,2,1586.9160156019998,None,1586.9160156019998,None,1,2.4556789799999024,1586.9160156019998,None,1589.4036041599993,None,1589.4036041599993,None,1591.907316541,None,1591.907316541,None,0.799829943000077,1593.7058851869997,None,1593.7058851869997,None,5,1,0.9514849580000373,1594.4977175949998,None,1594.4977175949998,None,1594.4977175949998,None,1595.4657036869994,None,1,0.5850518019997253,1595.4657036869994,None,138,1596.0674449929993,None,103,A,1,2021_May_20_0924,GazeFlow,2020.1.2,59.880837253531894,
14,Block513.xls,A,13,4,6,6,11,congruent,Left,Left,Right,65,66,1,blue,2,6,/home/docky/apps/exp/images/35Y.jpeg,/home/docky/apps/exp/images/66Bi.jpeg,0,13,13,13,0,3,3,3,1597.069038744,None,1597.069038744,None,1,2.706006016000174,1597.069038744,None,1599.8092929229997,None,1599.8092929229997,None,1602.3133564189993,None,1602.3133564189993,None,1.1171004400002857,1604.1152090360001,None,1604.1152090360001,None,6,1,0.9015036390001114,1605.2186472839994,None,1605.2186472839994,None,1605.2186472839994,None,1606.1365358449993,None,1,0.435134079000818,1606.1365358449993,None,140,1606.5878545269998,None,103,A,1,2021_May_20_0924,GazeFlow,2020.1.2,59.880837253531894,
14,Block513.xls,A,13,5,67,7,21,incongruent,Right,Left,Right,38,39,1,blue,2,6,/home/docky/apps/exp/images/38Bi.jpeg,/home/docky/apps/exp/images/39B.jpeg,0,13,13,13,0,4,4,4,1607.5892031879994,None,1607.5892031879994,None,1,3.558422058999895,1607.5892031879994,None,1611.1808881529996,None,1611.1808881529996,None,1613.6855851539995,None,1613.6855851539995,None,0.8499913890000244,1615.486970037,None,1615.486970037,None,6,1,1.001764581000316,1616.3236496299996,None,1616.3236496299996,None,1616.3236496299996,None,1617.3416344609996,None,1,0.45165163799993024,1617.3416344609996,None,142,1617.8097509589998,None,103,A,1,2021_May_20_0924,GazeFlow,2020.1.2,59.880837253531894,
14,Block513.xls,A,13,6,111,51,22,incongruent,Left,Right,Left,66,65,1,yellow,2,5,/home/docky/apps/exp/images/66Yi.jpeg,/home/docky/apps/exp/images/35B.jpeg,0,13,13,13,0,5,5,5,1618.8111141239997,None,1618.8111141239997,None,1,2.8563898259999405,1618.8111141239997,None,1621.7011615989995,None,1621.7011615989995,None,1624.2039588239995,None,1624.2039588239995,None,0.8333363639994786,1626.0081729079993,None,1626.0081729079993,None,5,1,0.8345146050005496,1626.8274442619995,None,1626.8274442619995,None,1626.8274442619995,None,1627.678437642,None,1,0.5343174729996463,1627.678437642,None,144,1628.2294417369994,None,103,A,1,2021_May_20_0924,GazeFlow,2020.1.2,59.880837253531894,
14,Block513.xls,A,13,7,88,28,21,incongruent,Right,Left,Right,79,82,3,yellow,2,6,/home/docky/apps/exp/images/79Y.jpeg,/home/docky/apps/exp/images/80Yi.jpeg,0,13,13,13,0,6,6,6,1629.2313155359998,None,1629.2313155359998,None,1,2.9586179970001467,1629.2313155359998,None,1632.2229162129997,None,1632.2229162129997,None,1634.724931928,None,1634.724931928,None,0.8497404979998464,1636.528372932,None,1636.528372932,None,5,0,0.9344151690002036,1637.3646428539996,None,1637.3646428539996,None,1637.3646428539996,None,1638.3157670639994,None,1,0.5182987609996417,1638.3157670639994,None,142,1638.8505241109997,None,103,A,1,2021_May_20_0924,GazeFlow,2020.1.2,59.880837253531894,
14,Block513.xls,A,13,8,14,14,11,congruent,Left,Left,Right,80,83,3,blue,2,6,/home/docky/apps/exp/images/80B.jpeg,/home/docky/apps/exp/images/83Bi.jpeg,0,13,13,13,0,7,7,7,1639.8519928389996,None,1639.8519928389996,None,1,2.973241018000408,1639.8519928389996,None,1642.8575620949996,None,1642.8575620949996,None,1645.3639451109993,None,1645.3639451109993,None,0.766510673999619,1647.1653450309996,None,1647.1653450309996,None,6,1,0.8678554370007987,1647.918455393,None,1647.918455393,None,1647.918455393,None,1648.8029222449995,None,1,0.4511702990002959,1648.8029222449995,None,144,1649.2703955039997,None,103,A,1,2021_May_20_0924,GazeFlow,2020.1.2,59.880837253531894,
14,Block513.xls,A,,,,,,,,,,,,,,,,,,0,13,13,13,,,,,,,,,,,,,,,,,,,,,,,,,,,,,,,,,,,,,,,,,,,,103,A,1,2021_May_20_0924,GazeFlow,2020.1.2,59.880837253531894,
15,Block514.xls,A,14,1,113,53,22,incongruent,Left,Right,Left,75,69,6,yellow,2,5,/home/docky/apps/exp/images/76Y.jpeg,/home/docky/apps/exp/images/69Yi.jpeg,0,14,14,14,0,0,0,0,1671.898782108,None,1671.898782108,None,1,3.846339978999822,1671.898782108,None,1675.777167878,None,1675.777167878,None,1678.2943297109996,None,1678.2943297109996,None,0.8827348020004138,1680.096731089,None,1680.096731089,None,5,1,0.8679732749997129,1680.9658254709993,None,1680.9658254709993,None,1680.9658254709993,None,1681.8503847040001,None,1,0.6019181000001481,1681.8503847040001,None,146,1682.4687298909994,None,103,A,1,2021_May_20_0924,GazeFlow,2020.1.2,59.880837253531894,
15,Block514.xls,A,14,2,45,45,12,congruent,Right,Right,Left,39,38,1,blue,2,5,/home/docky/apps/exp/images/39B.jpeg,/home/docky/apps/exp/images/38Bi.jpeg,0,14,14,14,0,1,1,1,1683.4702567939994,None,1683.4702567939994,None,1,2.4391680089993315,1683.4702567939994,None,1685.9427249149994,None,1685.9427249149994,None,1688.4457696949994,None,1688.4457696949994,None,0.816414165000424,1690.249592407,None,1690.249592407,None,5,1,0.7841848620000746,1691.0521603729994,None,1691.0521603729994,None,1691.0521603729994,None,1691.853283241,None,1,0.4340567219996956,1691.853283241,None,148,1692.3038343009994,None,103,A,1,2021_May_20_0924,GazeFlow,2020.1.2,59.880837253531894,
15,Block514.xls,A,14,3,52,52,12,congruent,Right,Right,Left,75,69,6,yellow,2,5,/home/docky/apps/exp/images/76Y.jpeg,/home/docky/apps/exp/images/69Yi.jpeg,0,14,14,14,0,2,2,2,1693.3058371259995,None,1693.3058371259995,None,1,1.9724135739998019,1693.3058371259995,None,1695.3109852039997,None,1695.3109852039997,None,1697.814061424,None,1697.814061424,None,0.933258200999262,1699.6190982809994,None,1699.6190982809994,None,5,1,0.8009590680003384,1700.5375994349997,None,1700.5375994349997,None,1700.5375994349997,None,1701.3548534949996,None,1,0.5513792950005154,1701.3548534949996,None,150,1701.9231109049997,None,103,A,1,2021_May_20_0924,GazeFlow,2020.1.2,59.880837253531894,
15,Block514.xls,A,14,4,106,46,22,incongruent,Left,Right,Left,35,33,2,yellow,2,5,/home/docky/apps/exp/images/35Yi.jpeg,/home/docky/apps/exp/images/33Y.jpeg,0,14,14,14,0,3,3,3,1702.924677506,None,1702.924677506,None,1,2.3552717469992785,1702.924677506,None,1705.3136145519993,None,1705.3136145519993,None,1707.816726336,None,1707.816726336,None,0.9504645070001061,1709.6197855199998,None,1709.6197855199998,None,6,0,0.7508026590003283,1710.5568953379998,None,1710.5568953379998,None,1710.5568953379998,None,1711.3243583849999,None,1,0.4173741439999503,1711.3243583849999,None,148,1711.758059324,None,103,A,1,2021_May_20_0924,GazeFlow,2020.1.2,59.880837253531894,
15,Block514.xls,A,14,5,109,49,22,incongruent,Left,Right,Left,39,38,1,yellow,2,5,/home/docky/apps/exp/images/39Yi.jpeg,/home/docky/apps/exp/images/38Y.jpeg,0,14,14,14,0,4,4,4,1712.7604032939998,None,1712.7604032939998,None,1,2.4389232369994716,1712.7604032939998,None,1715.2255623629999,None,1715.2255623629999,None,1717.735938961,None,1717.735938961,None,0.91649596499974,1719.5400858719995,None,1719.5400858719995,None,6,0,0.7842827059994306,1720.4423196819998,None,1720.4423196819998,None,1720.4423196819998,None,1721.2436823839998,None,1,0.4171329730006619,1721.2436823839998,None,146,1721.6777553040001,None,103,A,1,2021_May_20_0924,GazeFlow,2020.1.2,59.880837253531894,
15,Block514.xls,A,14,6,89,29,21,incongruent,Right,Left,Right,79,82,3,yellow,2,6,/home/docky/apps/exp/images/79Yi.jpeg,/home/docky/apps/exp/images/80Y.jpeg,0,14,14,14,0,5,5,5,1722.6796389239998,None,1722.6796389239998,None,1,2.605831255999874,1722.6796389239998,None,1725.317340038,None,1725.317340038,None,1727.8222341789997,None,1727.8222341789997,None,1.150509435999993,1729.625847659,None,1729.625847659,None,6,1,0.851119042999926,1730.762802188,None,1730.762802188,None,1730.762802188,None,1731.630609115,None,1,0.3677972099994804,1731.630609115,None,148,1732.0148959819999,None,103,A,1,2021_May_20_0924,GazeFlow,2020.1.2,59.880837253531894,
15,Block514.xls,A,14,7,91,31,22,incongruent,Left,Right,Left,19,16,3,blue,2,5,/home/docky/apps/exp/images/19Bi.jpeg,/home/docky/apps/exp/images/16B.jpeg,0,14,14,14,0,6,6,6,1733.016277146,None,1733.016277146,None,1,3.2910057489998508,1733.016277146,None,1736.340656294,None,1736.340656294,None,1738.8286711559995,None,1738.8286711559995,None,1.3341602250002325,1740.6464904519999,None,1740.6464904519999,None,5,1,0.7506969020005272,1741.967995639,None,1741.967995639,None,1741.967995639,None,1742.7351958689997,None,1,0.5352469990002646,1742.7351958689997,None,150,1743.2864045830001,None,103,A,1,2021_May_20_0924,GazeFlow,2020.1.2,59.880837253531894,
15,Block514.xls,A,14,8,79,19,21,incongruent,Right,Left,Right,62,65,3,yellow,2,6,/home/docky/apps/exp/images/38B.jpeg,/home/docky/apps/exp/images/35Bi.jpeg,0,14,14,14,0,7,7,7,1744.2884614670002,None,1744.2884614670002,None,1,2.656117317999815,1744.2884614670002,None,1746.9778766959998,None,1746.9778766959998,None,1749.4824036179998,None,1749.4824036179998,None,1.2169884690001709,1751.2841738859997,None,1751.2841738859997,None,6,1,0.8010370860001785,1752.4881030239994,None,1752.4881030239994,None,1752.4881030239994,None,1753.3057868699998,None,1,0.4676187499999287,1753.3057868699998,None,152,1753.7902150069995,None,103,A,1,2021_May_20_0924,GazeFlow,2020.1.2,59.880837253531894,
15,Block514.xls,A,,,,,,,,,,,,,,,,,,0,14,14,14,,,,,,,,,,,,,,,,,,,,,,,,,,,,,,,,,,,,,,,,,,,,103,A,1,2021_May_20_0924,GazeFlow,2020.1.2,59.880837253531894,
