Nblock,condsFile,grouping,Block,TrialBlock,N,trialN,trialCond,gazeCon,gazedirR,corrBinR,corrBinP,valLBY,valRBY,diff,colorCube,feedbacktext,corrAns,imageL,imageR,SelBlocks.thisRepN,SelBlocks.thisTrialN,SelBlocks.thisN,SelBlocks.thisIndex,Trials.thisRepN,Trials.thisTrialN,Trials.thisN,Trials.thisIndex,waitCube.started,waitCube.stopped,text_3.started,text_3.stopped,StartKeyPress.keys,StartKeyPress.rt,StartKeyPress.started,StartKeyPress.stopped,StimL.started,StimL.stopped,StimR.started,StimR.stopped,imageStim2L.started,imageStim2L.stopped,imageStim2R.started,imageStim2R.stopped,RTkeyRelease,imageStim3L.started,imageStim3L.stopped,imageStim3R.started,imageStim3R.stopped,dropResp.keys,dropResp.corr,dropResp.rt,dropResp.started,dropResp.stopped,imageStim5L.started,imageStim5L.stopped,imageStim5R.started,imageStim5R.stopped,text_2.started,text_2.stopped,ReturnSpace.keys,ReturnSpace.rt,ReturnSpace.started,ReturnSpace.stopped,totalpoints,textFeedback.started,textFeedback.stopped,participant,group,session,date,expName,psychopyVersion,frameRate,
1,Block809.xls,B,9,1,93,93,None,congruent,Right,Right,Left,80,79,1,yellow,2,5,/home/docky/apps/exp/images/80Y.jpeg,/home/docky/apps/exp/images/79Yi.jpeg,0,0,0,0,0,0,0,0,45.2237454469996,None,45.2237454469996,None,1,27.358128055000634,45.2237454469996,None,72.61550046600132,None,72.61550046600132,None,75.1305381860002,None,75.1305381860002,None,1.416871376999552,76.9351677070008,None,76.9351677070008,None,6,0,1.2357763999989402,78.33486354200068,None,78.33486354200068,None,78.33486354200068,None,79.58728559600058,None,1,0.8679236059997493,79.58728559600058,None,-2,80.4719503360011,None,104,B,1,2021_May_20_1047,GazeFlow,2020.1.2,59.88803859309933,
1,Block809.xls,B,9,2,15,15,None,congruent,Left,Left,Right,38,39,1,blue,2,6,/home/docky/apps/exp/images/38B.jpeg,/home/docky/apps/exp/images/39Bi.jpeg,0,0,0,0,0,1,1,1,81.47421395099991,None,81.47421395099991,None,1,4.525407057000848,81.47421395099991,None,86.03627049100032,None,86.03627049100032,None,88.53644126400104,None,88.53644126400104,None,1.0169368919996487,90.34009361000062,None,90.34009361000062,None,6,1,1.0846294969996961,91.34368786800042,None,91.34368786800042,None,91.34368786800042,None,92.44492186500065,None,1,0.7689567369998258,92.44492186500065,None,0,93.23027894600091,None,104,B,1,2021_May_20_1047,GazeFlow,2020.1.2,59.88803859309933,
1,Block809.xls,B,9,3,117,21,None,incongruent,Left,Right,Left,39,38,1,yellow,2,5,/home/docky/apps/exp/images/39Yi.jpeg,/home/docky/apps/exp/images/38Y.jpeg,0,0,0,0,0,2,2,2,94.23183536000033,None,94.23183536000033,None,1,4.6930512039998575,94.23183536000033,None,98.96092255300027,None,98.96092255300027,None,101.46335268500115,None,101.46335268500115,None,1.0837051839989726,103.26560360900112,None,103.26560360900112,None,6,0,1.2683183270000882,104.33561460199962,None,104.33561460199962,None,104.33561460199962,None,105.62057166200066,None,1,0.7682767870010139,105.62057166200066,None,-2,106.40539988099954,None,104,B,1,2021_May_20_1047,GazeFlow,2020.1.2,59.88803859309933,
1,Block809.xls,B,9,4,94,94,None,congruent,Right,Right,Left,80,79,1,yellow,2,5,/home/docky/apps/exp/images/80Y.jpeg,/home/docky/apps/exp/images/79Yi.jpeg,0,0,0,0,0,3,3,3,107.4076381570012,None,107.4076381570012,None,1,4.710029818999828,107.4076381570012,None,112.1514420550011,None,112.1514420550011,None,114.65594346000034,None,114.65594346000034,None,1.033203307999429,116.45684806400095,None,116.45684806400095,None,5,1,1.1515377840005385,117.47760898500019,None,117.47760898500019,None,117.47760898500019,None,118.64573146899966,None,1,4.175425814000846,118.64573146899966,None,0,122.837744415001,None,104,B,1,2021_May_20_1047,GazeFlow,2020.1.2,59.88803859309933,
1,Block809.xls,B,9,5,41,41,None,congruent,Right,Right,Left,79,76,3,blue,2,5,/home/docky/apps/exp/images/79Bi.jpeg,/home/docky/apps/exp/images/76B.jpeg,0,0,0,0,0,4,4,4,123.83961804399951,None,123.83961804399951,None,1,3.4737693010010844,123.83961804399951,None,127.34739508600069,None,127.34739508600069,None,129.85648788800063,None,129.85648788800063,None,1.4673354420010583,131.64887653500045,None,131.64887653500045,None,6,0,1.1521774980010377,133.10801581300075,None,133.10801581300075,None,133.10801581300075,None,134.2766021790012,None,1,0.8512882680006442,134.2766021790012,None,-2,135.1447469550003,None,104,B,1,2021_May_20_1047,GazeFlow,2020.1.2,59.88803859309933,
1,Block809.xls,B,9,6,36,36,None,congruent,Right,Right,Left,79,73,6,blue,2,5,/home/docky/apps/exp/images/79Bi.jpeg,/home/docky/apps/exp/images/73B.jpeg,0,0,0,0,0,5,5,5,136.14687339600096,None,136.14687339600096,None,1,4.743067624000105,136.14687339600096,None,140.9265670950008,None,140.9265670950008,None,143.42805657200006,None,143.42805657200006,None,1.1338065479994839,145.2316133330005,None,145.2316133330005,None,5,1,1.1684908129991527,146.35025229300118,None,146.35025229300118,None,146.35025229300118,None,147.53604980199998,None,1,0.8341709340002126,147.53604980199998,None,0,148.38679254400085,None,104,B,1,2021_May_20_1047,GazeFlow,2020.1.2,59.88803859309933,
1,Block809.xls,B,9,7,78,78,None,congruent,Right,Right,Left,39,38,1,yellow,2,5,/home/docky/apps/exp/images/39Yi.jpeg,/home/docky/apps/exp/images/38Y.jpeg,0,0,0,0,0,6,6,6,149.3888614790012,None,149.3888614790012,None,1,5.093982125999901,149.3888614790012,None,154.51683326400052,None,154.51683326400052,None,157.02151596099975,None,157.02151596099975,None,2.219121960000848,158.81856875999983,None,158.81856875999983,None,5,1,1.335213754000506,161.02891975400053,None,161.02891975400053,None,161.02891975400053,None,162.38094147800075,None,1,1.1024730720000662,162.38094147800075,None,2,163.4999286630009,None,104,B,1,2021_May_20_1047,GazeFlow,2020.1.2,59.88803859309933,
1,Block809.xls,B,9,8,29,29,None,congruent,Right,Right,Left,38,35,3,blue,2,5,/home/docky/apps/exp/images/38B.jpeg,/home/docky/apps/exp/images/35Bi.jpeg,0,0,0,0,0,7,7,7,164.50209803500002,None,164.50209803500002,None,1,5.0433315909995144,164.50209803500002,None,169.57909520800058,None,169.57909520800058,None,172.08396457600065,None,172.08396457600065,None,1.4674364760012395,173.8877080149996,None,173.8877080149996,None,5,1,1.1022289440006716,175.33988593300091,None,175.33988593300091,None,175.33988593300091,None,176.45884828400085,None,1,1.0018035880002572,176.45884828400085,None,4,177.47704493700076,None,104,B,1,2021_May_20_1047,GazeFlow,2020.1.2,59.88803859309933,
1,Block809.xls,B,,,,,,,,,,,,,,,,,,0,0,0,0,,,,,,,,,,,,,,,,,,,,,,,,,,,,,,,,,,,,,,,,,,,,104,B,1,2021_May_20_1047,GazeFlow,2020.1.2,59.88803859309933,
2,Block805.xls,B,5,1,16,16,None,congruent,Left,Left,Right,73,76,3,blue,2,6,/home/docky/apps/exp/images/73B.jpeg,/home/docky/apps/exp/images/76Bi.jpeg,0,1,1,1,0,0,0,0,198.28446590400017,None,198.28446590400017,None,1,6.620342232999974,198.28446590400017,None,204.93241235999994,None,204.93241235999994,None,207.45272597800067,None,207.45272597800067,None,1.1166972840001108,209.25650643399968,None,209.25650643399968,None,6,1,1.0847235720011668,210.35813398000028,None,210.35813398000028,None,210.35813398000028,None,211.45956049500091,None,1,0.8515731999996206,211.45956049500091,None,6,212.32789432299978,None,104,B,1,2021_May_20_1047,GazeFlow,2020.1.2,59.88803859309933,
2,Block805.xls,B,5,2,2,2,None,congruent,Left,Left,Right,16,19,3,blue,2,6,/home/docky/apps/exp/images/16B.jpeg,/home/docky/apps/exp/images/19Bi.jpeg,0,1,1,1,0,1,1,1,213.33016685999974,None,213.33016685999974,None,1,4.258522336000169,213.33016685999974,None,217.62254098500125,None,217.62254098500125,None,220.12603480799953,None,220.12603480799953,None,1.0669607110012294,221.93096245800007,None,221.93096245800007,None,6,1,1.268513590001021,222.98251617300048,None,222.98251617300048,None,222.98251617300048,None,224.26768687799995,None,1,0.952080733000912,224.26768687799995,None,8,225.23611604500002,None,104,B,1,2021_May_20_1047,GazeFlow,2020.1.2,59.88803859309933,
2,Block805.xls,B,5,3,64,64,None,congruent,Left,Left,Right,69,76,7,yellow,2,6,/home/docky/apps/exp/images/69Y.jpeg,/home/docky/apps/exp/images/76Yi.jpeg,0,1,1,1,0,2,2,2,226.23826357799953,None,226.23826357799953,None,1,4.56006090000119,226.23826357799953,None,230.8315894690004,None,230.8315894690004,None,233.3348864620002,None,233.3348864620002,None,1.2503781499999604,235.13773535099972,None,235.13773535099972,None,6,1,1.2193708300001163,236.37521841700072,None,236.37521841700072,None,236.37521841700072,None,237.61094385400065,None,1,0.8006683570001769,237.61094385400065,None,10,238.42862984699968,None,104,B,1,2021_May_20_1047,GazeFlow,2020.1.2,59.88803859309933,
2,Block805.xls,B,5,4,61,61,None,congruent,Left,Left,Right,38,39,1,yellow,2,6,/home/docky/apps/exp/images/38Yi.jpeg,/home/docky/apps/exp/images/39Y.jpeg,0,1,1,1,0,3,3,3,239.43028435700035,None,239.43028435700035,None,1,5.044523083999593,239.43028435700035,None,244.50798100599968,None,244.50798100599968,None,247.01302844699967,None,247.01302844699967,None,1.2336124980010936,248.80974644799971,None,248.80974644799971,None,5,0,1.1690503259997058,250.03500332400108,None,250.03500332400108,None,250.03500332400108,None,251.22028031300033,None,1,1.085167145000014,251.22028031300033,None,8,252.3221358130013,None,104,B,1,2021_May_20_1047,GazeFlow,2020.1.2,59.88803859309933,
2,Block805.xls,B,5,5,23,23,None,congruent,Left,Left,Right,80,83,3,blue,2,6,/home/docky/apps/exp/images/80B.jpeg,/home/docky/apps/exp/images/83Bi.jpeg,0,1,1,1,0,4,4,4,253.3241771440007,None,253.3241771440007,None,1,4.659850698999435,253.3241771440007,None,258.0183219419996,None,258.0183219419996,None,260.52239609500066,None,260.52239609500066,None,1.3842339620005077,262.3246110780001,None,262.3246110780001,None,6,1,1.1850212129993452,263.694742656,None,263.694742656,None,263.694742656,None,264.8966073880001,None,1,1.085430291999728,264.8966073880001,None,10,265.99877231900064,None,104,B,1,2021_May_20_1047,GazeFlow,2020.1.2,59.88803859309933,
2,Block805.xls,B,5,6,87,87,None,congruent,Right,Right,Left,76,69,7,yellow,2,5,/home/docky/apps/exp/images/76Yi.jpeg,/home/docky/apps/exp/images/69Y.jpeg,0,1,1,1,0,5,5,5,267.00139468999987,None,267.00139468999987,None,1,4.341967389000274,267.00139468999987,None,271.37752073000047,None,271.37752073000047,None,273.8801283619996,None,273.8801283619996,None,1.4342885379992367,275.67796651200115,None,275.67796651200115,None,5,1,1.1852303180003219,277.1044473439997,None,277.1044473439997,None,277.1044473439997,None,278.306386829001,None,1,1.6693951220004237,278.306386829001,None,12,279.992661530001,None,104,B,1,2021_May_20_1047,GazeFlow,2020.1.2,59.88803859309933,
2,Block805.xls,B,5,7,4,4,None,congruent,Left,Left,Right,35,38,3,blue,2,6,/home/docky/apps/exp/images/35B.jpeg,/home/docky/apps/exp/images/38Bi.jpeg,0,1,1,1,0,6,6,6,280.99500185800025,None,280.99500185800025,None,1,3.874357411999881,280.99500185800025,None,284.90353429900097,None,284.90353429900097,None,287.40791049400104,None,287.40791049400104,None,1.4176429209983326,289.21016026300094,None,289.21016026300094,None,6,1,1.1026951799995004,290.6137614520012,None,290.6137614520012,None,290.6137614520012,None,291.7323928090009,None,1,1.2854712469998049,291.7323928090009,None,14,293.0347743359998,None,104,B,1,2021_May_20_1047,GazeFlow,2020.1.2,59.88803859309933,
2,Block805.xls,B,5,8,114,18,None,incongruent,Right,Left,Right,79,82,3,yellow,2,6,/home/docky/apps/exp/images/79Y.jpeg,/home/docky/apps/exp/images/80Yi.jpeg,0,1,1,1,0,7,7,7,294.036904175,None,294.036904175,None,1,5.310685444999763,294.036904175,None,299.3815440510007,None,299.3815440510007,None,301.88422642099977,None,301.88422642099977,None,1.751959204000741,303.6823427140007,None,303.6823427140007,None,6,1,1.3688625369995862,305.4260671789998,None,305.4260671789998,None,305.4260671789998,None,306.8114457970005,None,1,0.768058347999613,306.8114457970005,None,16,307.5961744570013,None,104,B,1,2021_May_20_1047,GazeFlow,2020.1.2,59.88803859309933,
2,Block805.xls,B,,,,,,,,,,,,,,,,,,0,1,1,1,,,,,,,,,,,,,,,,,,,,,,,,,,,,,,,,,,,,,,,,,,,,104,B,1,2021_May_20_1047,GazeFlow,2020.1.2,59.88803859309933,
3,Block804.xls,B,4,1,95,95,None,congruent,Right,Right,Left,80,79,1,yellow,2,5,/home/docky/apps/exp/images/80Yi.jpeg,/home/docky/apps/exp/images/79Y.jpeg,0,2,2,2,0,0,0,0,332.49503716599975,None,332.49503716599975,None,1,7.1062265260006825,332.49503716599975,None,339.6298894629999,None,339.6298894629999,None,342.1476593110001,None,342.1476593110001,None,1.0997326229989994,343.9513460779999,None,343.9513460779999,None,5,1,1.0849401270006638,345.0361295120001,None,345.0361295120001,None,345.0361295120001,None,346.13751411200064,None,1,1.0526305910007068,346.13751411200064,None,18,347.20619981300115,None,104,B,1,2021_May_20_1047,GazeFlow,2020.1.2,59.88803859309933,
3,Block804.xls,B,4,2,107,11,None,incongruent,Left,Right,Left,83,80,3,blue,2,5,/home/docky/apps/exp/images/83Bi.jpeg,/home/docky/apps/exp/images/80B.jpeg,0,2,2,2,0,1,1,1,348.20832560500094,None,348.20832560500094,None,1,3.741471912000634,348.20832560500094,None,351.98347227700106,None,351.98347227700106,None,354.4868844040011,None,354.4868844040011,None,1.317336885000259,356.29013315799966,None,356.29013315799966,None,5,1,1.3526519249990088,357.5939170340007,None,357.5939170340007,None,357.5939170340007,None,358.963184096001,None,1,1.0518498320016079,358.963184096001,None,20,360.0313548230006,None,104,B,1,2021_May_20_1047,GazeFlow,2020.1.2,59.88803859309933,
3,Block804.xls,B,4,3,27,27,None,congruent,Right,Right,Left,19,16,3,blue,2,5,/home/docky/apps/exp/images/19Bi.jpeg,/home/docky/apps/exp/images/16B.jpeg,0,2,2,2,0,2,2,2,361.03379324600064,None,361.03379324600064,None,1,3.9249673039994377,361.03379324600064,None,364.99240533900047,None,364.99240533900047,None,367.4955858280009,None,367.4955858280009,None,1.5845543619998352,369.298694739,None,369.298694739,None,5,1,1.202522596999188,370.86969500000123,None,370.86969500000123,None,370.86969500000123,None,372.08857417200124,None,1,2.5052027349993296,372.08857417200124,None,22,374.6101171240007,None,104,B,1,2021_May_20_1047,GazeFlow,2020.1.2,59.88803859309933,
3,Block804.xls,B,4,4,101,5,None,incongruent,Right,Left,Right,76,79,3,blue,2,6,/home/docky/apps/exp/images/76B.jpeg,/home/docky/apps/exp/images/79Bi.jpeg,0,2,2,2,0,3,3,3,375.61205091600095,None,375.61205091600095,None,1,3.757638126000529,375.61205091600095,None,379.4019982099999,None,379.4019982099999,None,381.9064713940006,None,381.9064713940006,None,1.6681315139994695,383.70521879900116,None,383.70521879900116,None,6,1,1.2684825859996636,385.36452096799985,None,385.36452096799985,None,385.36452096799985,None,386.64958461199967,None,1,0.7349850970003899,386.64958461199967,None,24,387.40141761000086,None,104,B,1,2021_May_20_1047,GazeFlow,2020.1.2,59.88803859309933,
3,Block804.xls,B,4,5,47,47,None,congruent,Right,Right,Left,39,38,1,blue,2,5,/home/docky/apps/exp/images/39Bi.jpeg,/home/docky/apps/exp/images/38B.jpeg,0,2,2,2,0,4,4,4,388.4035414070004,None,388.4035414070004,None,1,4.175125980000303,388.4035414070004,None,392.6123004150013,None,392.6123004150013,None,395.11577870899964,None,395.11577870899964,None,1.5675693589982984,396.92095123500076,None,396.92095123500076,None,5,1,1.1855388849999144,398.47332086499955,None,398.47332086499955,None,398.47332086499955,None,399.67554137000116,None,1,0.7842044129993155,399.67554137000116,None,26,400.4766407220013,None,104,B,1,2021_May_20_1047,GazeFlow,2020.1.2,59.88803859309933,
3,Block804.xls,B,4,6,90,90,None,congruent,Right,Right,Left,77,72,5,yellow,2,5,/home/docky/apps/exp/images/77Yi.jpeg,/home/docky/apps/exp/images/72Y.jpeg,0,2,2,2,0,5,5,5,401.47837687799984,None,401.47837687799984,None,1,4.159397968000121,401.47837687799984,None,405.67226873800064,None,405.67226873800064,None,408.1741194160004,None,408.1741194160004,None,1.3508489050000207,409.9766059329995,None,409.9766059329995,None,5,1,1.4026297179989342,411.3149714459996,None,411.3149714459996,None,411.3149714459996,None,412.73411698900054,None,1,0.8345948179994593,412.73411698900054,None,28,413.5854839650001,None,104,B,1,2021_May_20_1047,GazeFlow,2020.1.2,59.88803859309933,
3,Block804.xls,B,4,7,12,12,None,congruent,Left,Left,Right,38,39,1,blue,2,6,/home/docky/apps/exp/images/38B.jpeg,/home/docky/apps/exp/images/39Bi.jpeg,0,2,2,2,0,6,6,6,414.58748180099974,None,414.58748180099974,None,1,5.394394781000301,414.58748180099974,None,420.01388255799975,None,420.01388255799975,None,422.520429016,None,422.520429016,None,1.3676307539990376,424.3239512649998,None,424.3239512649998,None,6,1,1.4198626409997814,425.67609965799966,None,425.67609965799966,None,425.67609965799966,None,427.11213192800096,None,1,0.9014940449997084,427.11213192800096,None,30,428.0303475010005,None,104,B,1,2021_May_20_1047,GazeFlow,2020.1.2,59.88803859309933,
3,Block804.xls,B,4,8,20,20,None,congruent,Left,Left,Right,76,79,3,blue,2,6,/home/docky/apps/exp/images/76Bi.jpeg,/home/docky/apps/exp/images/79B.jpeg,0,2,2,2,0,7,7,7,429.0324218019996,None,429.0324218019996,None,1,4.2921463090006,429.0324218019996,None,433.35803387099986,None,433.35803387099986,None,435.861530315,None,435.861530315,None,1.2337566530004551,437.660241556001,None,437.660241556001,None,6,1,1.4355725859986705,438.8851430699997,None,438.8851430699997,None,438.8851430699997,None,440.33716957100114,None,1,0.9355360860008659,440.33716957100114,None,32,441.28914349800107,None,104,B,1,2021_May_20_1047,GazeFlow,2020.1.2,59.88803859309933,
3,Block804.xls,B,,,,,,,,,,,,,,,,,,0,2,2,2,,,,,,,,,,,,,,,,,,,,,,,,,,,,,,,,,,,,,,,,,,,,104,B,1,2021_May_20_1047,GazeFlow,2020.1.2,59.88803859309933,
4,Block814.xls,B,14,1,99,3,None,incongruent,Right,Left,Right,65,66,1,blue,2,6,/home/docky/apps/exp/images/35Yi.jpeg,/home/docky/apps/exp/images/66B.jpeg,0,3,3,3,0,0,0,0,460.028011022001,None,460.028011022001,None,1,5.249531327999648,460.028011022001,None,465.3051230159999,None,465.3051230159999,None,467.825835343001,None,467.825835343001,None,1.667599541000527,469.62273691300106,None,469.62273691300106,None,6,1,1.4520905629997287,471.2813941180011,None,471.2813941180011,None,471.2813941180011,None,472.75013811200006,None,1,0.718520467999042,472.75013811200006,None,34,473.48503227900073,None,104,B,1,2021_May_20_1047,GazeFlow,2020.1.2,59.88803859309933,
4,Block814.xls,B,14,2,34,34,None,congruent,Right,Right,Left,66,65,1,blue,2,5,/home/docky/apps/exp/images/66B.jpeg,/home/docky/apps/exp/images/35Yi.jpeg,0,3,3,3,0,1,1,1,474.48754055300014,None,474.48754055300014,None,1,4.826342389000274,474.48754055300014,None,479.3474593840001,None,479.3474593840001,None,481.85245784499966,None,481.85245784499966,None,1.2508049099997152,483.6482286829996,None,483.6482286829996,None,5,1,1.2190984510016278,484.8911531779995,None,484.8911531779995,None,484.8911531779995,None,486.1267237780012,None,1,1.0015818369993212,486.1267237780012,None,36,487.14504728500106,None,104,B,1,2021_May_20_1047,GazeFlow,2020.1.2,59.88803859309933,
4,Block814.xls,B,14,3,91,91,None,congruent,Right,Right,Left,77,72,5,yellow,2,5,/home/docky/apps/exp/images/77Yi.jpeg,/home/docky/apps/exp/images/72Y.jpeg,0,3,3,3,0,2,2,2,488.14716616400074,None,488.14716616400074,None,1,7.615201470000102,488.14716616400074,None,495.79623935200107,None,495.79623935200107,None,498.30074845700074,None,498.30074845700074,None,1.5011775080001826,500.10185686099976,None,500.10185686099976,None,5,1,1.1021241739999823,501.5904062050013,None,501.5904062050013,None,501.5904062050013,None,502.70884230699994,None,1,0.9015130480001972,502.70884230699994,None,38,503.62670666800113,None,104,B,1,2021_May_20_1047,GazeFlow,2020.1.2,59.88803859309933,
4,Block814.xls,B,14,4,68,68,None,congruent,Left,Left,Right,72,77,5,yellow,2,6,/home/docky/apps/exp/images/72Yi.jpeg,/home/docky/apps/exp/images/77Y.jpeg,0,3,3,3,0,3,3,3,504.62920709900027,None,504.62920709900027,None,1,4.7929842510002345,504.62920709900027,None,509.45613481799955,None,509.45613481799955,None,511.9593897779996,None,511.9593897779996,None,1.400740651999513,513.756903982001,None,513.756903982001,None,6,1,1.3023686240012466,515.1499172620006,None,515.1499172620006,None,515.1499172620006,None,516.4691022509996,None,1,0.868020420000903,516.4691022509996,None,40,517.3535228950004,None,104,B,1,2021_May_20_1047,GazeFlow,2020.1.2,59.88803859309933,
4,Block814.xls,B,14,5,66,66,None,congruent,Left,Left,Right,69,76,7,yellow,2,6,/home/docky/apps/exp/images/69Yi.jpeg,/home/docky/apps/exp/images/76Y.jpeg,0,3,3,3,0,4,4,4,518.3561886160005,None,518.3561886160005,None,1,4.859369439998773,518.3561886160005,None,523.249390383,None,523.249390383,None,525.7523983280007,None,525.7523983280007,None,1.7851433609994274,527.5555592500004,None,527.5555592500004,None,6,1,1.069225318999088,529.3274434499999,None,529.3274434499999,None,529.3274434499999,None,530.4127095309996,None,1,0.7343197940008395,530.4127095309996,None,42,531.1637094220005,None,104,B,1,2021_May_20_1047,GazeFlow,2020.1.2,59.88803859309933,
4,Block814.xls,B,14,6,115,19,None,incongruent,Left,Right,Left,80,79,1,yellow,2,5,/home/docky/apps/exp/images/80Yi.jpeg,/home/docky/apps/exp/images/79Y.jpeg,0,3,3,3,0,5,5,5,532.1660580860007,None,532.1660580860007,None,1,4.80983768599981,532.1660580860007,None,537.0097819510011,None,537.0097819510011,None,539.5129203050001,None,539.5129203050001,None,1.517627941999308,541.3176013499997,None,541.3176013499997,None,6,0,1.136313312999846,542.8200751860004,None,542.8200751860004,None,542.8200751860004,None,543.972490393,None,1,0.6172694789984234,543.972490393,None,40,544.6065935099996,None,104,B,1,2021_May_20_1047,GazeFlow,2020.1.2,59.88803859309933,
4,Block814.xls,B,14,7,9,9,None,congruent,Left,Left,Right,65,66,1,blue,2,6,/home/docky/apps/exp/images/35Yi.jpeg,/home/docky/apps/exp/images/66B.jpeg,0,3,3,3,0,6,6,6,545.608736741,None,545.608736741,None,1,4.843568288000824,545.608736741,None,550.4856500710011,None,550.4856500710011,None,552.9905292399999,None,552.9905292399999,None,1.2005281189995003,554.7869630170007,None,554.7869630170007,None,5,0,1.1684203570002865,555.9791423759998,None,555.9791423759998,None,555.9791423759998,None,557.1649450620007,None,1,0.6175502080004662,557.1649450620007,None,38,557.798774578001,None,104,B,1,2021_May_20_1047,GazeFlow,2020.1.2,59.88803859309933,
4,Block814.xls,B,14,8,14,14,None,congruent,Left,Left,Right,38,39,1,blue,2,6,/home/docky/apps/exp/images/38Bi.jpeg,/home/docky/apps/exp/images/39B.jpeg,0,3,3,3,0,7,7,7,558.800746502,None,558.800746502,None,1,4.860777914000209,558.800746502,None,563.6947847360007,None,563.6947847360007,None,566.1992246620011,None,566.1992246620011,None,1.0333741149988782,568.0012323749997,None,568.0012323749997,None,6,1,1.2181146559996705,569.0212627809997,None,569.0212627809997,None,569.0212627809997,None,570.2562585169999,None,1,0.5856831090004562,570.2562585169999,None,40,570.8580140390004,None,104,B,1,2021_May_20_1047,GazeFlow,2020.1.2,59.88803859309933,
4,Block814.xls,B,,,,,,,,,,,,,,,,,,0,3,3,3,,,,,,,,,,,,,,,,,,,,,,,,,,,,,,,,,,,,,,,,,,,,104,B,1,2021_May_20_1047,GazeFlow,2020.1.2,59.88803859309933,
5,Block812.xls,B,12,1,18,18,None,congruent,Left,Left,Right,73,76,3,blue,2,6,/home/docky/apps/exp/images/73B.jpeg,/home/docky/apps/exp/images/76Bi.jpeg,0,4,4,4,0,0,0,0,595.6745175460001,None,595.6745175460001,None,1,5.281103084000279,595.6745175460001,None,600.9907993079996,None,600.9907993079996,None,603.5050909580004,None,603.5050909580004,None,1.0497260920001281,605.3075473640001,None,605.3075473640001,None,6,1,1.201745859998482,606.3437765800008,None,606.3437765800008,None,606.3437765800008,None,607.5622037760004,None,1,0.7183488099999522,607.5622037760004,None,42,608.2967838420009,None,104,B,1,2021_May_20_1047,GazeFlow,2020.1.2,59.88803859309933,
5,Block812.xls,B,12,2,3,3,None,congruent,Left,Left,Right,16,19,3,blue,2,6,/home/docky/apps/exp/images/16Bi.jpeg,/home/docky/apps/exp/images/19B.jpeg,0,4,4,4,0,1,1,1,609.2987173260008,None,609.2987173260008,None,1,4.009059601999979,609.2987173260008,None,613.3409276420007,None,613.3409276420007,None,615.8460603889998,None,615.8460603889998,None,0.866669446000742,617.6429911140003,None,617.6429911140003,None,6,1,1.101522473998557,618.5006883590013,None,618.5006883590013,None,618.5006883590013,None,619.6189110080013,None,1,0.7012795829996321,619.6189110080013,None,44,620.3374352730007,None,104,B,1,2021_May_20_1047,GazeFlow,2020.1.2,59.88803859309933,
5,Block812.xls,B,12,3,56,56,None,congruent,Left,Left,Right,62,65,3,yellow,2,6,/home/docky/apps/exp/images/38Bi.jpeg,/home/docky/apps/exp/images/35B.jpeg,0,4,4,4,0,2,2,2,621.3390180120005,None,621.3390180120005,None,1,4.375727396000002,621.3390180120005,None,625.7467952380011,None,625.7467952380011,None,628.2534709780011,None,628.2534709780011,None,0.9665001689991186,630.05486595,None,630.05486595,None,6,1,1.1854475410000305,631.0080570970003,None,631.0080570970003,None,631.0080570970003,None,632.2099138009999,None,1,0.6857913820003887,632.2099138009999,None,46,632.9117507179999,None,104,B,1,2021_May_20_1047,GazeFlow,2020.1.2,59.88803859309933,
5,Block812.xls,B,12,4,11,11,None,congruent,Left,Left,Right,38,39,1,blue,2,6,/home/docky/apps/exp/images/38B.jpeg,/home/docky/apps/exp/images/39Bi.jpeg,0,4,4,4,0,3,3,3,633.9134043150007,None,633.9134043150007,None,1,4.342384231998949,633.9134043150007,None,638.289887768,None,638.289887768,None,640.7927164470002,None,640.7927164470002,None,1.3846004309998534,642.5951635740003,None,642.5951635740003,None,5,0,1.2023704050006927,643.9667834459997,None,643.9667834459997,None,643.9667834459997,None,645.185704554,None,1,0.617105621000519,645.185704554,None,44,645.8194918940007,None,104,B,1,2021_May_20_1047,GazeFlow,2020.1.2,59.88803859309933,
5,Block812.xls,B,12,5,116,20,None,incongruent,Left,Right,Left,35,33,2,yellow,2,5,/home/docky/apps/exp/images/35Yi.jpeg,/home/docky/apps/exp/images/33Y.jpeg,0,4,4,4,0,4,4,4,646.8219428539996,None,646.8219428539996,None,1,4.742935883001337,646.8219428539996,None,651.5967158290005,None,651.5967158290005,None,654.1017763199998,None,654.1017763199998,None,2.0693276430010883,655.904980356001,None,655.904980356001,None,5,1,1.0684685539999919,657.9604845699996,None,657.9604845699996,None,657.9604845699996,None,659.0454476600007,None,1,0.7347708709985454,659.0454476600007,None,46,659.7969085889999,None,104,B,1,2021_May_20_1047,GazeFlow,2020.1.2,59.88803859309933,
5,Block812.xls,B,12,6,40,40,None,congruent,Right,Right,Left,79,76,3,blue,2,5,/home/docky/apps/exp/images/79Bi.jpeg,/home/docky/apps/exp/images/76B.jpeg,0,4,4,4,0,5,5,5,660.7993299860009,None,660.7993299860009,None,1,4.442279996999787,660.7993299860009,None,665.2753808960006,None,665.2753808960006,None,667.7782581110005,None,667.7782581110005,None,0.9500171939998836,669.581155670001,None,669.581155670001,None,5,1,1.1353370899996662,670.5182705389998,None,670.5182705389998,None,670.5182705389998,None,671.6699227490008,None,1,0.6853826530004881,671.6699227490008,None,48,672.3715845660008,None,104,B,1,2021_May_20_1047,GazeFlow,2020.1.2,59.88803859309933,
5,Block812.xls,B,12,7,76,76,None,congruent,Right,Right,Left,39,38,1,yellow,2,5,/home/docky/apps/exp/images/39Yi.jpeg,/home/docky/apps/exp/images/38Y.jpeg,0,4,4,4,0,6,6,6,673.3734401180009,None,673.3734401180009,None,1,4.459288588999698,673.3734401180009,None,677.8708736930002,None,677.8708736930002,None,680.369561552001,None,680.369561552001,None,1.2338741210005537,682.1726205440009,None,682.1726205440009,None,5,1,1.0347297369989974,683.3935006610009,None,683.3935006610009,None,683.3935006610009,None,684.4449424949999,None,1,0.667824419999306,684.4449424949999,None,50,685.1294356880007,None,104,B,1,2021_May_20_1047,GazeFlow,2020.1.2,59.88803859309933,
5,Block812.xls,B,12,8,77,77,None,congruent,Right,Right,Left,39,38,1,yellow,2,5,/home/docky/apps/exp/images/39Y.jpeg,/home/docky/apps/exp/images/38Yi.jpeg,0,4,4,4,0,7,7,7,686.1312999849997,None,686.1312999849997,None,1,4.576946625998971,686.1312999849997,None,690.741501288001,None,690.741501288001,None,693.2445472520012,None,693.2445472520012,None,1.1337265220008703,695.0475596050001,None,695.0475596050001,None,5,1,0.9849536099991383,696.167927081,None,696.167927081,None,696.167927081,None,697.169633001,None,1,0.6182473730004858,697.169633001,None,52,697.8044402800006,None,104,B,1,2021_May_20_1047,GazeFlow,2020.1.2,59.88803859309933,
5,Block812.xls,B,,,,,,,,,,,,,,,,,,0,4,4,4,,,,,,,,,,,,,,,,,,,,,,,,,,,,,,,,,,,,,,,,,,,,104,B,1,2021_May_20_1047,GazeFlow,2020.1.2,59.88803859309933,
6,Block803.xls,B,3,1,84,84,None,congruent,Right,Right,Left,75,69,6,yellow,2,5,/home/docky/apps/exp/images/76Yi.jpeg,/home/docky/apps/exp/images/69Y.jpeg,0,5,5,5,0,0,0,0,718.2792967429996,None,718.2792967429996,None,1,5.7148156790008215,718.2792967429996,None,724.0200911320007,None,724.0200911320007,None,726.5444155980003,None,726.5444155980003,None,0.8826849969991599,728.3479458250004,None,728.3479458250004,None,5,1,1.1015204430004815,729.2157561309996,None,729.2157561309996,None,729.2157561309996,None,730.333790087001,None,1,0.9686909940010082,730.333790087001,None,54,731.3192883730007,None,104,B,1,2021_May_20_1047,GazeFlow,2020.1.2,59.88803859309933,
6,Block803.xls,B,3,2,82,82,None,congruent,Right,Right,Left,66,65,1,yellow,2,5,/home/docky/apps/exp/images/66Y.jpeg,/home/docky/apps/exp/images/35Bi.jpeg,0,5,5,5,0,1,1,1,732.321088613,None,732.321088613,None,1,4.35961354400024,732.321088613,None,736.7142891679996,None,736.7142891679996,None,739.2189646549996,None,739.2189646549996,None,0.9500337150002451,741.0208083329999,None,741.0208083329999,None,5,1,1.1017213640006958,741.9571540920006,None,741.9571540920006,None,741.9571540920006,None,743.0752789079997,None,1,0.685719066999809,743.0752789079997,None,56,743.77704773,None,104,B,1,2021_May_20_1047,GazeFlow,2020.1.2,59.88803859309933,
6,Block803.xls,B,3,3,80,80,None,congruent,Right,Right,Left,66,65,1,yellow,2,5,/home/docky/apps/exp/images/66Yi.jpeg,/home/docky/apps/exp/images/35B.jpeg,0,5,5,5,0,2,2,2,744.7785368630011,None,744.7785368630011,None,1,3.540771603000394,744.7785368630011,None,748.3520293780002,None,748.3520293780002,None,750.8616594249997,None,750.8616594249997,None,1.1005692889993952,752.6548412009997,None,752.6548412009997,None,5,1,0.9851061640001717,753.7463655480005,None,753.7463655480005,None,753.7463655480005,None,754.7480839590007,None,1,0.7855390289987554,754.7480839590007,None,58,755.5500025910005,None,104,B,1,2021_May_20_1047,GazeFlow,2020.1.2,59.88803859309933,
6,Block803.xls,B,3,4,79,79,None,congruent,Right,Right,Left,66,65,1,yellow,2,5,/home/docky/apps/exp/images/66Y.jpeg,/home/docky/apps/exp/images/35Bi.jpeg,0,5,5,5,0,3,3,3,756.5516404259997,None,756.5516404259997,None,1,4.191902723001476,756.5516404259997,None,760.7758505270012,None,760.7758505270012,None,763.2798591999999,None,763.2798591999999,None,1.100419251000858,765.0843429430006,None,765.0843429430006,None,6,0,1.151645259000361,766.1708627770004,None,766.1708627770004,None,766.1708627770004,None,767.3392058890004,None,1,0.5854866949994175,767.3392058890004,None,56,767.940648535001,None,104,B,1,2021_May_20_1047,GazeFlow,2020.1.2,59.88803859309933,
6,Block803.xls,B,3,5,92,92,None,congruent,Right,Right,Left,77,72,5,yellow,2,5,/home/docky/apps/exp/images/77Y.jpeg,/home/docky/apps/exp/images/72Yi.jpeg,0,5,5,5,0,4,4,4,768.9423474590003,None,768.9423474590003,None,1,4.276113058998817,768.9423474590003,None,773.2528194700008,None,773.2528194700008,None,775.7563219269996,None,775.7563219269996,None,0.9167212510001264,777.5579910819997,None,777.5579910819997,None,5,1,1.1517590010007552,778.4613267040004,None,778.4613267040004,None,778.4613267040004,None,779.6295560180006,None,1,0.5852854650001973,779.6295560180006,None,58,780.2312350390002,None,104,B,1,2021_May_20_1047,GazeFlow,2020.1.2,59.88803859309933,
6,Block803.xls,B,3,6,106,10,None,incongruent,Left,Right,Left,79,76,3,blue,2,5,/home/docky/apps/exp/images/79Bi.jpeg,/home/docky/apps/exp/images/76B.jpeg,0,5,5,5,0,5,5,5,781.2328833430001,None,781.2328833430001,None,1,4.426404919999186,781.2328833430001,None,785.6923293239997,None,785.6923293239997,None,788.1989649580009,None,788.1989649580009,None,1.1502849579992471,789.9988330420001,None,789.9988330420001,None,5,1,1.0181766940004309,791.135767361,None,791.135767361,None,791.135767361,None,792.1705126230008,None,1,0.618832696998652,792.1705126230008,None,60,792.8057487389997,None,104,B,1,2021_May_20_1047,GazeFlow,2020.1.2,59.88803859309933,
6,Block803.xls,B,3,7,25,25,None,congruent,Right,Right,Left,19,16,3,blue,2,5,/home/docky/apps/exp/images/19Bi.jpeg,/home/docky/apps/exp/images/16B.jpeg,0,5,5,5,0,6,6,6,793.8070496270011,None,793.8070496270011,None,1,4.292597645000569,793.8070496270011,None,798.1334791299996,None,798.1334791299996,None,800.6366542180003,None,800.6366542180003,None,0.9836011530005635,802.441740661001,None,802.441740661001,None,5,1,1.0681729759999143,803.4098297550008,None,803.4098297550008,None,803.4098297550008,None,804.4947990210003,None,1,0.6014204570001311,804.4947990210003,None,62,805.112842306,None,104,B,1,2021_May_20_1047,GazeFlow,2020.1.2,59.88803859309933,
6,Block803.xls,B,3,8,46,46,None,congruent,Right,Right,Left,39,38,1,blue,2,5,/home/docky/apps/exp/images/39B.jpeg,/home/docky/apps/exp/images/38Bi.jpeg,0,5,5,5,0,7,7,7,806.114535865001,None,806.114535865001,None,1,4.208723984000244,806.114535865001,None,810.3571476150009,None,810.3571476150009,None,812.8618078890013,None,812.8618078890013,None,1.0334141140010615,814.6585799690001,None,814.6585799690001,None,5,1,0.9344456679991708,815.6838030480012,None,815.6838030480012,None,815.6838030480012,None,816.6348310190006,None,1,0.5187071680011286,816.6348310190006,None,64,817.169734862,None,104,B,1,2021_May_20_1047,GazeFlow,2020.1.2,59.88803859309933,
6,Block803.xls,B,,,,,,,,,,,,,,,,,,0,5,5,5,,,,,,,,,,,,,,,,,,,,,,,,,,,,,,,,,,,,,,,,,,,,104,B,1,2021_May_20_1047,GazeFlow,2020.1.2,59.88803859309933,
7,Block810.xls,B,10,1,119,23,None,incongruent,Left,Right,Left,76,69,7,yellow,2,5,/home/docky/apps/exp/images/76Yi.jpeg,/home/docky/apps/exp/images/69Y.jpeg,0,6,6,6,0,0,0,0,837.8457131430005,None,837.8457131430005,None,1,4.929348313000446,837.8457131430005,None,842.8065784200007,None,842.8065784200007,None,845.325033213001,None,845.325033213001,None,1.1496408029997838,847.1284328430011,None,847.1284328430011,None,5,1,1.0845171050004865,848.2638288110011,None,848.2638288110011,None,848.2638288110011,None,849.3650933709996,None,1,0.5517213500006619,849.3650933709996,None,66,849.93350775,None,104,B,1,2021_May_20_1047,GazeFlow,2020.1.2,59.88803859309933,
7,Block810.xls,B,10,2,43,43,None,congruent,Right,Right,Left,83,80,3,blue,2,5,/home/docky/apps/exp/images/83B.jpeg,/home/docky/apps/exp/images/80Bi.jpeg,0,6,6,6,0,1,1,1,850.9346821830004,None,850.9346821830004,None,1,4.359816501000751,850.9346821830004,None,855.3276299839999,None,855.3276299839999,None,857.8312889090012,None,857.8312889090012,None,0.9331080579995614,859.630488498,None,859.630488498,None,5,1,1.0680667630003882,860.5542338080013,None,860.5542338080013,None,860.5542338080013,None,861.6392009200008,None,1,0.6012758079996274,861.6392009200008,None,68,862.2571544340008,None,104,B,1,2021_May_20_1047,GazeFlow,2020.1.2,59.88803859309933,
7,Block810.xls,B,10,3,53,53,None,congruent,Left,Left,Right,65,66,1,yellow,2,6,/home/docky/apps/exp/images/35Bi.jpeg,/home/docky/apps/exp/images/66Y.jpeg,0,6,6,6,0,2,2,2,863.2587034160006,None,863.2587034160006,None,1,4.459414286000538,863.2587034160006,None,867.7504302739999,None,867.7504302739999,None,870.2548105719998,None,870.2548105719998,None,1.2337550119991647,872.0584150020004,None,872.0584150020004,None,5,0,0.984809691000919,873.2788521910006,None,873.2788521910006,None,873.2788521910006,None,874.2802434320001,None,1,0.5016194469990296,874.2802434320001,None,66,874.7984160230008,None,104,B,1,2021_May_20_1047,GazeFlow,2020.1.2,59.88803859309933,
7,Block810.xls,B,10,4,74,74,None,congruent,Right,Right,Left,35,33,2,yellow,2,5,/home/docky/apps/exp/images/35Y.jpeg,/home/docky/apps/exp/images/33Yi.jpeg,0,6,6,6,0,3,3,3,875.7997726520007,None,875.7997726520007,None,1,4.426523518999602,875.7997726520007,None,880.2595856059997,None,880.2595856059997,None,882.7623910310012,None,882.7623910310012,None,0.9501047260000632,884.566155429,None,884.566155429,None,5,1,1.1017204220006533,885.5023695979999,None,885.5023695979999,None,885.5023695979999,None,886.6207690640003,None,1,0.5516444579989184,886.6207690640003,None,68,887.1889626650009,None,104,B,1,2021_May_20_1047,GazeFlow,2020.1.2,59.88803859309933,
7,Block810.xls,B,10,5,21,21,None,congruent,Left,Left,Right,76,79,3,blue,2,6,/home/docky/apps/exp/images/76B.jpeg,/home/docky/apps/exp/images/79Bi.jpeg,0,6,6,6,0,4,4,4,888.1902407449998,None,888.1902407449998,None,1,4.6772485689998575,888.1902407449998,None,892.9006682809995,None,892.9006682809995,None,895.4055748290011,None,895.4055748290011,None,1.1836502509995626,897.2073712000001,None,897.2073712000001,None,6,1,1.0682934150008805,898.3775625810013,None,898.3775625810013,None,898.3775625810013,None,899.4624180030005,None,1,0.5017283089982811,899.4624180030005,None,70,899.9804844360006,None,104,B,1,2021_May_20_1047,GazeFlow,2020.1.2,59.88803859309933,
7,Block810.xls,B,10,6,85,85,None,congruent,Right,Right,Left,75,69,6,yellow,2,5,/home/docky/apps/exp/images/76Y.jpeg,/home/docky/apps/exp/images/69Yi.jpeg,0,6,6,6,0,5,5,5,900.9823014100002,None,900.9823014100002,None,1,4.359065004000513,900.9823014100002,None,905.3748512149996,None,905.3748512149996,None,907.8778418750007,None,907.8778418750007,None,1.6517744210013916,909.6767067150013,None,909.6767067150013,None,5,1,0.9851320690013381,911.3193976310013,None,911.3193976310013,None,911.3193976310013,None,912.3209397580013,None,1,0.5178892059993814,912.3209397580013,None,72,912.8550946680007,None,104,B,1,2021_May_20_1047,GazeFlow,2020.1.2,59.88803859309933,
7,Block810.xls,B,10,7,49,49,None,congruent,Left,Left,Right,33,35,2,yellow,2,6,/home/docky/apps/exp/images/33Yi.jpeg,/home/docky/apps/exp/images/35Y.jpeg,0,6,6,6,0,6,6,6,913.857156303,None,913.857156303,None,1,4.9439719160000095,913.857156303,None,918.8346338700012,None,918.8346338700012,None,921.3378696110012,None,921.3378696110012,None,1.050485773001128,923.141128438001,None,923.141128438001,None,6,1,1.0514020240007085,924.1777992200005,None,924.1777992200005,None,924.1777992200005,None,925.2457739420006,None,1,0.7025653229993623,925.2457739420006,None,74,925.9646374240001,None,104,B,1,2021_May_20_1047,GazeFlow,2020.1.2,59.88803859309933,
7,Block810.xls,B,10,8,63,63,None,congruent,Left,Left,Right,38,39,1,yellow,2,6,/home/docky/apps/exp/images/38Y.jpeg,/home/docky/apps/exp/images/39Yi.jpeg,0,6,6,6,0,7,7,7,926.965836884001,None,926.965836884001,None,1,4.476556509000147,926.965836884001,None,931.4755982420011,None,931.4755982420011,None,933.9783383459999,None,933.9783383459999,None,1.1340019780000148,935.7763424149998,None,935.7763424149998,None,6,1,0.9178595710000081,936.902461873,None,936.902461873,None,936.902461873,None,937.8371250560012,None,1,0.7352780620003614,937.8371250560012,None,76,938.5887308069996,None,104,B,1,2021_May_20_1047,GazeFlow,2020.1.2,59.88803859309933,
7,Block810.xls,B,,,,,,,,,,,,,,,,,,0,6,6,6,,,,,,,,,,,,,,,,,,,,,,,,,,,,,,,,,,,,,,,,,,,,104,B,1,2021_May_20_1047,GazeFlow,2020.1.2,59.88803859309933,
8,Block801.xls,B,1,1,1,1,None,congruent,Left,Left,Right,16,19,3,blue,2,6,/home/docky/apps/exp/images/16Bi.jpeg,/home/docky/apps/exp/images/19B.jpeg,0,7,7,7,0,0,0,0,964.8751109090008,None,964.8751109090008,None,1,4.616323116999411,964.8751109090008,None,969.5131991090002,None,969.5131991090002,None,972.0373948300003,None,972.0373948300003,None,1.08313803099918,973.8380413610012,None,973.8380413610012,None,6,1,0.9848682560004818,974.909431850001,None,974.909431850001,None,974.909431850001,None,975.9108708830008,None,1,0.8356940030007536,975.9108708830008,None,78,976.7630198679999,None,104,B,1,2021_May_20_1047,GazeFlow,2020.1.2,59.88803859309933,
8,Block801.xls,B,1,2,105,9,None,incongruent,Left,Right,Left,79,73,6,blue,2,5,/home/docky/apps/exp/images/79B.jpeg,/home/docky/apps/exp/images/73Bi.jpeg,0,7,7,7,0,1,1,1,977.7647166450006,None,977.7647166450006,None,1,3.958948629000588,977.7647166450006,None,981.7567561230007,None,981.7567561230007,None,984.260187580001,None,984.260187580001,None,0.9332880310012115,986.0648714550007,None,986.0648714550007,None,6,0,1.0514659309992567,986.9831474910006,None,986.9831474910006,None,986.9831474910006,None,988.0512247309998,None,1,0.6352164139989327,988.0512247309998,None,76,988.7026318780008,None,104,B,1,2021_May_20_1047,GazeFlow,2020.1.2,59.88803859309933,
8,Block801.xls,B,1,3,62,62,None,congruent,Left,Left,Right,38,39,1,yellow,2,6,/home/docky/apps/exp/images/38Y.jpeg,/home/docky/apps/exp/images/39Yi.jpeg,0,7,7,7,0,2,2,2,989.7043262349998,None,989.7043262349998,None,1,4.008642213999337,989.7043262349998,None,993.7446078829998,None,993.7446078829998,None,996.2538404930001,None,996.2538404930001,None,1.0167819750004128,998.0528589040005,None,998.0528589040005,None,6,1,1.0682660450002004,999.0566207890006,None,999.0566207890006,None,999.0566207890006,None,1000.1413971630009,None,1,0.5516764080002758,1000.1413971630009,None,78,1000.7092647420013,None,104,B,1,2021_May_20_1047,GazeFlow,2020.1.2,59.88803859309933,
8,Block801.xls,B,1,4,38,38,None,congruent,Right,Right,Left,79,73,6,blue,2,5,/home/docky/apps/exp/images/79B.jpeg,/home/docky/apps/exp/images/73Bi.jpeg,0,7,7,7,0,3,3,3,1001.7112948410013,None,1001.7112948410013,None,1,5.64523491699947,1001.7112948410013,None,1007.3925646120006,None,1007.3925646120006,None,1009.8926648569995,None,1009.8926648569995,None,1.0837472040002467,1011.6902636169998,None,1011.6902636169998,None,5,1,0.9345849090004776,1012.7664261070004,None,1012.7664261070004,None,1012.7664261070004,None,1013.7177043259999,None,1,0.6186435620002158,1013.7177043259999,None,80,1014.3525875760006,None,104,B,1,2021_May_20_1047,GazeFlow,2020.1.2,59.88803859309933,
8,Block801.xls,B,1,5,6,6,None,congruent,Left,Left,Right,35,38,3,blue,2,6,/home/docky/apps/exp/images/35Bi.jpeg,/home/docky/apps/exp/images/38B.jpeg,0,7,7,7,0,4,4,4,1015.3539585409999,None,1015.3539585409999,None,1,4.325965719001033,1015.3539585409999,None,1019.7137015540011,None,1019.7137015540011,None,1022.2170457690008,None,1022.2170457690008,None,1.0169000660007441,1024.0204272219999,None,1024.0204272219999,None,6,1,0.984592867000174,1025.023587134001,None,1025.023587134001,None,1025.023587134001,None,1026.0248598119997,None,1,0.6020303510013036,1026.0248598119997,None,82,1026.642781097,None,104,B,1,2021_May_20_1047,GazeFlow,2020.1.2,59.88803859309933,
8,Block801.xls,B,1,6,51,51,None,congruent,Left,Left,Right,33,35,2,yellow,2,6,/home/docky/apps/exp/images/33Yi.jpeg,/home/docky/apps/exp/images/35Y.jpeg,0,7,7,7,0,5,5,5,1027.6447153860008,None,1027.6447153860008,None,1,4.6268858300009015,1027.6447153860008,None,1032.3047031719998,None,1032.3047031719998,None,1034.8095741300003,None,1034.8095741300003,None,1.0335528280011204,1036.6115844310007,None,1036.6115844310007,None,6,1,1.0514595610002289,1037.631361889,None,1037.631361889,None,1037.631361889,None,1038.6994599940008,None,1,0.5852552449996438,1038.6994599940008,None,84,1039.3006429819998,None,104,B,1,2021_May_20_1047,GazeFlow,2020.1.2,59.88803859309933,
8,Block801.xls,B,1,7,73,73,None,congruent,Right,Right,Left,35,33,2,yellow,2,5,/home/docky/apps/exp/images/35Yi.jpeg,/home/docky/apps/exp/images/33Y.jpeg,0,7,7,7,0,6,6,6,1040.302790490001,None,1040.302790490001,None,1,4.40908154600038,1040.302790490001,None,1044.7461039720001,None,1044.7461039720001,None,1047.2479102430007,None,1047.2479102430007,None,1.1002556410003308,1049.0515033330012,None,1049.0515033330012,None,5,1,0.9346223610009474,1050.139029887001,None,1050.139029887001,None,1050.139029887001,None,1051.0903428500005,None,1,0.5348737340009393,1051.0903428500005,None,86,1051.6418540760005,None,104,B,1,2021_May_20_1047,GazeFlow,2020.1.2,59.88803859309933,
8,Block801.xls,B,1,8,96,96,None,congruent,Right,Right,Left,80,79,1,yellow,2,5,/home/docky/apps/exp/images/80Yi.jpeg,/home/docky/apps/exp/images/79Y.jpeg,0,7,7,7,0,7,7,7,1052.6433729689998,None,1052.6433729689998,None,1,5.177343936999023,1052.6433729689998,None,1057.854402709001,None,1057.854402709001,None,1060.3594623640001,None,1060.3594623640001,None,0.9500551460005227,1062.1606860400007,None,1062.1606860400007,None,5,1,1.0181113230009942,1063.097464456001,None,1063.097464456001,None,1063.097464456001,None,1064.132295153,None,1,0.5517030069986504,1064.132295153,None,88,1064.7003379890011,None,104,B,1,2021_May_20_1047,GazeFlow,2020.1.2,59.88803859309933,
8,Block801.xls,B,,,,,,,,,,,,,,,,,,0,7,7,7,,,,,,,,,,,,,,,,,,,,,,,,,,,,,,,,,,,,,,,,,,,,104,B,1,2021_May_20_1047,GazeFlow,2020.1.2,59.88803859309933,
9,Block802.xls,B,2,1,30,30,None,congruent,Right,Right,Left,38,35,3,blue,2,5,/home/docky/apps/exp/images/38B.jpeg,/home/docky/apps/exp/images/35Bi.jpeg,0,8,8,8,0,0,0,0,1112.328185755001,None,1112.328185755001,None,1,4.478917209000429,1112.328185755001,None,1116.8387724599997,None,1116.8387724599997,None,1119.357484731001,None,1119.357484731001,None,0.9828870840010495,1121.159118443,None,1121.159118443,None,5,1,1.0015963210007612,1122.1287119509998,None,1122.1287119509998,None,1122.1287119509998,None,1123.1467788900009,None,1,0.6013652429992362,1123.1467788900009,None,90,1123.7653332050013,None,104,B,1,2021_May_20_1047,GazeFlow,2020.1.2,59.88803859309933,
9,Block802.xls,B,2,2,5,5,None,congruent,Left,Left,Right,35,38,3,blue,2,6,/home/docky/apps/exp/images/35B.jpeg,/home/docky/apps/exp/images/38Bi.jpeg,0,8,8,8,0,1,1,1,1124.7664163320005,None,1124.7664163320005,None,1,4.376463198999772,1124.7664163320005,None,1129.1765564960006,None,1129.1765564960006,None,1131.6792421179998,None,1131.6792421179998,None,1.6681925909997517,1133.4823561310004,None,1133.4823561310004,None,6,1,0.9845434439994278,1135.1374356750002,None,1135.1374356750002,None,1135.1374356750002,None,1136.1383952680007,None,1,0.5183700300003693,1136.1383952680007,None,92,1136.673135590001,None,104,B,1,2021_May_20_1047,GazeFlow,2020.1.2,59.88803859309933,
9,Block802.xls,B,2,3,103,7,None,incongruent,Left,Right,Left,19,16,3,blue,2,5,/home/docky/apps/exp/images/19Bi.jpeg,/home/docky/apps/exp/images/16B.jpeg,0,8,8,8,0,2,2,2,1137.6755136909997,None,1137.6755136909997,None,1,4.425545104999401,1137.6755136909997,None,1142.1346628270003,None,1142.1346628270003,None,1144.6398165770006,None,1144.6398165770006,None,1.2504459639985726,1146.4432961080001,None,1146.4432961080001,None,5,1,0.9178481510007259,1147.6784337959998,None,1147.6784337959998,None,1147.6784337959998,None,1148.6129604260004,None,1,0.5849777389994415,1148.6129604260004,None,94,1149.214605833,None,104,B,1,2021_May_20_1047,GazeFlow,2020.1.2,59.88803859309933,
9,Block802.xls,B,2,4,35,35,None,congruent,Right,Right,Left,66,65,1,blue,2,5,/home/docky/apps/exp/images/66B.jpeg,/home/docky/apps/exp/images/35Yi.jpeg,0,8,8,8,0,3,3,3,1150.2160454229997,None,1150.2160454229997,None,1,4.943681013000969,1150.2160454229997,None,1155.193589640001,None,1155.193589640001,None,1157.6966985239997,None,1157.6966985239997,None,1.0840680580004118,1159.4996308869995,None,1159.4996308869995,None,5,1,0.9350023290007812,1160.5700496280006,None,1160.5700496280006,None,1160.5700496280006,None,1161.5213591459997,None,1,0.551751750999756,1161.5213591459997,None,96,1162.0896485049998,None,104,B,1,2021_May_20_1047,GazeFlow,2020.1.2,59.88803859309933,
9,Block802.xls,B,2,5,42,42,None,congruent,Right,Right,Left,83,80,3,blue,2,5,/home/docky/apps/exp/images/83Bi.jpeg,/home/docky/apps/exp/images/80B.jpeg,0,8,8,8,0,4,4,4,1163.0912918960003,None,1163.0912918960003,None,1,4.342388428000049,1163.0912918960003,None,1167.4673967620001,None,1167.4673967620001,None,1169.974061641,None,1169.974061641,None,0.8665312020002602,1171.7685936720009,None,1171.7685936720009,None,5,1,0.9683670070007793,1172.6268393120008,None,1172.6268393120008,None,1172.6268393120008,None,1173.6115473610007,None,1,1.5701862380010425,1173.6115473610007,None,98,1175.1980204360007,None,104,B,1,2021_May_20_1047,GazeFlow,2020.1.2,59.88803859309933,
9,Block802.xls,B,2,6,104,8,None,incongruent,Left,Right,Left,38,35,3,blue,2,5,/home/docky/apps/exp/images/38B.jpeg,/home/docky/apps/exp/images/35Bi.jpeg,0,8,8,8,0,5,5,5,1176.2002844239996,None,1176.2002844239996,None,1,4.676523819000067,1176.2002844239996,None,1180.910141892,None,1180.910141892,None,1183.4128197680002,None,1183.4128197680002,None,1.1505317529990862,1185.2167274410003,None,1185.2167274410003,None,5,1,0.9844208129998151,1186.353588557,None,1186.353588557,None,1186.353588557,None,1187.3549436249996,None,1,0.5681979169985425,1187.3549436249996,None,100,1187.9398227220008,None,104,B,1,2021_May_20_1047,GazeFlow,2020.1.2,59.88803859309933,
9,Block802.xls,B,2,7,22,22,None,congruent,Left,Left,Right,80,83,3,blue,2,6,/home/docky/apps/exp/images/80Bi.jpeg,/home/docky/apps/exp/images/83B.jpeg,0,8,8,8,0,6,6,6,1188.9413063060001,None,1188.9413063060001,None,1,4.6431290230011655,1188.9413063060001,None,1193.6181785780009,None,1193.6181785780009,None,1196.1216956850003,None,1196.1216956850003,None,1.083823458999177,1197.9243862050007,None,1197.9243862050007,None,6,1,1.0347242650004773,1198.994898246001,None,1198.994898246001,None,1198.994898246001,None,1200.0462941620008,None,1,0.6679598310001893,1200.0462941620008,None,102,1200.731003803001,None,104,B,1,2021_May_20_1047,GazeFlow,2020.1.2,59.88803859309933,
9,Block802.xls,B,2,8,54,54,None,congruent,Left,Left,Right,65,66,1,yellow,2,6,/home/docky/apps/exp/images/35Bi.jpeg,/home/docky/apps/exp/images/66Y.jpeg,0,8,8,8,0,7,7,7,1201.7327972519997,None,1201.7327972519997,None,1,4.6765415299996675,1201.7327972519997,None,1206.4430883500008,None,1206.4430883500008,None,1208.9459251770004,None,1208.9459251770004,None,1.0164122490004956,1210.7443385589995,None,1210.7443385589995,None,6,1,0.9009358969997265,1211.7529184300001,None,1211.7529184300001,None,1211.7529184300001,None,1212.6708199349996,None,1,0.7023140070014051,1212.6708199349996,None,104,1213.3892893780012,None,104,B,1,2021_May_20_1047,GazeFlow,2020.1.2,59.88803859309933,
9,Block802.xls,B,,,,,,,,,,,,,,,,,,0,8,8,8,,,,,,,,,,,,,,,,,,,,,,,,,,,,,,,,,,,,,,,,,,,,104,B,1,2021_May_20_1047,GazeFlow,2020.1.2,59.88803859309933,
10,Block813.xls,B,13,1,70,70,None,congruent,Left,Left,Right,79,82,3,yellow,2,6,/home/docky/apps/exp/images/79Yi.jpeg,/home/docky/apps/exp/images/80Y.jpeg,0,9,9,9,0,0,0,0,1236.9016358549998,None,1236.9016358549998,None,1,5.186523960999693,1236.9016358549998,None,1242.107754775001,None,1242.107754775001,None,1244.6340115880012,None,1244.6340115880012,None,0.9657645589995809,1246.4378098739999,None,1246.4378098739999,None,6,1,1.1013764159997663,1247.388736895,None,1247.388736895,None,1247.388736895,None,1248.5069578940002,None,1,0.9191543900014949,1248.5069578940002,None,106,1249.4425709670013,None,104,B,1,2021_May_20_1047,GazeFlow,2020.1.2,59.88803859309933,
10,Block813.xls,B,13,2,60,60,None,congruent,Left,Left,Right,38,39,1,yellow,2,6,/home/docky/apps/exp/images/38Yi.jpeg,/home/docky/apps/exp/images/39Y.jpeg,0,9,9,9,0,1,1,1,1250.4441722600004,None,1250.4441722600004,None,1,4.643018794000454,1250.4441722600004,None,1255.1210465820004,None,1255.1210465820004,None,1257.6235134939998,None,1257.6235134939998,None,1.1171750140001677,1259.42699378,None,1259.42699378,None,6,1,1.1018589240011352,1260.5307646340007,None,1260.5307646340007,None,1260.5307646340007,None,1261.6492792320005,None,1,0.6518056280001474,1261.6492792320005,None,108,1262.3177951489997,None,104,B,1,2021_May_20_1047,GazeFlow,2020.1.2,59.88803859309933,
10,Block813.xls,B,13,3,81,81,None,congruent,Right,Right,Left,66,65,1,yellow,2,5,/home/docky/apps/exp/images/66Y.jpeg,/home/docky/apps/exp/images/35Bi.jpeg,0,9,9,9,0,2,2,2,1263.319103578,None,1263.319103578,None,1,5.728400383000917,1263.319103578,None,1269.0811888219996,None,1269.0811888219996,None,1271.5863750950011,None,1271.5863750950011,None,0.8164797459994588,1273.3871889870006,None,1273.3871889870006,None,5,1,1.1014253140001529,1274.190971561,None,1274.190971561,None,1274.190971561,None,1275.3090011870008,None,1,0.6853332099999534,1275.3090011870008,None,110,1276.0108585899998,None,104,B,1,2021_May_20_1047,GazeFlow,2020.1.2,59.88803859309933,
10,Block813.xls,B,13,4,110,14,None,incongruent,Right,Left,Right,65,66,1,yellow,2,6,/home/docky/apps/exp/images/35B.jpeg,/home/docky/apps/exp/images/66Yi.jpeg,0,9,9,9,0,3,3,3,1277.0123364909996,None,1277.0123364909996,None,1,5.3444604340002115,1277.0123364909996,None,1282.3907410560005,None,1282.3907410560005,None,1284.893430694001,None,1284.893430694001,None,1.4678748119986267,1286.6919416580004,None,1286.6919416580004,None,6,1,0.9689008799996373,1288.1513298789996,None,1288.1513298789996,None,1288.1513298789996,None,1289.1362092070012,None,1,0.5676051680002274,1289.1362092070012,None,112,1289.720478995001,None,104,B,1,2021_May_20_1047,GazeFlow,2020.1.2,59.88803859309933,
10,Block813.xls,B,13,5,17,17,None,congruent,Left,Left,Right,73,76,3,blue,2,6,/home/docky/apps/exp/images/73Bi.jpeg,/home/docky/apps/exp/images/76B.jpeg,0,9,9,9,0,4,4,4,1290.722511068001,None,1290.722511068001,None,1,4.676307269999597,1290.722511068001,None,1295.432725910001,None,1295.432725910001,None,1297.9357695380004,None,1297.9357695380004,None,1.1005674099997123,1299.7340660280006,None,1299.7340660280006,None,6,1,1.0351086089995079,1300.825798254,None,1300.825798254,None,1300.825798254,None,1301.8773166700012,None,1,0.6689893590009888,1301.8773166700012,None,114,1302.562432533001,None,104,B,1,2021_May_20_1047,GazeFlow,2020.1.2,59.88803859309933,
10,Block813.xls,B,13,6,111,15,None,incongruent,Right,Left,Right,62,65,3,yellow,2,6,/home/docky/apps/exp/images/38B.jpeg,/home/docky/apps/exp/images/35Bi.jpeg,0,9,9,9,0,5,5,5,1303.5640785650012,None,1303.5640785650012,None,1,5.762303707000683,1303.5640785650012,None,1309.3599773220012,None,1309.3599773220012,None,1311.864489476,None,1311.864489476,None,1.1838781199985533,1313.6612895569997,None,1313.6612895569997,None,6,1,1.001568433999637,1314.836573564,None,1314.836573564,None,1314.836573564,None,1315.8544859140002,None,1,0.5685219450006116,1315.8544859140002,None,116,1316.4395388800003,None,104,B,1,2021_May_20_1047,GazeFlow,2020.1.2,59.88803859309933,
10,Block813.xls,B,13,7,55,55,None,congruent,Left,Left,Right,65,66,1,yellow,2,6,/home/docky/apps/exp/images/35B.jpeg,/home/docky/apps/exp/images/66Yi.jpeg,0,9,9,9,0,6,6,6,1317.440964325,None,1317.440964325,None,1,4.359695232000377,1317.440964325,None,1321.836888893,None,1321.836888893,None,1324.336963664,None,1324.336963664,None,1.3676054700008535,1326.142112335001,None,1326.142112335001,None,6,1,1.0688935990001482,1327.4944144560013,None,1327.4944144560013,None,1327.4944144560013,None,1328.579953253,None,1,0.6171242849995906,1328.579953253,None,118,1329.2136970110005,None,104,B,1,2021_May_20_1047,GazeFlow,2020.1.2,59.88803859309933,
10,Block813.xls,B,13,8,26,26,None,congruent,Right,Right,Left,19,16,3,blue,2,5,/home/docky/apps/exp/images/19B.jpeg,/home/docky/apps/exp/images/16Bi.jpeg,0,9,9,9,0,7,7,7,1330.2157217889999,None,1330.2157217889999,None,1,4.376401362998877,1330.2157217889999,None,1334.6255153390011,None,1334.6255153390011,None,1337.1285201400005,None,1337.1285201400005,None,1.1008460769990052,1338.9322733160006,None,1338.9322733160006,None,5,1,0.9010864350002521,1340.0186317240004,None,1340.0186317240004,None,1340.0186317240004,None,1340.936582409,None,1,0.6010039290013083,1340.936582409,None,120,1341.5548877380006,None,104,B,1,2021_May_20_1047,GazeFlow,2020.1.2,59.88803859309933,
10,Block813.xls,B,,,,,,,,,,,,,,,,,,0,9,9,9,,,,,,,,,,,,,,,,,,,,,,,,,,,,,,,,,,,,,,,,,,,,104,B,1,2021_May_20_1047,GazeFlow,2020.1.2,59.88803859309933,
11,Block806.xls,B,6,1,10,10,None,congruent,Left,Left,Right,65,66,1,blue,2,6,/home/docky/apps/exp/images/35Y.jpeg,/home/docky/apps/exp/images/66Bi.jpeg,0,10,10,10,0,0,0,0,1366.7044844909997,None,1366.7044844909997,None,1,4.450089968000611,1366.7044844909997,None,1371.175581024001,None,1371.175581024001,None,1373.699074622,None,1373.699074622,None,1.1831074469992018,1375.5035357739998,None,1375.5035357739998,None,5,0,0.9850164229992515,1376.6732010289998,None,1376.6732010289998,None,1376.6732010289998,None,1377.6747377250013,None,1,0.7681241190002766,1377.6747377250013,None,118,1378.4597534210006,None,104,B,1,2021_May_20_1047,GazeFlow,2020.1.2,59.88803859309933,
11,Block806.xls,B,6,2,89,89,None,congruent,Right,Right,Left,76,69,7,yellow,2,5,/home/docky/apps/exp/images/76Yi.jpeg,/home/docky/apps/exp/images/69Y.jpeg,0,10,10,10,0,1,1,1,1379.4612717740001,None,1379.4612717740001,None,1,4.359444918000008,1379.4612717740001,None,1383.8542225740002,None,1383.8542225740002,None,1386.3575249330006,None,1386.3575249330006,None,1.0170828990012524,1388.1606241810005,None,1388.1606241810005,None,5,1,0.9846955649991287,1389.1641609260005,None,1389.1641609260005,None,1389.1641609260005,None,1390.1657600670005,None,1,0.7352071029999934,1390.1657600670005,None,120,1390.917388703001,None,104,B,1,2021_May_20_1047,GazeFlow,2020.1.2,59.88803859309933,
11,Block806.xls,B,6,3,88,88,None,congruent,Right,Right,Left,76,69,7,yellow,2,5,/home/docky/apps/exp/images/76Y.jpeg,/home/docky/apps/exp/images/69Yi.jpeg,0,10,10,10,0,2,2,2,1391.9192186330001,None,1391.9192186330001,None,1,4.108213428000454,1391.9192186330001,None,1396.061481185001,None,1396.061481185001,None,1398.5645548129996,None,1398.5645548129996,None,1.0503885349990014,1400.3682034920002,None,1400.3682034920002,None,5,1,0.9849535180001112,1401.404632357,None,1401.404632357,None,1401.404632357,None,1402.4060800839998,None,1,0.73526917900017,1402.4060800839998,None,122,1403.1578598240012,None,104,B,1,2021_May_20_1047,GazeFlow,2020.1.2,59.88803859309933,
11,Block806.xls,B,6,4,109,13,None,incongruent,Right,Left,Right,33,35,2,yellow,2,6,/home/docky/apps/exp/images/33Yi.jpeg,/home/docky/apps/exp/images/35Y.jpeg,0,10,10,10,0,3,3,3,1404.159478828,None,1404.159478828,None,1,4.276229195000269,1404.159478828,None,1408.4688295899996,None,1408.4688295899996,None,1410.9738037030002,None,1410.9738037030002,None,1.5845968480007286,1412.770028072,None,1412.770028072,None,6,1,0.9691822050008341,1414.3464033920009,None,1414.3464033920009,None,1414.3464033920009,None,1415.3315097630002,None,1,0.5171067230003246,1415.3315097630002,None,124,1415.8654842390006,None,104,B,1,2021_May_20_1047,GazeFlow,2020.1.2,59.88803859309933,
11,Block806.xls,B,6,5,37,37,None,congruent,Right,Right,Left,79,73,6,blue,2,5,/home/docky/apps/exp/images/79Bi.jpeg,/home/docky/apps/exp/images/73B.jpeg,0,10,10,10,0,4,4,4,1416.8674600940012,None,1416.8674600940012,None,1,4.609563052001249,1416.8674600940012,None,1421.5110780070008,None,1421.5110780070008,None,1424.0139977199997,None,1424.0139977199997,None,1.066726215000017,1425.8116462489998,None,1425.8116462489998,None,5,1,0.9347983210009261,1426.8705686060002,None,1426.8705686060002,None,1426.8705686060002,None,1427.821991842,None,1,0.6354112770004576,1427.821991842,None,126,1428.4740629050011,None,104,B,1,2021_May_20_1047,GazeFlow,2020.1.2,59.88803859309933,
11,Block806.xls,B,6,6,108,12,None,incongruent,Left,Right,Left,39,38,1,blue,2,5,/home/docky/apps/exp/images/39Bi.jpeg,/home/docky/apps/exp/images/38B.jpeg,0,10,10,10,0,5,5,5,1429.4755073899996,None,1429.4755073899996,None,1,3.958530266001617,1429.4755073899996,None,1433.467454644,None,1433.467454644,None,1435.9701413599996,None,1435.9701413599996,None,1.0835618090004573,1437.768399128001,None,1437.768399128001,None,6,0,1.0182276190007542,1438.8439933460013,None,1438.8439933460013,None,1438.8439933460013,None,1439.8786416780003,None,1,0.6689311789996282,1439.8786416780003,None,124,1440.5635393850007,None,104,B,1,2021_May_20_1047,GazeFlow,2020.1.2,59.88803859309933,
11,Block806.xls,B,6,7,52,52,None,congruent,Left,Left,Right,65,66,1,yellow,2,6,/home/docky/apps/exp/images/35B.jpeg,/home/docky/apps/exp/images/66Yi.jpeg,0,10,10,10,0,6,6,6,1441.5652391620006,None,1441.5652391620006,None,1,3.9754705329996796,1441.5652391620006,None,1445.5741230439999,None,1445.5741230439999,None,1448.0789873400008,None,1448.0789873400008,None,1.1339185560009355,1449.8810559020003,None,1449.8810559020003,None,6,1,0.9349102609994588,1451.0009318970006,None,1451.0009318970006,None,1451.0009318970006,None,1451.9520558969998,None,1,0.502650217998962,1451.9520558969998,None,126,1452.4701709029996,None,104,B,1,2021_May_20_1047,GazeFlow,2020.1.2,59.88803859309933,
11,Block806.xls,B,6,8,75,75,None,congruent,Right,Right,Left,35,33,2,yellow,2,5,/home/docky/apps/exp/images/35Yi.jpeg,/home/docky/apps/exp/images/33Y.jpeg,0,10,10,10,0,7,7,7,1453.4720902820009,None,1453.4720902820009,None,1,5.3279052220004814,1453.4720902820009,None,1458.8333819660002,None,1458.8333819660002,None,1461.3384919580003,None,1461.3384919580003,None,1.2337313749994792,1463.1402281459996,None,1463.1402281459996,None,5,1,0.9178047320001497,1464.3602582380008,None,1464.3602582380008,None,1464.3602582380008,None,1465.2946209359998,None,1,0.6859132270001282,1465.2946209359998,None,128,1465.9964461939999,None,104,B,1,2021_May_20_1047,GazeFlow,2020.1.2,59.88803859309933,
11,Block806.xls,B,,,,,,,,,,,,,,,,,,0,10,10,10,,,,,,,,,,,,,,,,,,,,,,,,,,,,,,,,,,,,,,,,,,,,104,B,1,2021_May_20_1047,GazeFlow,2020.1.2,59.88803859309933,
12,Block811.xls,B,11,1,86,86,None,congruent,Right,Right,Left,75,69,6,yellow,2,5,/home/docky/apps/exp/images/76Y.jpeg,/home/docky/apps/exp/images/69Yi.jpeg,0,11,11,11,0,0,0,0,1506.9618098320007,None,1506.9618098320007,None,1,4.581665724999766,1506.9618098320007,None,1511.5650506290003,None,1511.5650506290003,None,1514.090664034,None,1514.090664034,None,1.0997930869998527,1515.892204920001,None,1515.892204920001,None,5,1,0.9345762490011111,1516.9792704240008,None,1516.9792704240008,None,1516.9792704240008,None,1517.9301633720006,None,1,0.7691321800011792,1517.9301633720006,None,130,1518.7156184120013,None,104,B,1,2021_May_20_1047,GazeFlow,2020.1.2,59.88803859309933,
12,Block811.xls,B,11,2,83,83,None,congruent,Right,Right,Left,75,69,6,yellow,2,5,/home/docky/apps/exp/images/76Yi.jpeg,/home/docky/apps/exp/images/69Y.jpeg,0,11,11,11,0,1,1,1,1519.7171818360002,None,1519.7171818360002,None,1,3.8251746369987814,1519.7171818360002,None,1523.5758269920007,None,1523.5758269920007,None,1526.0783495590003,None,1526.0783495590003,None,1.0500988969997707,1527.882300315001,None,1527.882300315001,None,5,1,0.9183820559992455,1528.918760777,None,1528.918760777,None,1528.918760777,None,1529.8536665020001,None,1,1.0019948610006395,1529.8536665020001,None,132,1530.8721902020006,None,104,B,1,2021_May_20_1047,GazeFlow,2020.1.2,59.88803859309933,
12,Block811.xls,B,11,3,28,28,None,congruent,Right,Right,Left,38,35,3,blue,2,5,/home/docky/apps/exp/images/38Bi.jpeg,/home/docky/apps/exp/images/35B.jpeg,0,11,11,11,0,2,2,2,1531.8740529080005,None,1531.8740529080005,None,1,3.6917032479996124,1531.8740529080005,None,1535.599249324001,None,1535.599249324001,None,1538.1020486500001,None,1538.1020486500001,None,1.1004736599988973,1539.905769432,None,1539.905769432,None,5,1,0.9180693090002023,1540.9923221490008,None,1540.9923221490008,None,1540.9923221490008,None,1541.9271059130006,None,1,0.7350810600000841,1541.9271059130006,None,134,1542.6788329419996,None,104,B,1,2021_May_20_1047,GazeFlow,2020.1.2,59.88803859309933,
12,Block811.xls,B,11,4,58,58,None,congruent,Left,Left,Right,62,65,3,yellow,2,6,/home/docky/apps/exp/images/38B.jpeg,/home/docky/apps/exp/images/35Bi.jpeg,0,11,11,11,0,3,3,3,1543.6805056619996,None,1543.6805056619996,None,1,3.807987135000076,1543.6805056619996,None,1547.5263382850007,None,1547.5263382850007,None,1550.0269304000012,None,1550.0269304000012,None,0.9836358050015406,1551.8278098339997,None,1551.8278098339997,None,6,1,0.9846351619999041,1552.7987066509995,None,1552.7987066509995,None,1552.7987066509995,None,1553.8002650159997,None,1,0.48486014000081923,1553.8002650159997,None,136,1554.3014408010004,None,104,B,1,2021_May_20_1047,GazeFlow,2020.1.2,59.88803859309933,
12,Block811.xls,B,11,5,32,32,None,congruent,Right,Right,Left,66,65,1,blue,2,5,/home/docky/apps/exp/images/66Bi.jpeg,/home/docky/apps/exp/images/35Y.jpeg,0,11,11,11,0,4,4,4,1555.302985403001,None,1555.302985403001,None,1,4.643039286000203,1555.302985403001,None,1559.9825201069998,None,1559.9825201069998,None,1562.4827315679995,None,1562.4827315679995,None,1.184081186000185,1564.2855775610005,None,1564.2855775610005,None,5,1,0.9179665219999151,1565.4564489700006,None,1565.4564489700006,None,1565.4564489700006,None,1566.3912614660003,None,1,0.6685216980004043,1566.3912614660003,None,138,1567.076163359001,None,104,B,1,2021_May_20_1047,GazeFlow,2020.1.2,59.88803859309933,
12,Block811.xls,B,11,6,67,67,None,congruent,Left,Left,Right,72,77,5,yellow,2,6,/home/docky/apps/exp/images/72Y.jpeg,/home/docky/apps/exp/images/77Yi.jpeg,0,11,11,11,0,5,5,5,1568.0776161680005,None,1568.0776161680005,None,1,4.158820802000264,1568.0776161680005,None,1572.2706943129997,None,1572.2706943129997,None,1574.7748207990007,None,1574.7748207990007,None,1.1004749200001243,1576.5768682449998,None,1576.5768682449998,None,6,1,0.9012496220002504,1577.6636721190007,None,1577.6636721190007,None,1577.6636721190007,None,1578.581352684001,None,1,0.5851720739992743,1578.581352684001,None,140,1579.182672762001,None,104,B,1,2021_May_20_1047,GazeFlow,2020.1.2,59.88803859309933,
12,Block811.xls,B,11,7,120,24,None,incongruent,Left,Right,Left,77,72,5,yellow,2,5,/home/docky/apps/exp/images/77Y.jpeg,/home/docky/apps/exp/images/72Yi.jpeg,0,11,11,11,0,6,6,6,1580.1845965350003,None,1580.1845965350003,None,1,4.960270931000196,1580.1845965350003,None,1585.179531564001,None,1585.179531564001,None,1587.6816849879997,None,1587.6816849879997,None,1.2674280689989246,1589.4845072490007,None,1589.4845072490007,None,5,1,1.0184710470002756,1590.7388739159996,None,1590.7388739159996,None,1590.7388739159996,None,1591.7736876790004,None,1,0.6017247389991098,1591.7736876790004,None,142,1592.3920372000011,None,104,B,1,2021_May_20_1047,GazeFlow,2020.1.2,59.88803859309933,
12,Block811.xls,B,11,8,57,57,None,congruent,Left,Left,Right,62,65,3,yellow,2,6,/home/docky/apps/exp/images/38Bi.jpeg,/home/docky/apps/exp/images/35B.jpeg,0,11,11,11,0,7,7,7,1593.3935470489996,None,1593.3935470489996,None,1,4.14197797000088,1593.3935470489996,None,1597.567828004001,None,1597.567828004001,None,1600.072392098,None,1600.072392098,None,1.000207032999242,1601.875502500001,None,1601.875502500001,None,6,1,0.9848413610015996,1602.8625239909998,None,1602.8625239909998,None,1602.8625239909998,None,1603.8638404560006,None,1,0.5866758320007648,1603.8638404560006,None,144,1604.4656709650008,None,104,B,1,2021_May_20_1047,GazeFlow,2020.1.2,59.88803859309933,
12,Block811.xls,B,,,,,,,,,,,,,,,,,,0,11,11,11,,,,,,,,,,,,,,,,,,,,,,,,,,,,,,,,,,,,,,,,,,,,104,B,1,2021_May_20_1047,GazeFlow,2020.1.2,59.88803859309933,
13,Block808.xls,B,8,1,118,22,None,incongruent,Left,Right,Left,75,69,6,yellow,2,5,/home/docky/apps/exp/images/76Y.jpeg,/home/docky/apps/exp/images/69Yi.jpeg,0,12,12,12,0,0,0,0,1627.4394386080003,None,1627.4394386080003,None,1,4.199193335998643,1627.4394386080003,None,1631.6659070650003,None,1631.6659070650003,None,1634.1904218910004,None,1634.1904218910004,None,1.2835663730002125,1635.977445867,None,1635.977445867,None,5,1,0.9178846869999688,1637.2459699419996,None,1637.2459699419996,None,1637.2459699419996,None,1638.1804594120003,None,1,0.6013069729997369,1638.1804594120003,None,146,1638.7987335770013,None,104,B,1,2021_May_20_1047,GazeFlow,2020.1.2,59.88803859309933,
13,Block808.xls,B,8,2,7,7,None,congruent,Left,Left,Right,65,66,1,blue,2,6,/home/docky/apps/exp/images/35Yi.jpeg,/home/docky/apps/exp/images/66B.jpeg,0,12,12,12,0,1,1,1,1639.8002716660012,None,1639.8002716660012,None,1,3.6580926879996696,1639.8002716660012,None,1643.4919620540004,None,1643.4919620540004,None,1645.996761186001,None,1645.996761186001,None,0.99989082600041,1647.7936719999998,None,1647.7936719999998,None,6,1,0.934281325999109,1648.785277461,None,1648.785277461,None,1648.785277461,None,1649.7363067620008,None,1,0.4844840519999707,1649.7363067620008,None,148,1650.2373149249997,None,104,B,1,2021_May_20_1047,GazeFlow,2020.1.2,59.88803859309933,
13,Block808.xls,B,8,3,112,16,None,incongruent,Right,Left,Right,69,76,7,yellow,2,6,/home/docky/apps/exp/images/69Yi.jpeg,/home/docky/apps/exp/images/76Y.jpeg,0,12,12,12,0,2,2,2,1651.239206690001,None,1651.239206690001,None,1,4.994220955999481,1651.239206690001,None,1656.2668298150002,None,1656.2668298150002,None,1658.7699105499996,None,1658.7699105499996,None,1.2005738970001403,1660.572451205,None,1660.572451205,None,6,1,1.018221590999019,1661.7602791410009,None,1661.7602791410009,None,1661.7602791410009,None,1662.7952700290007,None,1,0.5686200399995869,1662.7952700290007,None,150,1663.379687038001,None,104,B,1,2021_May_20_1047,GazeFlow,2020.1.2,59.88803859309933,
13,Block808.xls,B,8,4,97,1,None,incongruent,Right,Left,Right,16,19,3,blue,2,6,/home/docky/apps/exp/images/16Bi.jpeg,/home/docky/apps/exp/images/19B.jpeg,0,12,12,12,0,3,3,3,1664.3814905380004,None,1664.3814905380004,None,1,4.4092949030000455,1664.3814905380004,None,1668.8229026879999,None,1668.8229026879999,None,1671.3276958759998,None,1671.3276958759998,None,1.050183695000669,1673.1310143970004,None,1673.1310143970004,None,6,1,1.051251876000606,1674.167722049,None,1674.167722049,None,1674.167722049,None,1675.2358389270012,None,1,0.5683427789990674,1675.2358389270012,None,152,1675.8208221510013,None,104,B,1,2021_May_20_1047,GazeFlow,2020.1.2,59.88803859309933,
13,Block808.xls,B,8,5,24,24,None,congruent,Left,Left,Right,80,83,3,blue,2,6,/home/docky/apps/exp/images/80Bi.jpeg,/home/docky/apps/exp/images/83B.jpeg,0,12,12,12,0,4,4,4,1676.822348754,None,1676.822348754,None,1,4.726936294000552,1676.822348754,None,1681.5825902280012,None,1681.5825902280012,None,1684.0873658150012,None,1684.0873658150012,None,1.1334974699984741,1685.8883206760001,None,1685.8883206760001,None,6,1,1.034750665001411,1687.009399396,None,1687.009399396,None,1687.009399396,None,1688.0608870470005,None,1,0.5686441490015568,1688.0608870470005,None,154,1688.6457080600012,None,104,B,1,2021_May_20_1047,GazeFlow,2020.1.2,59.88803859309933,
13,Block808.xls,B,8,6,13,13,None,congruent,Left,Left,Right,38,39,1,blue,2,6,/home/docky/apps/exp/images/38Bi.jpeg,/home/docky/apps/exp/images/39B.jpeg,0,12,12,12,0,5,5,5,1689.6472997560013,None,1689.6472997560013,None,1,4.6262927090010635,1689.6472997560013,None,1694.305822481001,None,1694.305822481001,None,1696.8110544660012,None,1696.8110544660012,None,1.1170100870003807,1698.6138226740004,None,1698.6138226740004,None,6,1,0.9849021230002108,1699.7172276710007,None,1699.7172276710007,None,1699.7172276710007,None,1700.7190003630003,None,1,0.5510209880012553,1700.7190003630003,None,156,1701.286478942,None,104,B,1,2021_May_20_1047,GazeFlow,2020.1.2,59.88803859309933,
13,Block808.xls,B,8,7,8,8,None,congruent,Left,Left,Right,65,66,1,blue,2,6,/home/docky/apps/exp/images/35Y.jpeg,/home/docky/apps/exp/images/66Bi.jpeg,0,12,12,12,0,6,6,6,1702.2882938969997,None,1702.2882938969997,None,1,4.643531669000367,1702.2882938969997,None,1706.9655636750012,None,1706.9655636750012,None,1709.468567494001,None,1709.468567494001,None,1.1671541800005798,1711.2717721299996,None,1711.2717721299996,None,6,1,1.1015600640002958,1712.4253179059997,None,1712.4253179059997,None,1712.4253179059997,None,1713.5439066180006,None,1,0.5514180320005835,1713.5439066180006,None,158,1714.1118233939997,None,104,B,1,2021_May_20_1047,GazeFlow,2020.1.2,59.88803859309933,
13,Block808.xls,B,8,8,31,31,None,congruent,Right,Right,Left,66,65,1,blue,2,5,/home/docky/apps/exp/images/66B.jpeg,/home/docky/apps/exp/images/35Yi.jpeg,0,12,12,12,0,7,7,7,1715.1133535380013,None,1715.1133535380013,None,1,4.443100864000371,1715.1133535380013,None,1719.589219032001,None,1719.589219032001,None,1722.092901469001,None,1722.092901469001,None,1.000052979999964,1723.896419707,None,1723.896419707,None,5,1,0.9680966549985897,1724.882968408001,None,1724.882968408001,None,1724.882968408001,None,1725.8678991390007,None,1,0.751833385998907,1725.8678991390007,None,160,1726.636223548001,None,104,B,1,2021_May_20_1047,GazeFlow,2020.1.2,59.88803859309933,
13,Block808.xls,B,,,,,,,,,,,,,,,,,,0,12,12,12,,,,,,,,,,,,,,,,,,,,,,,,,,,,,,,,,,,,,,,,,,,,104,B,1,2021_May_20_1047,GazeFlow,2020.1.2,59.88803859309933,
14,Block815.xls,B,15,1,65,65,None,congruent,Left,Left,Right,69,76,7,yellow,2,6,/home/docky/apps/exp/images/69Yi.jpeg,/home/docky/apps/exp/images/76Y.jpeg,0,13,13,13,0,0,0,0,1752.1713347610003,None,1752.1713347610003,None,1,4.232886484000119,1752.1713347610003,None,1756.428185064,None,1756.428185064,None,1758.9496971150002,None,1758.9496971150002,None,0.9163199800004804,1760.74625285,None,1760.74625285,None,6,1,0.9848595589992328,1761.6543809699997,None,1761.6543809699997,None,1761.6543809699997,None,1762.6556548000008,None,1,0.6186124359992391,1762.6556548000008,None,162,1763.2906498070006,None,104,B,1,2021_May_20_1047,GazeFlow,2020.1.2,59.88803859309933,
14,Block815.xls,B,15,2,102,6,None,incongruent,Right,Left,Right,80,83,3,blue,2,6,/home/docky/apps/exp/images/80B.jpeg,/home/docky/apps/exp/images/83Bi.jpeg,0,13,13,13,0,1,1,1,1764.2922302200004,None,1764.2922302200004,None,1,5.194110495000132,1764.2922302200004,None,1769.5199932590003,None,1769.5199932590003,None,1772.024957122001,None,1772.024957122001,None,1.1504080579998117,1773.8242194040013,None,1773.8242194040013,None,6,1,0.9681259999997565,1774.9633327020001,None,1774.9633327020001,None,1774.9633327020001,None,1775.9482253900005,None,1,0.5682460480002192,1775.9482253900005,None,164,1776.533142907001,None,104,B,1,2021_May_20_1047,GazeFlow,2020.1.2,59.88803859309933,
14,Block815.xls,B,15,3,33,33,None,congruent,Right,Right,Left,66,65,1,blue,2,5,/home/docky/apps/exp/images/66Bi.jpeg,/home/docky/apps/exp/images/35Y.jpeg,0,13,13,13,0,2,2,2,1777.5348079640007,None,1777.5348079640007,None,1,5.277429116998974,1777.5348079640007,None,1782.8467143119997,None,1782.8467143119997,None,1785.3492995720007,None,1785.3492995720007,None,1.0336471929986146,1787.1543356230013,None,1787.1543356230013,None,5,1,0.9346982839997509,1788.1727338769997,None,1788.1727338769997,None,1788.1727338769997,None,1789.1237310830002,None,1,0.6520609620001778,1789.1237310830002,None,166,1789.7919473929996,None,104,B,1,2021_May_20_1047,GazeFlow,2020.1.2,59.88803859309933,
14,Block815.xls,B,15,4,72,72,None,congruent,Left,Left,Right,79,82,3,yellow,2,6,/home/docky/apps/exp/images/79Yi.jpeg,/home/docky/apps/exp/images/80Y.jpeg,0,13,13,13,0,3,3,3,1790.7935685770008,None,1790.7935685770008,None,1,4.7432604629993875,1790.7935685770008,None,1795.570729594001,None,1795.570729594001,None,1798.073891506001,None,1798.073891506001,None,1.0669944599994778,1799.87731842,None,1799.87731842,None,6,1,0.9681968519998918,1800.9305124170005,None,1800.9305124170005,None,1800.9305124170005,None,1801.9157015790006,None,1,0.5680935140007932,1801.9157015790006,None,168,1802.499723459001,None,104,B,1,2021_May_20_1047,GazeFlow,2020.1.2,59.88803859309933,
14,Block815.xls,B,15,5,100,4,None,incongruent,Right,Left,Right,73,76,3,blue,2,6,/home/docky/apps/exp/images/73B.jpeg,/home/docky/apps/exp/images/76Bi.jpeg,0,13,13,13,0,4,4,4,1803.5019487460013,None,1803.5019487460013,None,1,4.626279045000047,1803.5019487460013,None,1808.1619643600006,None,1808.1619643600006,None,1810.6665118700002,None,1810.6665118700002,None,1.3174925780003832,1812.4689188890006,None,1812.4689188890006,None,6,1,0.9353730140010157,1813.772367308,None,1813.772367308,None,1813.772367308,None,1814.7239051100005,None,1,0.46781842699965637,1814.7239051100005,None,170,1815.2082305719996,None,104,B,1,2021_May_20_1047,GazeFlow,2020.1.2,59.88803859309933,
14,Block815.xls,B,15,6,45,45,None,congruent,Right,Right,Left,39,38,1,blue,2,5,/home/docky/apps/exp/images/39B.jpeg,/home/docky/apps/exp/images/38Bi.jpeg,0,13,13,13,0,5,5,5,1816.2098805260011,None,1816.2098805260011,None,1,4.459370863000004,1816.2098805260011,None,1820.7029422510004,None,1820.7029422510004,None,1823.2055527320008,None,1823.2055527320008,None,1.0502595070011012,1825.0087893590007,None,1825.0087893590007,None,5,1,0.9512314029998379,1826.0461184529995,None,1826.0461184529995,None,1826.0461184529995,None,1827.0138282860007,None,1,0.5185487250000733,1827.0138282860007,None,172,1827.548823743,None,104,B,1,2021_May_20_1047,GazeFlow,2020.1.2,59.88803859309933,
14,Block815.xls,B,15,7,98,2,None,incongruent,Right,Left,Right,35,38,3,blue,2,6,/home/docky/apps/exp/images/35Bi.jpeg,/home/docky/apps/exp/images/38B.jpeg,0,13,13,13,0,6,6,6,1828.5502830250007,None,1828.5502830250007,None,1,3.9248048209992703,1828.5502830250007,None,1832.5090243819996,None,1832.5090243819996,None,1835.0122162259995,None,1835.0122162259995,None,1.1172674350000307,1836.8097059749998,None,1836.8097059749998,None,6,1,0.9344041720014502,1837.9193074880004,None,1837.9193074880004,None,1837.9193074880004,None,1838.8704961860003,None,1,0.5341537339991191,1838.8704961860003,None,174,1839.422058813001,None,104,B,1,2021_May_20_1047,GazeFlow,2020.1.2,59.88803859309933,
14,Block815.xls,B,15,8,59,59,None,congruent,Left,Left,Right,38,39,1,yellow,2,6,/home/docky/apps/exp/images/38Yi.jpeg,/home/docky/apps/exp/images/39Y.jpeg,0,13,13,13,0,7,7,7,1840.423232164001,None,1840.423232164001,None,1,4.059292644000379,1840.423232164001,None,1844.5158508980003,None,1844.5158508980003,None,1847.018678548,None,1847.018678548,None,1.1169153280006867,1848.8169517280003,None,1848.8169517280003,None,6,1,0.9345205839999835,1849.9258814719997,None,1849.9258814719997,None,1849.9258814719997,None,1850.8769849710006,None,1,0.5681237310000142,1850.8769849710006,None,176,1851.4614321919998,None,104,B,1,2021_May_20_1047,GazeFlow,2020.1.2,59.88803859309933,
14,Block815.xls,B,,,,,,,,,,,,,,,,,,0,13,13,13,,,,,,,,,,,,,,,,,,,,,,,,,,,,,,,,,,,,,,,,,,,,104,B,1,2021_May_20_1047,GazeFlow,2020.1.2,59.88803859309933,
15,Block807.xls,B,7,1,71,71,None,congruent,Left,Left,Right,79,82,3,yellow,2,6,/home/docky/apps/exp/images/79Y.jpeg,/home/docky/apps/exp/images/80Yi.jpeg,0,14,14,14,0,0,0,0,1873.0370222710008,None,1873.0370222710008,None,1,4.617569993999496,1873.0370222710008,None,1877.6830316819996,None,1877.6830316819996,None,1880.2017778339996,None,1880.2017778339996,None,0.7655834279994451,1882.005471466,None,1882.005471466,None,6,1,1.2018212399998447,1882.7562423510008,None,1882.7562423510008,None,1882.7562423510008,None,1883.9745675699996,None,1,0.5017417130002286,1883.9745675699996,None,178,1884.492696333,None,104,B,1,2021_May_20_1047,GazeFlow,2020.1.2,59.88803859309933,
15,Block807.xls,B,7,2,44,44,None,congruent,Right,Right,Left,83,80,3,blue,2,5,/home/docky/apps/exp/images/83Bi.jpeg,/home/docky/apps/exp/images/80B.jpeg,0,14,14,14,0,1,1,1,1885.494418012,None,1885.494418012,None,1,4.109014300000126,1885.494418012,None,1889.63686461,None,1889.63686461,None,1892.139918242001,None,1892.139918242001,None,1.0335187109994877,1893.9424981520006,None,1893.9424981520006,None,5,1,1.0013665110000147,1894.963270055001,None,1894.963270055001,None,1894.963270055001,None,1895.981486173001,None,1,0.7686244699998497,1895.981486173001,None,180,1896.7666364180004,None,104,B,1,2021_May_20_1047,GazeFlow,2020.1.2,59.88803859309933,
15,Block807.xls,B,7,3,48,48,None,congruent,Right,Right,Left,39,38,1,blue,2,5,/home/docky/apps/exp/images/39Bi.jpeg,/home/docky/apps/exp/images/38B.jpeg,0,14,14,14,0,2,2,2,1897.768137418001,None,1897.768137418001,None,1,3.791427129999647,1897.768137418001,None,1901.5933781599997,None,1901.5933781599997,None,1904.096411251001,None,1904.096411251001,None,0.9835872999992716,1905.9015242839996,None,1905.9015242839996,None,5,1,0.9850453490016662,1906.869677367,None,1906.869677367,None,1906.869677367,None,1907.8708723290001,None,1,0.5846682369992777,1907.8708723290001,None,182,1908.4720302210008,None,104,B,1,2021_May_20_1047,GazeFlow,2020.1.2,59.88803859309933,
15,Block807.xls,B,7,4,113,17,None,incongruent,Right,Left,Right,72,77,5,yellow,2,6,/home/docky/apps/exp/images/72Yi.jpeg,/home/docky/apps/exp/images/77Y.jpeg,0,14,14,14,0,3,3,3,1909.4740342460009,None,1909.4740342460009,None,1,4.543448148999232,1909.4740342460009,None,1914.0508980670002,None,1914.0508980670002,None,1916.553816918,None,1916.553816918,None,1.3506675709995761,1918.3568072220005,None,1918.3568072220005,None,6,1,0.968530351001391,1919.6947373050007,None,1919.6947373050007,None,1919.6947373050007,None,1920.679582312001,None,1,0.5181024779994914,1920.679582312001,None,184,1921.2141126300012,None,104,B,1,2021_May_20_1047,GazeFlow,2020.1.2,59.88803859309933,
15,Block807.xls,B,7,5,69,69,None,congruent,Left,Left,Right,72,77,5,yellow,2,6,/home/docky/apps/exp/images/72Y.jpeg,/home/docky/apps/exp/images/77Yi.jpeg,0,14,14,14,0,4,4,4,1922.2157440789997,None,1922.2157440789997,None,1,4.259225419998984,1922.2157440789997,None,1926.508458444001,None,1926.508458444001,None,1929.011291334,None,1929.011291334,None,1.0336777299999085,1930.809596309,None,1930.809596309,None,6,1,1.0348416449996876,1931.8348859590005,None,1931.8348859590005,None,1931.8348859590005,None,1932.8862348359999,None,1,0.5018678820015339,1932.8862348359999,None,186,1933.4043979489998,None,104,B,1,2021_May_20_1047,GazeFlow,2020.1.2,59.88803859309933,
15,Block807.xls,B,7,6,39,39,None,congruent,Right,Right,Left,79,76,3,blue,2,5,/home/docky/apps/exp/images/79B.jpeg,/home/docky/apps/exp/images/76Bi.jpeg,0,14,14,14,0,5,5,5,1934.4060358450006,None,1934.4060358450006,None,1,4.392532123998535,1934.4060358450006,None,1938.8324215720004,None,1938.8324215720004,None,1941.3357113010006,None,1941.3357113010006,None,1.1503141100001812,1943.1408206610013,None,1943.1408206610013,None,5,1,0.851184787999955,1944.275975468001,None,1944.275975468001,None,1944.275975468001,None,1945.1435372340002,None,1,0.5177967279996665,1945.1435372340002,None,188,1945.6780889359998,None,104,B,1,2021_May_20_1047,GazeFlow,2020.1.2,59.88803859309933,
15,Block807.xls,B,7,7,50,50,None,congruent,Left,Left,Right,33,35,2,yellow,2,6,/home/docky/apps/exp/images/33Y.jpeg,/home/docky/apps/exp/images/35Yi.jpeg,0,14,14,14,0,6,6,6,1946.680009828,None,1946.680009828,None,1,5.060650061999695,1946.680009828,None,1951.7743015300002,None,1951.7743015300002,None,1954.279353244001,None,1954.279353244001,None,1.1671758480006247,1956.0800411220007,None,1956.0800411220007,None,6,1,0.9511610999998084,1957.234339445,None,1957.234339445,None,1957.234339445,None,1958.2019269110006,None,1,0.5851822759996139,1958.2019269110006,None,190,1958.8037575449998,None,104,B,1,2021_May_20_1047,GazeFlow,2020.1.2,59.88803859309933,
15,Block807.xls,B,7,8,19,19,None,congruent,Left,Left,Right,76,79,3,blue,2,6,/home/docky/apps/exp/images/76B.jpeg,/home/docky/apps/exp/images/79Bi.jpeg,0,14,14,14,0,7,7,7,1959.805308768,None,1959.805308768,None,1,4.125873866998518,1959.805308768,None,1963.9648292969996,None,1963.9648292969996,None,1966.4676008980005,None,1966.4676008980005,None,1.0838268640000024,1968.2710220090012,None,1968.2710220090012,None,6,1,1.018168485001297,1969.340979861001,None,1969.340979861001,None,1969.340979861001,None,1970.3761525570008,None,1,0.5513836599984643,1970.3761525570008,None,192,1970.9435928210005,None,104,B,1,2021_May_20_1047,GazeFlow,2020.1.2,59.88803859309933,
15,Block807.xls,B,,,,,,,,,,,,,,,,,,0,14,14,14,,,,,,,,,,,,,,,,,,,,,,,,,,,,,,,,,,,,,,,,,,,,104,B,1,2021_May_20_1047,GazeFlow,2020.1.2,59.88803859309933,
