Nblock,condsFile,grouping,Block,TrialBlock,N,trialN,trialCond,gazeCon,gazedirR,corrBinR,corrBinP,valLBY,valRBY,diff,colorCube,feedbacktext,corrAns,imageL,imageR,SelBlocks.thisRepN,SelBlocks.thisTrialN,SelBlocks.thisN,SelBlocks.thisIndex,Trials.thisRepN,Trials.thisTrialN,Trials.thisN,Trials.thisIndex,waitCube.started,waitCube.stopped,text_3.started,text_3.stopped,StartKeyPress.keys,StartKeyPress.rt,StartKeyPress.started,StartKeyPress.stopped,StimL.started,StimL.stopped,StimR.started,StimR.stopped,imageStim2L.started,imageStim2L.stopped,imageStim2R.started,imageStim2R.stopped,RTkeyRelease,imageStim3L.started,imageStim3L.stopped,imageStim3R.started,imageStim3R.stopped,dropResp.keys,dropResp.corr,dropResp.rt,dropResp.started,dropResp.stopped,imageStim5L.started,imageStim5L.stopped,imageStim5R.started,imageStim5R.stopped,text_2.started,text_2.stopped,ReturnSpace.keys,ReturnSpace.rt,ReturnSpace.started,ReturnSpace.stopped,totalpoints,textFeedback.started,textFeedback.stopped,participant,group,session,date,expName,psychopyVersion,frameRate,
1,Block502.xls,A,2,1,93,33,22,incongruent,Left,Right,Left,38,35,3,blue,2,5,/home/docky/apps/exp/images/38B.jpeg,/home/docky/apps/exp/images/35Bi.jpeg,0,0,0,0,0,0,0,0,68.79296199500095,None,68.79296199500095,None,1,13.34721153600185,68.79296199500095,None,82.1754037669998,None,82.1754037669998,None,84.69170599299832,None,84.69170599299832,None,1.6174119169991172,86.49398644499888,None,86.49398644499888,None,5,1,1.084891084999981,88.09490721199836,None,88.09490721199836,None,88.09490721199836,None,89.19628988600016,None,1,0.6850073630012048,89.19628988600016,None,2,89.89796488199863,None,105,A,1,2021_May_20_1436,GazeFlow,2020.1.2,59.83338245863109,
1,Block502.xls,A,2,2,42,42,12,congruent,Right,Right,Left,83,80,3,blue,2,5,/home/docky/apps/exp/images/83Bi.jpeg,/home/docky/apps/exp/images/80B.jpeg,0,0,0,0,0,1,1,1,90.89976719499828,None,90.89976719499828,None,1,4.526181910998275,90.89976719499828,None,95.4597214710011,None,95.4597214710011,None,97.96300202400016,None,97.96300202400016,None,1.6347393409996585,99.76083022500097,None,99.76083022500097,None,5,1,1.1018437259990606,101.38769021400003,None,101.38769021400003,None,101.38769021400003,None,102.50603610200051,None,1,0.7343729560016072,102.50603610200051,None,4,103.25711806199979,None,105,A,1,2021_May_20_1436,GazeFlow,2020.1.2,59.83338245863109,
1,Block502.xls,A,2,3,9,9,11,congruent,Left,Left,Right,38,39,1,blue,2,6,/home/docky/apps/exp/images/38Bi.jpeg,/home/docky/apps/exp/images/39B.jpeg,0,0,0,0,0,2,2,2,104.25891504600077,None,104.25891504600077,None,1,5.86211759499929,104.25891504600077,None,110.1528961949989,None,110.1528961949989,None,112.65968853400045,None,112.65968853400045,None,1.6848005649990228,114.46123588999762,None,114.46123588999762,None,6,1,1.1020415669991053,116.13273130699963,None,116.13273130699963,None,116.13273130699963,None,117.25129830600054,None,1,0.6674551629985217,117.25129830600054,None,6,117.93550950799909,None,105,A,1,2021_May_20_1436,GazeFlow,2020.1.2,59.83338245863109,
1,Block502.xls,A,2,4,23,23,11,congruent,Left,Left,Right,38,39,1,yellow,2,6,/home/docky/apps/exp/images/38Yi.jpeg,/home/docky/apps/exp/images/39Y.jpeg,0,0,0,0,0,3,3,3,118.93804662399998,None,118.93804662399998,None,1,4.642998453000473,118.93804662399998,None,123.61447179599782,None,123.61447179599782,None,126.11697453399756,None,126.11697453399756,None,1.4176334879994101,127.9157456699977,None,127.9157456699977,None,6,1,1.1021381560021837,129.32499538199772,None,129.32499538199772,None,129.32499538199772,None,130.44351484000072,None,1,0.6840209789988876,130.44351484000072,None,8,131.1443759670001,None,105,A,1,2021_May_20_1436,GazeFlow,2020.1.2,59.83338245863109,
1,Block502.xls,A,2,5,57,57,12,congruent,Right,Right,Left,77,72,5,yellow,2,5,/home/docky/apps/exp/images/77Y.jpeg,/home/docky/apps/exp/images/72Yi.jpeg,0,0,0,0,0,4,4,4,132.14659295599995,None,132.14659295599995,None,1,4.526054220001242,132.14659295599995,None,136.70645540199985,None,136.70645540199985,None,139.21134913499918,None,139.21134913499918,None,1.2171785299979092,141.01499407499796,None,141.01499407499796,None,6,0,0.9678828200012504,142.2167199180003,None,142.2167199180003,None,142.2167199180003,None,143.20113996500004,None,1,0.468586023998796,143.20113996500004,None,6,143.6859836429976,None,105,A,1,2021_May_20_1436,GazeFlow,2020.1.2,59.83338245863109,
1,Block502.xls,A,2,6,118,58,22,incongruent,Left,Right,Left,80,79,1,yellow,2,5,/home/docky/apps/exp/images/80Yi.jpeg,/home/docky/apps/exp/images/79Y.jpeg,0,0,0,0,0,5,5,5,144.6877730519991,None,144.6877730519991,None,1,4.893732829998044,144.6877730519991,None,149.61477669899978,None,149.61477669899978,None,152.1196997099978,None,152.1196997099978,None,1.5012977990008949,153.916473063,None,153.916473063,None,5,1,0.9525055789999897,155.4088007829996,None,155.4088007829996,None,155.4088007829996,None,156.377280435001,None,1,0.5676691879998543,156.377280435001,None,8,156.96115025700055,None,105,A,1,2021_May_20_1436,GazeFlow,2020.1.2,59.83338245863109,
1,Block502.xls,A,2,7,101,41,22,incongruent,Left,Right,Left,83,80,3,blue,2,5,/home/docky/apps/exp/images/83Bi.jpeg,/home/docky/apps/exp/images/80B.jpeg,0,0,0,0,0,6,6,6,157.96335536699917,None,157.96335536699917,None,1,4.977120603001822,157.96335536699917,None,162.97453007600052,None,162.97453007600052,None,165.47716641199804,None,165.47716641199804,None,1.4510637620005582,167.2805972669994,None,167.2805972669994,None,5,1,0.9350099129987939,168.71799074199953,None,168.71799074199953,None,168.71799074199953,None,169.6697846829993,None,1,0.6345650360017316,169.6697846829993,None,10,170.32058804400003,None,105,A,1,2021_May_20_1436,GazeFlow,2020.1.2,59.83338245863109,
1,Block502.xls,A,2,8,69,9,21,incongruent,Right,Left,Right,73,76,3,blue,2,6,/home/docky/apps/exp/images/73B.jpeg,/home/docky/apps/exp/images/76Bi.jpeg,0,0,0,0,0,7,7,7,171.3223115519977,None,171.3223115519977,None,1,4.743448568999156,171.3223115519977,None,176.09756897199986,None,176.09756897199986,None,178.60272668099788,None,178.60272668099788,None,1.567919069002528,180.40585550600008,None,180.40585550600008,None,6,1,1.1019696169969393,181.9607087789991,None,181.9607087789991,None,181.9607087789991,None,183.07919329799915,None,1,0.6674324060004437,183.07919329799915,None,12,183.76359703300113,None,105,A,1,2021_May_20_1436,GazeFlow,2020.1.2,59.83338245863109,
1,Block502.xls,A,,,,,,,,,,,,,,,,,,0,0,0,0,,,,,,,,,,,,,,,,,,,,,,,,,,,,,,,,,,,,,,,,,,,,105,A,1,2021_May_20_1436,GazeFlow,2020.1.2,59.83338245863109,
2,Block506.xls,A,6,1,120,60,22,incongruent,Left,Right,Left,80,79,1,yellow,2,5,/home/docky/apps/exp/images/80Yi.jpeg,/home/docky/apps/exp/images/79Y.jpeg,0,1,1,1,0,0,0,0,203.5858941869992,None,203.5858941869992,None,1,4.467693333997886,203.5858941869992,None,208.08043032699788,None,208.08043032699788,None,210.5999903539996,None,210.5999903539996,None,1.350270222999825,212.40333710100094,None,212.40333710100094,None,5,1,0.9848103660006018,213.7387336899992,None,213.7387336899992,None,213.7387336899992,None,214.74044291999962,None,1,0.7009990719998314,214.74044291999962,None,14,215.45859556399955,None,105,A,1,2021_May_20_1436,GazeFlow,2020.1.2,59.83338245863109,
2,Block506.xls,A,6,2,51,51,12,congruent,Right,Right,Left,66,65,1,yellow,2,5,/home/docky/apps/exp/images/66Y.jpeg,/home/docky/apps/exp/images/35Bi.jpeg,0,1,1,1,0,1,1,1,216.46025669499795,None,216.46025669499795,None,1,4.225934238998889,216.46025669499795,None,220.7193432799977,None,220.7193432799977,None,223.22464982100064,None,223.22464982100064,None,1.4844375300017418,225.02630756500002,None,225.02630756500002,None,6,0,1.1689138559995627,226.49707108599978,None,226.49707108599978,None,226.49707108599978,None,227.68241530999876,None,1,0.9016925869982515,227.68241530999876,None,12,228.6006045260001,None,105,A,1,2021_May_20_1436,GazeFlow,2020.1.2,59.83338245863109,
2,Block506.xls,A,6,3,119,59,22,incongruent,Left,Right,Left,80,79,1,yellow,2,5,/home/docky/apps/exp/images/80Y.jpeg,/home/docky/apps/exp/images/79Yi.jpeg,0,1,1,1,0,2,2,2,229.60284175299967,None,229.60284175299967,None,1,5.010436110998853,229.60284175299967,None,234.64693602400075,None,234.64693602400075,None,237.15135759300028,None,237.15135759300028,None,1.5846687820012448,238.95177327599959,None,238.95177327599959,None,5,1,1.0189158610010054,240.5241033780003,None,240.5241033780003,None,240.5241033780003,None,241.55948985799841,None,1,0.6344888099993113,241.55948985799841,None,14,242.21036848199947,None,105,A,1,2021_May_20_1436,GazeFlow,2020.1.2,59.83338245863109,
2,Block506.xls,A,6,4,28,28,11,congruent,Left,Left,Right,72,77,5,yellow,2,6,/home/docky/apps/exp/images/72Y.jpeg,/home/docky/apps/exp/images/77Yi.jpeg,0,1,1,1,0,3,3,3,243.2120167369976,None,243.2120167369976,None,1,5.160904096002923,243.2120167369976,None,248.40655128100116,None,248.40655128100116,None,250.9098256549987,None,250.9098256549987,None,1.2673975370016706,252.71289073200023,None,252.71289073200023,None,6,1,0.9515648520027753,253.96687338599804,None,253.96687338599804,None,253.96687338599804,None,254.93482062399926,None,1,0.5354975080008444,254.93482062399926,None,16,255.4863760599983,None,105,A,1,2021_May_20_1436,GazeFlow,2020.1.2,59.83338245863109,
2,Block506.xls,A,6,5,85,25,21,incongruent,Right,Left,Right,69,75,6,yellow,2,6,/home/docky/apps/exp/images/69Y.jpeg,/home/docky/apps/exp/images/76Yi.jpeg,0,1,1,1,0,4,4,4,256.4880488859999,None,256.4880488859999,None,1,4.292580532001011,256.4880488859999,None,260.81389635899905,None,260.81389635899905,None,263.3190276409987,None,263.3190276409987,None,1.2171875049971277,265.1207276669993,None,265.1207276669993,None,6,1,0.9846663789976446,266.32437755999854,None,266.32437755999854,None,266.32437755999854,None,267.3255853160008,None,1,0.48542788099803147,267.3255853160008,None,18,267.82705060199805,None,105,A,1,2021_May_20_1436,GazeFlow,2020.1.2,59.83338245863109,
2,Block506.xls,A,6,6,71,11,21,incongruent,Right,Left,Right,76,79,3,blue,2,6,/home/docky/apps/exp/images/76B.jpeg,/home/docky/apps/exp/images/79Bi.jpeg,0,1,1,1,0,5,5,5,268.8286867079987,None,268.8286867079987,None,1,5.060462002998975,268.8286867079987,None,273.9230813489994,None,273.9230813489994,None,276.42766514899995,None,276.42766514899995,None,1.5012690199982899,278.2296054159997,None,278.2296054159997,None,6,1,1.1187843600018823,279.7170073019988,None,279.7170073019988,None,279.7170073019988,None,280.8520062210009,None,1,0.5673830350024218,280.8520062210009,None,20,281.43605899799877,None,105,A,1,2021_May_20_1436,GazeFlow,2020.1.2,59.83338245863109,
2,Block506.xls,A,6,7,56,56,12,congruent,Right,Right,Left,76,69,7,yellow,2,5,/home/docky/apps/exp/images/76Yi.jpeg,/home/docky/apps/exp/images/69Y.jpeg,0,1,1,1,0,6,6,6,282.43893169799776,None,282.43893169799776,None,1,4.54226997600199,282.43893169799776,None,287.0149668269987,None,287.0149668269987,None,289.51831817399943,None,289.51831817399943,None,1.3507852310031012,291.32315321200076,None,291.32315321200076,None,5,1,0.985251389000041,292.6587803090006,None,292.6587803090006,None,292.6587803090006,None,293.6606297819999,None,1,0.5510351559969422,293.6606297819999,None,22,294.2283487749992,None,105,A,1,2021_May_20_1436,GazeFlow,2020.1.2,59.83338245863109,
2,Block506.xls,A,6,8,33,33,12,congruent,Right,Right,Left,38,35,3,blue,2,5,/home/docky/apps/exp/images/38B.jpeg,/home/docky/apps/exp/images/35Bi.jpeg,0,1,1,1,0,7,7,7,295.22978499500095,None,295.22978499500095,None,1,4.409202980998089,295.22978499500095,None,299.67313087100047,None,299.67313087100047,None,302.17785072900006,None,302.17785072900006,None,1.567626301999553,303.97982846599916,None,303.97982846599916,None,5,1,0.918950979001238,305.53365194399885,None,305.53365194399885,None,305.53365194399885,None,306.4687379620009,None,1,0.7011135629982164,306.4687379620009,None,24,307.18634599099823,None,105,A,1,2021_May_20_1436,GazeFlow,2020.1.2,59.83338245863109,
2,Block506.xls,A,,,,,,,,,,,,,,,,,,0,1,1,1,,,,,,,,,,,,,,,,,,,,,,,,,,,,,,,,,,,,,,,,,,,,105,A,1,2021_May_20_1436,GazeFlow,2020.1.2,59.83338245863109,
3,Block505.xls,A,5,1,1,1,11,congruent,Left,Left,Right,16,19,3,blue,2,6,/home/docky/apps/exp/images/16Bi.jpeg,/home/docky/apps/exp/images/19B.jpeg,0,2,2,2,0,0,0,0,334.5402083879999,None,334.5402083879999,None,1,3.917271681002603,334.5402083879999,None,338.4850460109992,None,338.4850460109992,None,341.0062532839984,None,341.0062532839984,None,1.3669788590013923,342.7994568899994,None,342.7994568899994,None,6,1,1.0351495280010568,344.1587324639986,None,344.1587324639986,None,344.1587324639986,None,345.21038978700017,None,1,0.6512368000003335,345.21038978700017,None,26,345.87831649500004,None,105,A,1,2021_May_20_1436,GazeFlow,2020.1.2,59.83338245863109,
3,Block505.xls,A,5,2,10,10,11,congruent,Left,Left,Right,73,76,3,blue,2,6,/home/docky/apps/exp/images/73B.jpeg,/home/docky/apps/exp/images/76Bi.jpeg,0,2,2,2,0,1,1,1,346.8802889670005,None,346.8802889670005,None,1,4.6432777929985605,346.8802889670005,None,351.55735949099835,None,351.55735949099835,None,354.05945156300004,None,354.05945156300004,None,1.2669241869989492,355.8588675530009,None,355.8588675530009,None,5,0,0.9679452839991427,357.1173025930002,None,357.1173025930002,None,357.1173025930002,None,358.10194960199806,None,1,0.751376939999318,358.10194960199806,None,24,358.8699014329977,None,105,A,1,2021_May_20_1436,GazeFlow,2020.1.2,59.83338245863109,
3,Block505.xls,A,5,3,95,35,22,incongruent,Left,Right,Left,66,65,1,blue,2,5,/home/docky/apps/exp/images/66B.jpeg,/home/docky/apps/exp/images/35Yi.jpeg,0,2,2,2,0,2,2,2,359.8720784090001,None,359.8720784090001,None,1,6.2300088640004105,359.8720784090001,None,366.13543667499835,None,366.13543667499835,None,368.63862235600027,None,368.63862235600027,None,1.283877208999911,370.44103265399826,None,370.44103265399826,None,6,0,1.1353127609982039,371.7124384279996,None,371.7124384279996,None,371.7124384279996,None,372.8642998840005,None,1,0.6675280399977055,372.8642998840005,None,22,373.5486048579987,None,105,A,1,2021_May_20_1436,GazeFlow,2020.1.2,59.83338245863109,
3,Block505.xls,A,5,4,46,46,12,congruent,Right,Right,Left,35,33,2,yellow,2,5,/home/docky/apps/exp/images/35Yi.jpeg,/home/docky/apps/exp/images/33Y.jpeg,0,2,2,2,0,3,3,3,374.5506039690008,None,374.5506039690008,None,1,5.010763817001134,374.5506039690008,None,379.5948627510006,None,379.5948627510006,None,382.0995162219988,None,382.0995162219988,None,1.751329104998149,383.8966279640008,None,383.8966279640008,None,5,1,1.0690987960006169,385.639160101,None,385.639160101,None,385.639160101,None,386.72457103600027,None,1,0.6508021100016776,386.72457103600027,None,24,387.3920102230004,None,105,A,1,2021_May_20_1436,GazeFlow,2020.1.2,59.83338245863109,
3,Block505.xls,A,5,5,78,18,21,incongruent,Right,Left,Right,65,66,1,yellow,2,6,/home/docky/apps/exp/images/35Bi.jpeg,/home/docky/apps/exp/images/66Y.jpeg,0,2,2,2,0,4,4,4,388.39399853299983,None,388.39399853299983,None,1,4.944060614001501,388.39399853299983,None,393.371680854998,None,393.371680854998,None,395.8746239860011,None,395.8746239860011,None,1.8350880549987778,397.67815120399973,None,397.67815120399973,None,5,0,0.8687708959987503,399.4995261309996,None,399.4995261309996,None,399.4995261309996,None,400.38433838499986,None,1,0.6177066220006964,400.38433838499986,None,22,401.01865059099873,None,105,A,1,2021_May_20_1436,GazeFlow,2020.1.2,59.83338245863109,
3,Block505.xls,A,5,6,43,43,12,congruent,Right,Right,Left,83,80,3,blue,2,5,/home/docky/apps/exp/images/83B.jpeg,/home/docky/apps/exp/images/80Bi.jpeg,0,2,2,2,0,5,5,5,402.0206647060004,None,402.0206647060004,None,1,4.4095256500004325,402.0206647060004,None,406.46193662299993,None,406.46193662299993,None,408.9684775829992,None,408.9684775829992,None,1.3842869569998584,410.76545738799905,None,410.76545738799905,None,5,1,1.0023705439998594,412.1407542140005,None,412.1407542140005,None,412.1407542140005,None,413.1592740519991,None,1,0.6006533200015838,413.1592740519991,None,24,413.7767604799992,None,105,A,1,2021_May_20_1436,GazeFlow,2020.1.2,59.83338245863109,
3,Block505.xls,A,5,7,44,44,12,congruent,Right,Right,Left,39,38,1,blue,2,5,/home/docky/apps/exp/images/39Bi.jpeg,/home/docky/apps/exp/images/38B.jpeg,0,2,2,2,0,6,6,6,414.7787381470007,None,414.7787381470007,None,1,4.3590479220001725,414.7787381470007,None,419.1716510119986,None,419.1716510119986,None,421.6763160929986,None,421.6763160929986,None,1.4176761570015515,423.47986128499906,None,423.47986128499906,None,5,1,1.0854839000021457,424.8821735370002,None,424.8821735370002,None,424.8821735370002,None,425.9839810230005,None,1,0.5839704270001675,425.9839810230005,None,26,426.5847591149977,None,105,A,1,2021_May_20_1436,GazeFlow,2020.1.2,59.83338245863109,
3,Block505.xls,A,5,8,116,56,22,incongruent,Left,Right,Left,77,72,5,yellow,2,5,/home/docky/apps/exp/images/77Y.jpeg,/home/docky/apps/exp/images/72Y.jpeg,0,2,2,2,0,7,7,7,427.58692116900056,None,427.58692116900056,None,1,4.4764196800024365,427.58692116900056,None,432.09664797200094,None,432.09664797200094,None,434.60158152000076,None,434.60158152000076,None,1.3170472159981728,436.40524145900054,None,436.40524145900054,None,5,1,0.8680974330018216,437.7071155150006,None,437.7071155150006,None,437.7071155150006,None,438.59142375599913,None,1,0.6186445530001947,438.59142375599913,None,28,439.2265016679994,None,105,A,1,2021_May_20_1436,GazeFlow,2020.1.2,59.83338245863109,
3,Block505.xls,A,,,,,,,,,,,,,,,,,,0,2,2,2,,,,,,,,,,,,,,,,,,,,,,,,,,,,,,,,,,,,,,,,,,,,105,A,1,2021_May_20_1436,GazeFlow,2020.1.2,59.83338245863109,
4,Block509.xls,A,9,1,34,34,12,congruent,Right,Right,Left,38,35,3,blue,2,5,/home/docky/apps/exp/images/38Bi.jpeg,/home/docky/apps/exp/images/35B.jpeg,0,3,3,3,0,0,0,0,466.7809297849999,None,466.7809297849999,None,1,3.5473697109991917,466.7809297849999,None,470.3488251759991,None,470.3488251759991,None,472.87556926899924,None,472.87556926899924,None,1.4506361869971443,474.67940767099935,None,474.67940767099935,None,5,1,0.9854469099991547,476.11518193899974,None,476.11518193899974,None,476.11518193899974,None,477.11677153100027,None,1,0.8680412450012227,477.11677153100027,None,30,478.0015442369986,None,105,A,1,2021_May_20_1436,GazeFlow,2020.1.2,59.83338245863109,
4,Block509.xls,A,9,2,7,7,11,congruent,Left,Left,Right,65,66,1,blue,2,6,/home/docky/apps/exp/images/35Yi.jpeg,/home/docky/apps/exp/images/66B.jpeg,0,3,3,3,0,1,1,1,479.0035741389984,None,479.0035741389984,None,1,4.6767667790009,479.0035741389984,None,483.7135955169979,None,483.7135955169979,None,486.2165035559992,None,486.2165035559992,None,1.1002642109997396,488.0200034410009,None,488.0200034410009,None,6,1,0.9178390110027976,489.10691327699897,None,489.10691327699897,None,489.10691327699897,None,490.04178440100077,None,1,0.6342268260013952,490.04178440100077,None,32,490.6925429289986,None,105,A,1,2021_May_20_1436,GazeFlow,2020.1.2,59.83338245863109,
4,Block509.xls,A,9,3,74,14,21,incongruent,Right,Left,Right,80,83,3,blue,2,6,/home/docky/apps/exp/images/80B.jpeg,/home/docky/apps/exp/images/83Bi.jpeg,0,3,3,3,0,2,2,2,491.69453363199864,None,491.69453363199864,None,1,4.459447581000859,491.69453363199864,None,496.18780196199805,None,496.18780196199805,None,498.6912081139999,None,498.6912081139999,None,1.9855450410032063,500.49429204400076,None,500.49429204400076,None,6,1,1.0353640169996652,502.4660502609986,None,502.4660502609986,None,502.4660502609986,None,503.51747712499855,None,1,0.7348665640020045,503.51747712499855,None,34,504.2689836089994,None,105,A,1,2021_May_20_1436,GazeFlow,2020.1.2,59.83338245863109,
4,Block509.xls,A,9,4,19,19,11,congruent,Left,Left,Right,65,66,1,yellow,2,6,/home/docky/apps/exp/images/35Bi.jpeg,/home/docky/apps/exp/images/66Y.jpeg,0,3,3,3,0,3,3,3,505.27143509599773,None,505.27143509599773,None,1,4.860180730000138,505.27143509599773,None,510.16490648499894,None,510.16490648499894,None,512.6698757529994,None,512.6698757529994,None,1.6180603549983061,514.4734124749993,None,514.4734124749993,None,6,1,1.068419608000113,516.0758029850003,None,516.0758029850003,None,516.0758029850003,None,517.1605377220003,None,1,1.7039781860003131,517.1605377220003,None,36,518.8805957679979,None,105,A,1,2021_May_20_1436,GazeFlow,2020.1.2,59.83338245863109,
4,Block509.xls,A,9,5,60,60,12,congruent,Right,Right,Left,80,79,1,yellow,2,5,/home/docky/apps/exp/images/80Yi.jpeg,/home/docky/apps/exp/images/79Y.jpeg,0,3,3,3,0,4,4,4,519.8831015369979,None,519.8831015369979,None,1,4.175089251999452,519.8831015369979,None,524.0921114470002,None,524.0921114470002,None,526.5943954110007,None,526.5943954110007,None,1.8015624479994585,528.3985892849996,None,528.3985892849996,None,5,1,0.9351348650016007,530.1866679509985,None,530.1866679509985,None,530.1866679509985,None,531.1383265900004,None,1,0.6172855000004347,531.1383265900004,None,38,531.7722761059995,None,105,A,1,2021_May_20_1436,GazeFlow,2020.1.2,59.83338245863109,
4,Block509.xls,A,9,6,83,23,21,incongruent,Right,Left,Right,38,39,1,yellow,2,6,/home/docky/apps/exp/images/38Yi.jpeg,/home/docky/apps/exp/images/39Y.jpeg,0,3,3,3,0,5,5,5,532.7747243349986,None,532.7747243349986,None,1,5.126955607996933,532.7747243349986,None,537.9356590489988,None,537.9356590489988,None,540.4427526369982,None,540.4427526369982,None,1.7514997420003056,542.2420073129979,None,542.2420073129979,None,5,0,1.1359574550006073,543.9798277339978,None,543.9798277339978,None,543.9798277339978,None,545.1322068080008,None,1,0.6508010259967705,545.1322068080008,None,36,545.7999706019982,None,105,A,1,2021_May_20_1436,GazeFlow,2020.1.2,59.83338245863109,
4,Block509.xls,A,9,7,4,4,11,congruent,Left,Left,Right,35,38,3,blue,2,6,/home/docky/apps/exp/images/35B.jpeg,/home/docky/apps/exp/images/38Bi.jpeg,0,3,3,3,0,6,6,6,546.8015243160007,None,546.8015243160007,None,1,5.461879680002312,546.8015243160007,None,552.2964107309999,None,552.2964107309999,None,554.7992017350007,None,554.7992017350007,None,1.250700445001712,556.6028008709982,None,556.6028008709982,None,6,1,1.1354637859985814,557.8403277709986,None,557.8403277709986,None,557.8403277709986,None,558.9926006099995,None,1,0.5674238669998886,558.9926006099995,None,38,559.5766269339983,None,105,A,1,2021_May_20_1436,GazeFlow,2020.1.2,59.83338245863109,
4,Block509.xls,A,9,8,24,24,11,congruent,Left,Left,Right,38,39,1,yellow,2,6,/home/docky/apps/exp/images/38Y.jpeg,/home/docky/apps/exp/images/39Yi.jpeg,0,3,3,3,0,7,7,7,560.5787646940007,None,560.5787646940007,None,1,4.3090779119993385,560.5787646940007,None,564.9211802319987,None,564.9211802319987,None,567.4244806269999,None,567.4244806269999,None,1.985505585998908,569.227860242001,None,569.227860242001,None,6,1,1.034734741999273,571.1995910219994,None,571.1995910219994,None,571.1995910219994,None,572.251148659001,None,1,0.8015478460001759,572.251148659001,None,40,573.069541806999,None,105,A,1,2021_May_20_1436,GazeFlow,2020.1.2,59.83338245863109,
4,Block509.xls,A,,,,,,,,,,,,,,,,,,0,3,3,3,,,,,,,,,,,,,,,,,,,,,,,,,,,,,,,,,,,,,,,,,,,,105,A,1,2021_May_20_1436,GazeFlow,2020.1.2,59.83338245863109,
5,Block504.xls,A,4,1,11,11,11,congruent,Left,Left,Right,73,76,3,blue,2,6,/home/docky/apps/exp/images/73Bi.jpeg,/home/docky/apps/exp/images/76B.jpeg,0,4,4,4,0,0,0,0,605.6179209479997,None,605.6179209479997,None,1,6.369320653000614,605.6179209479997,None,612.017074192001,None,612.017074192001,None,614.5342049639985,None,614.5342049639985,None,1.4337237030013057,616.3358734190006,None,616.3358734190006,None,6,1,1.0680007789997035,617.7569315809997,None,617.7569315809997,None,617.7569315809997,None,618.8417235099987,None,1,0.651119383997866,618.8417235099987,None,42,619.5094022209996,None,105,A,1,2021_May_20_1436,GazeFlow,2020.1.2,59.83338245863109,
5,Block504.xls,A,4,2,87,27,21,incongruent,Right,Left,Right,72,77,5,yellow,2,6,/home/docky/apps/exp/images/72Y.jpeg,/home/docky/apps/exp/images/77Yi.jpeg,0,4,4,4,0,1,1,1,620.5115447190001,None,620.5115447190001,None,1,4.542853801001911,620.5115447190001,None,625.0886837350008,None,625.0886837350008,None,627.5932728279986,None,627.5932728279986,None,1.7014904120005667,629.3962402729994,None,629.3962402729994,None,6,1,1.0522998699998425,631.0824622190012,None,631.0824622190012,None,631.0824622190012,None,632.1511239069987,None,1,0.5842043930024374,632.1511239069987,None,44,632.7519747170008,None,105,A,1,2021_May_20_1436,GazeFlow,2020.1.2,59.83338245863109,
5,Block504.xls,A,4,3,48,48,12,congruent,Right,Right,Left,39,38,1,yellow,2,5,/home/docky/apps/exp/images/39Yi.jpeg,/home/docky/apps/exp/images/38Y.jpeg,0,4,4,4,0,2,2,2,633.7543215570004,None,633.7543215570004,None,1,4.6758874129991455,633.7543215570004,None,638.4640591770003,None,638.4640591770003,None,640.9672531069991,None,640.9672531069991,None,1.5847564440009592,642.7653528490009,None,642.7653528490009,None,5,1,1.0517826370014518,644.3417347760005,None,644.3417347760005,None,644.3417347760005,None,645.4101761309976,None,1,0.6008892829995602,645.4101761309976,None,46,646.027513656998,None,105,A,1,2021_May_20_1436,GazeFlow,2020.1.2,59.83338245863109,
5,Block504.xls,A,4,4,38,38,12,congruent,Right,Right,Left,79,73,6,blue,2,5,/home/docky/apps/exp/images/79B.jpeg,/home/docky/apps/exp/images/73Bi.jpeg,0,4,4,4,0,3,3,3,647.0300249479988,None,647.0300249479988,None,1,5.077253637002286,647.0300249479988,None,652.1405735599983,None,652.1405735599983,None,654.6432664509994,None,654.6432664509994,None,1.751490452003054,656.4491443929983,None,656.4491443929983,None,5,1,0.8182309690018883,658.1853300129987,None,658.1853300129987,None,658.1853300129987,None,659.0195550079989,None,1,0.4675843540026108,659.0195550079989,None,48,659.503746112001,None,105,A,1,2021_May_20_1436,GazeFlow,2020.1.2,59.83338245863109,
5,Block504.xls,A,4,5,2,2,11,congruent,Left,Left,Right,16,19,3,blue,2,6,/home/docky/apps/exp/images/16B.jpeg,/home/docky/apps/exp/images/19Bi.jpeg,0,4,4,4,0,4,4,4,660.5058252319977,None,660.5058252319977,None,1,4.593354322001687,660.5058252319977,None,665.1325917520007,None,665.1325917520007,None,667.6360038450002,None,667.6360038450002,None,1.3673845070006792,669.4386773890001,None,669.4386773890001,None,6,1,0.9015964339996572,670.7929746359987,None,670.7929746359987,None,670.7929746359987,None,671.7108499210008,None,1,0.6523148999986006,671.7108499210008,None,50,672.379461419001,None,105,A,1,2021_May_20_1436,GazeFlow,2020.1.2,59.83338245863109,
5,Block504.xls,A,4,6,73,13,21,incongruent,Right,Left,Right,80,83,3,blue,2,6,/home/docky/apps/exp/images/80Bi.jpeg,/home/docky/apps/exp/images/83B.jpeg,0,4,4,4,0,5,5,5,673.3805978339988,None,673.3805978339988,None,1,4.343235158001335,673.3805978339988,None,677.7571658899979,None,677.7571658899979,None,680.2602746369994,None,680.2602746369994,None,1.3177162540014251,682.0632271739996,None,682.0632271739996,None,6,1,0.9177247459992941,683.3677684469985,None,683.3677684469985,None,683.3677684469985,None,684.3018483499982,None,1,0.6352428199970745,684.3018483499982,None,52,684.9535875330002,None,105,A,1,2021_May_20_1436,GazeFlow,2020.1.2,59.83338245863109,
5,Block504.xls,A,4,7,63,3,21,incongruent,Right,Left,Right,35,38,3,blue,2,6,/home/docky/apps/exp/images/35B.jpeg,/home/docky/apps/exp/images/38Bi.jpeg,0,4,4,4,0,6,6,6,685.9552074229978,None,685.9552074229978,None,1,4.593239592999453,685.9552074229978,None,690.580224467998,None,690.580224467998,None,693.0865893439986,None,693.0865893439986,None,1.1671982699990622,694.8833690069987,None,694.8833690069987,None,6,1,0.9177911060032784,696.0420806239999,None,696.0420806239999,None,696.0420806239999,None,696.9763756159991,None,1,0.5684043439978268,696.9763756159991,None,54,697.5613977789981,None,105,A,1,2021_May_20_1436,GazeFlow,2020.1.2,59.83338245863109,
5,Block504.xls,A,4,8,86,26,21,incongruent,Right,Left,Right,72,77,5,yellow,2,6,/home/docky/apps/exp/images/72Yi.jpeg,/home/docky/apps/exp/images/77Y.jpeg,0,4,4,4,0,7,7,7,698.5628717979998,None,698.5628717979998,None,1,4.894065880998824,698.5628717979998,None,703.4901063830002,None,703.4901063830002,None,705.9930294849983,None,705.9930294849983,None,1.400875151000946,707.7915281719979,None,707.7915281719979,None,6,1,0.9691450639984396,709.1840640400005,None,709.1840640400005,None,709.1840640400005,None,710.1692327909986,None,1,0.5178424529985932,710.1692327909986,None,56,710.7037338279988,None,105,A,1,2021_May_20_1436,GazeFlow,2020.1.2,59.83338245863109,
5,Block504.xls,A,,,,,,,,,,,,,,,,,,0,4,4,4,,,,,,,,,,,,,,,,,,,,,,,,,,,,,,,,,,,,,,,,,,,,105,A,1,2021_May_20_1436,GazeFlow,2020.1.2,59.83338245863109,
6,Block511.xls,A,11,1,15,15,11,congruent,Left,Left,Right,80,83,3,blue,2,6,/home/docky/apps/exp/images/80Bi.jpeg,/home/docky/apps/exp/images/83B.jpeg,0,5,5,5,0,0,0,0,735.0176455340006,None,735.0176455340006,None,1,5.298676660997444,735.0176455340006,None,740.3405392290006,None,740.3405392290006,None,742.8667190489978,None,742.8667190489978,None,1.8011610949979513,744.6689015919983,None,744.6689015919983,None,6,1,0.8676003960026719,746.4568131970009,None,746.4568131970009,None,746.4568131970009,None,747.3408549970009,None,1,0.41775348700321047,747.3408549970009,None,58,747.7751192879987,None,105,A,1,2021_May_20_1436,GazeFlow,2020.1.2,59.83338245863109,
6,Block511.xls,A,11,2,105,45,22,incongruent,Left,Right,Left,39,38,1,blue,2,5,/home/docky/apps/exp/images/39Bi.jpeg,/home/docky/apps/exp/images/38B.jpeg,0,5,5,5,0,1,1,1,748.7773092719981,None,748.7773092719981,None,1,4.041821749000519,748.7773092719981,None,752.8528607410008,None,752.8528607410008,None,755.3575548139997,None,755.3575548139997,None,1.3340544370003045,757.1595553080006,None,757.1595553080006,None,5,1,0.7843236099979549,758.4798650449993,None,758.4798650449993,None,758.4798650449993,None,759.2809067019989,None,1,0.48483196499728365,759.2809067019989,None,60,759.7824929189992,None,105,A,1,2021_May_20_1436,GazeFlow,2020.1.2,59.83338245863109,
6,Block511.xls,A,11,3,68,8,21,incongruent,Right,Left,Right,38,39,1,blue,2,6,/home/docky/apps/exp/images/38B.jpeg,/home/docky/apps/exp/images/39Bi.jpeg,0,5,5,5,0,2,2,2,760.7837960559991,None,760.7837960559991,None,1,4.225978763999592,760.7837960559991,None,765.043213246001,None,765.043213246001,None,767.5478702459986,None,767.5478702459986,None,1.8017678120013443,769.3497653310005,None,769.3497653310005,None,6,1,0.8350574260002759,771.1378901079988,None,771.1378901079988,None,771.1378901079988,None,771.9890782559996,None,1,0.4675252710003406,771.9890782559996,None,62,772.4729682329998,None,105,A,1,2021_May_20_1436,GazeFlow,2020.1.2,59.83338245863109,
6,Block511.xls,A,11,4,80,20,21,incongruent,Right,Left,Right,62,65,3,yellow,2,6,/home/docky/apps/exp/images/38Bi.jpeg,/home/docky/apps/exp/images/35B.jpeg,0,5,5,5,0,3,3,3,773.4751673639985,None,773.4751673639985,None,1,3.958659408999665,773.4751673639985,None,777.466989640001,None,777.466989640001,None,779.964639187001,None,779.964639187001,None,1.5179765870016126,781.7679592519999,None,781.7679592519999,None,6,1,0.8516626439995889,783.2781582780008,None,783.2781582780008,None,783.2781582780008,None,784.1462532240002,None,1,0.4510514499997953,784.1462532240002,None,64,784.6138115859976,None,105,A,1,2021_May_20_1436,GazeFlow,2020.1.2,59.83338245863109,
6,Block511.xls,A,11,5,5,5,11,congruent,Left,Left,Right,65,66,1,blue,2,6,/home/docky/apps/exp/images/35Yi.jpeg,/home/docky/apps/exp/images/66B.jpeg,0,5,5,5,0,4,4,4,785.6151861420003,None,785.6151861420003,None,1,4.025443988997722,785.6151861420003,None,789.6743088000003,None,789.6743088000003,None,792.1788307969982,None,792.1788307969982,None,1.2171797349983535,793.9828063839996,None,793.9828063839996,None,6,1,0.851337046999106,795.1843780039999,None,795.1843780039999,None,795.1843780039999,None,796.0523417900004,None,1,0.4678749849990709,796.0523417900004,None,66,796.5366490560009,None,105,A,1,2021_May_20_1436,GazeFlow,2020.1.2,59.83338245863109,
6,Block511.xls,A,11,6,18,18,11,congruent,Left,Left,Right,65,66,1,yellow,2,6,/home/docky/apps/exp/images/35B.jpeg,/home/docky/apps/exp/images/66Yi.jpeg,0,5,5,5,0,5,5,5,797.5387626000011,None,797.5387626000011,None,1,4.225396254998486,797.5387626000011,None,801.7978757919991,None,801.7978757919991,None,804.3035550940003,None,804.3035550940003,None,1.6013426730023639,806.1043340779979,None,806.1043340779979,None,5,0,0.8182536319982319,807.6924788209981,None,807.6924788209981,None,807.6924788209981,None,808.5269021669992,None,1,0.5179063889991085,808.5269021669992,None,64,809.0612793990003,None,105,A,1,2021_May_20_1436,GazeFlow,2020.1.2,59.83338245863109,
6,Block511.xls,A,11,7,25,25,11,congruent,Left,Left,Right,69,75,6,yellow,2,6,/home/docky/apps/exp/images/69Yi.jpeg,/home/docky/apps/exp/images/76Y.jpeg,0,5,5,5,0,6,6,6,810.0629612659977,None,810.0629612659977,None,1,4.308954772997822,810.0629612659977,None,814.40373645,None,814.40373645,None,816.9081666719976,None,816.9081666719976,None,0.9834709979986656,818.7118725689979,None,818.7118725689979,None,6,1,0.934314448000805,819.6823140349989,None,819.6823140349989,None,819.6823140349989,None,820.6332896189997,None,1,0.45164578599724337,820.6332896189997,None,66,821.1013305230008,None,105,A,1,2021_May_20_1436,GazeFlow,2020.1.2,59.83338245863109,
6,Block511.xls,A,11,8,3,3,11,congruent,Left,Left,Right,35,38,3,blue,2,6,/home/docky/apps/exp/images/35Bi.jpeg,/home/docky/apps/exp/images/38B.jpeg,0,5,5,5,0,7,7,7,822.1027464649997,None,822.1027464649997,None,1,5.89583307799694,822.1027464649997,None,828.0321276249997,None,828.0321276249997,None,830.5370179040001,None,830.5370179040001,None,1.9350567140027124,832.3379360719991,None,832.3379360719991,None,6,1,0.8853682040025888,834.2605515089999,None,834.2605515089999,None,834.2605515089999,None,835.162000813998,None,1,0.567346849002206,835.162000813998,None,68,835.7459500859986,None,105,A,1,2021_May_20_1436,GazeFlow,2020.1.2,59.83338245863109,
6,Block511.xls,A,,,,,,,,,,,,,,,,,,0,5,5,5,,,,,,,,,,,,,,,,,,,,,,,,,,,,,,,,,,,,,,,,,,,,105,A,1,2021_May_20_1436,GazeFlow,2020.1.2,59.83338245863109,
7,Block508.xls,A,8,1,13,13,11,congruent,Left,Left,Right,76,79,3,blue,2,6,/home/docky/apps/exp/images/76Bi.jpeg,/home/docky/apps/exp/images/79B.jpeg,0,6,6,6,0,0,0,0,862.3671828160004,None,862.3671828160004,None,1,7.13497604299846,862.3671828160004,None,869.5282351360001,None,869.5282351360001,None,872.0509755969979,None,872.0509755969979,None,1.283589132999623,873.8480044839998,None,873.8480044839998,None,6,1,0.8677705299996887,875.1230377520005,None,875.1230377520005,None,875.1230377520005,None,876.0073185789988,None,1,0.5517251349992875,876.0073185789988,None,70,876.5757523680004,None,105,A,1,2021_May_20_1436,GazeFlow,2020.1.2,59.83338245863109,
7,Block508.xls,A,8,2,21,21,11,congruent,Left,Left,Right,62,65,3,yellow,2,6,/home/docky/apps/exp/images/38B.jpeg,/home/docky/apps/exp/images/35Bi.jpeg,0,6,6,6,0,1,1,1,877.5773160440003,None,877.5773160440003,None,1,4.1759191029996146,877.5773160440003,None,881.7862996129988,None,881.7862996129988,None,884.2892644989988,None,884.2892644989988,None,1.167287612999644,886.0923525520011,None,886.0923525520011,None,6,1,0.8844356580011663,887.2467628019986,None,887.2467628019986,None,887.2467628019986,None,888.147787771999,None,1,0.4519702569996298,888.147787771999,None,72,888.615661505999,None,105,A,1,2021_May_20_1436,GazeFlow,2020.1.2,59.83338245863109,
7,Block508.xls,A,8,3,99,39,22,incongruent,Left,Right,Left,79,76,3,blue,2,5,/home/docky/apps/exp/images/79Bi.jpeg,/home/docky/apps/exp/images/76B.jpeg,0,6,6,6,0,2,2,2,889.6175327199999,None,889.6175327199999,None,1,4.159344396997767,889.6175327199999,None,893.809657359001,None,893.809657359001,None,896.3145606379985,None,896.3145606379985,None,1.2672430550010176,898.1169218760006,None,898.1169218760006,None,5,1,0.8511337720010488,899.3702062400007,None,899.3702062400007,None,899.3702062400007,None,900.2380436040003,None,1,0.5182779879978625,900.2380436040003,None,74,900.7723315650001,None,105,A,1,2021_May_20_1436,GazeFlow,2020.1.2,59.83338245863109,
7,Block508.xls,A,8,4,37,37,12,congruent,Right,Right,Left,66,65,1,blue,2,5,/home/docky/apps/exp/images/66Bi.jpeg,/home/docky/apps/exp/images/35Y.jpeg,0,6,6,6,0,3,3,3,901.7745718900005,None,901.7745718900005,None,1,4.308754751997185,901.7745718900005,None,906.1172841849984,None,906.1172841849984,None,908.6200268940011,None,908.6200268940011,None,1.3009708159988804,910.4229180069997,None,910.4229180069997,None,6,0,0.9179604420023679,911.7108418610005,None,911.7108418610005,None,911.7108418610005,None,912.6455493699978,None,1,0.4517189279977174,912.6455493699978,None,72,913.1133937240011,None,105,A,1,2021_May_20_1436,GazeFlow,2020.1.2,59.83338245863109,
7,Block508.xls,A,8,5,82,22,21,incongruent,Right,Left,Right,38,39,1,yellow,2,6,/home/docky/apps/exp/images/38Y.jpeg,/home/docky/apps/exp/images/39Yi.jpeg,0,6,6,6,0,4,4,4,914.1150543939984,None,914.1150543939984,None,1,4.392908719997649,914.1150543939984,None,918.5395460830005,None,918.5395460830005,None,921.0443853180004,None,921.0443853180004,None,2.60353950499848,922.8428277200001,None,922.8428277200001,None,6,1,0.7517951070003619,925.4533388540003,None,925.4533388540003,None,925.4533388540003,None,926.2219901489989,None,1,0.36705821199939237,926.2219901489989,None,74,926.6059972170005,None,105,A,1,2021_May_20_1436,GazeFlow,2020.1.2,59.83338245863109,
7,Block508.xls,A,8,6,104,44,22,incongruent,Left,Right,Left,39,38,1,blue,2,5,/home/docky/apps/exp/images/39B.jpeg,/home/docky/apps/exp/images/38Bi.jpeg,0,6,6,6,0,5,5,5,927.6082884659991,None,927.6082884659991,None,1,4.008513708999089,927.6082884659991,None,931.6506138719997,None,931.6506138719997,None,934.1523692549999,None,934.1523692549999,None,1.3844104279996827,935.9539140699999,None,935.9539140699999,None,6,0,0.9346713009981613,937.327358950999,None,937.327358950999,None,937.327358950999,None,938.2785864090001,None,1,0.5019710970009328,938.2785864090001,None,72,938.79664787,None,105,A,1,2021_May_20_1436,GazeFlow,2020.1.2,59.83338245863109,
7,Block508.xls,A,8,7,39,39,12,congruent,Right,Right,Left,79,73,6,blue,2,5,/home/docky/apps/exp/images/79B.jpeg,/home/docky/apps/exp/images/73Bi.jpeg,0,6,6,6,0,6,6,6,939.7980395070008,None,939.7980395070008,None,1,4.442760026999167,939.7980395070008,None,944.2745042959978,None,944.2745042959978,None,946.780627281998,None,946.780627281998,None,1.117277692999778,948.5804936040004,None,948.5804936040004,None,5,1,0.9012246849997609,949.6846901659992,None,949.6846901659992,None,949.6846901659992,None,950.6023946360001,None,1,0.46857345799799077,950.6023946360001,None,74,951.0871906350003,None,105,A,1,2021_May_20_1436,GazeFlow,2020.1.2,59.83338245863109,
7,Block508.xls,A,8,8,36,36,12,congruent,Right,Right,Left,66,65,1,blue,2,5,/home/docky/apps/exp/images/66B.jpeg,/home/docky/apps/exp/images/35Yi.jpeg,0,6,6,6,0,7,7,7,952.0886243109999,None,952.0886243109999,None,1,4.192220943998109,952.0886243109999,None,956.3145019090007,None,956.3145019090007,None,958.8196338300004,None,958.8196338300004,None,1.3842830050016346,960.6214449449981,None,960.6214449449981,None,5,1,0.9014756979995582,961.9917163229984,None,961.9917163229984,None,961.9917163229984,None,962.9101092710007,None,1,0.5180439290015784,962.9101092710007,None,76,963.4443912339993,None,105,A,1,2021_May_20_1436,GazeFlow,2020.1.2,59.83338245863109,
7,Block508.xls,A,,,,,,,,,,,,,,,,,,0,6,6,6,,,,,,,,,,,,,,,,,,,,,,,,,,,,,,,,,,,,,,,,,,,,105,A,1,2021_May_20_1436,GazeFlow,2020.1.2,59.83338245863109,
8,Block510.xls,A,10,1,102,42,22,incongruent,Left,Right,Left,83,80,3,blue,2,5,/home/docky/apps/exp/images/83B.jpeg,/home/docky/apps/exp/images/80Bi.jpeg,0,7,7,7,0,0,0,0,1016.9820157789982,None,1016.9820157789982,None,1,7.4049149680031405,1016.9820157789982,None,1024.4181760469983,None,1024.4181760469983,None,1026.9349685109992,None,1026.9349685109992,None,1.0999352250000811,1028.7328556389984,None,1028.7328556389984,None,5,1,0.8508647850030684,1029.8239808590006,None,1029.8239808590006,None,1029.8239808590006,None,1030.6915222889984,None,1,0.5680668910026725,1030.6915222889984,None,78,1031.276308340999,None,105,A,1,2021_May_20_1436,GazeFlow,2020.1.2,59.83338245863109,
8,Block510.xls,A,10,2,114,54,22,incongruent,Left,Right,Left,76,69,7,yellow,2,5,/home/docky/apps/exp/images/76Yi.jpeg,/home/docky/apps/exp/images/69Y.jpeg,0,7,7,7,0,1,1,1,1032.277616031999,None,1032.277616031999,None,1,4.577037574999849,1032.277616031999,None,1036.8877673089992,None,1036.8877673089992,None,1039.3925982519977,None,1039.3925982519977,None,1.3507715870000538,1041.1941107919993,None,1041.1941107919993,None,5,1,0.8676397380004346,1042.531661426001,None,1042.531661426001,None,1042.531661426001,None,1043.4160622179988,None,1,0.5522787760019128,1043.4160622179988,None,80,1043.984364115,None,105,A,1,2021_May_20_1436,GazeFlow,2020.1.2,59.83338245863109,
8,Block510.xls,A,10,3,72,12,21,incongruent,Right,Left,Right,76,79,3,blue,2,6,/home/docky/apps/exp/images/76Bi.jpeg,/home/docky/apps/exp/images/79B.jpeg,0,7,7,7,0,2,2,2,1044.985896495,None,1044.985896495,None,1,4.259391512001457,1044.985896495,None,1049.2787419099986,None,1049.2787419099986,None,1051.7818583419976,None,1051.7818583419976,None,1.2006431490008254,1053.5871294889985,None,1053.5871294889985,None,6,1,0.8849010619996989,1054.7721976629982,None,1054.7721976629982,None,1054.7721976629982,None,1055.6731545080002,None,1,0.5184789320010168,1055.6731545080002,None,82,1056.2081127599995,None,105,A,1,2021_May_20_1436,GazeFlow,2020.1.2,59.83338245863109,
8,Block510.xls,A,10,4,112,52,22,incongruent,Left,Right,Left,75,69,6,yellow,2,5,/home/docky/apps/exp/images/76Y.jpeg,/home/docky/apps/exp/images/69Yi.jpeg,0,7,7,7,0,3,3,3,1057.2095269149977,None,1057.2095269149977,None,1,3.7914956450003956,1057.2095269149977,None,1061.0329563919986,None,1061.0329563919986,None,1063.5377033900004,None,1063.5377033900004,None,1.3841356310003903,1065.3429188419977,None,1065.3429188419977,None,5,1,0.8337666830011585,1066.7125959139994,None,1066.7125959139994,None,1066.7125959139994,None,1067.5629153209993,None,1,0.4677310010010842,1067.5629153209993,None,84,1068.0478721359977,None,105,A,1,2021_May_20_1436,GazeFlow,2020.1.2,59.83338245863109,
8,Block510.xls,A,10,5,17,17,11,congruent,Left,Left,Right,33,35,2,yellow,2,6,/home/docky/apps/exp/images/33Y.jpeg,/home/docky/apps/exp/images/35Yi.jpeg,0,7,7,7,0,4,4,4,1069.049133171,None,1069.049133171,None,1,4.092593638000835,1069.049133171,None,1073.1751080239992,None,1073.1751080239992,None,1075.6796447429988,None,1075.6796447429988,None,1.5013800359993184,1077.4816836319987,None,1077.4816836319987,None,6,1,0.8684778150018246,1078.969135714,None,1078.969135714,None,1078.969135714,None,1079.853769756999,None,1,0.4841034680030134,1079.853769756999,None,86,1080.3543694260006,None,105,A,1,2021_May_20_1436,GazeFlow,2020.1.2,59.83338245863109,
8,Block510.xls,A,10,6,31,31,12,congruent,Right,Right,Left,19,16,3,blue,2,5,/home/docky/apps/exp/images/19Bi.jpeg,/home/docky/apps/exp/images/16B.jpeg,0,7,7,7,0,5,5,5,1081.3569217000004,None,1081.3569217000004,None,1,3.8411036649995367,1081.3569217000004,None,1085.231795347001,None,1085.231795347001,None,1087.7347131059978,None,1087.7347131059978,None,1.4508527099969797,1089.5384517739985,None,1089.5384517739985,None,5,1,0.8514868919992296,1090.9757002629995,None,1090.9757002629995,None,1090.9757002629995,None,1091.8439277529978,None,1,0.5512575360007759,1091.8439277529978,None,88,1092.4117641329976,None,105,A,1,2021_May_20_1436,GazeFlow,2020.1.2,59.83338245863109,
8,Block510.xls,A,10,7,61,1,21,incongruent,Right,Left,Right,16,19,3,blue,2,6,/home/docky/apps/exp/images/16Bi.jpeg,/home/docky/apps/exp/images/19B.jpeg,0,7,7,7,0,6,6,6,1093.4131983439984,None,1093.4131983439984,None,1,3.874755622997327,1093.4131983439984,None,1097.3221673829976,None,1097.3221673829976,None,1099.831409950999,None,1099.831409950999,None,1.3176570499999798,1101.6278408949984,None,1101.6278408949984,None,6,1,0.7843505520031613,1102.9322509179983,None,1102.9322509179983,None,1102.9322509179983,None,1103.733385626001,None,1,0.5353957619990979,1103.733385626001,None,90,1104.284799344001,None,105,A,1,2021_May_20_1436,GazeFlow,2020.1.2,59.83338245863109,
8,Block510.xls,A,10,8,94,34,22,incongruent,Left,Right,Left,38,35,3,blue,2,5,/home/docky/apps/exp/images/38Bi.jpeg,/home/docky/apps/exp/images/35B.jpeg,0,7,7,7,0,7,7,7,1105.2863393099979,None,1105.2863393099979,None,1,3.942026028998953,1105.2863393099979,None,1109.2618349019976,None,1109.2618349019976,None,1111.7665789799976,None,1111.7665789799976,None,1.5843212030013092,1113.5685879099983,None,1113.5685879099983,None,5,1,0.8684859880013391,1115.1394803660005,None,1115.1394803660005,None,1115.1394803660005,None,1116.024228967999,None,1,0.500592926000536,1116.024228967999,None,92,1116.5413505489996,None,105,A,1,2021_May_20_1436,GazeFlow,2020.1.2,59.83338245863109,
8,Block510.xls,A,,,,,,,,,,,,,,,,,,0,7,7,7,,,,,,,,,,,,,,,,,,,,,,,,,,,,,,,,,,,,,,,,,,,,105,A,1,2021_May_20_1436,GazeFlow,2020.1.2,59.83338245863109,
9,Block507.xls,A,7,1,110,50,22,incongruent,Left,Right,Left,66,65,1,yellow,2,5,/home/docky/apps/exp/images/66Y.jpeg,/home/docky/apps/exp/images/35Bi.jpeg,0,8,8,8,0,0,0,0,1143.009494643,None,1143.009494643,None,1,5.785129763000441,1143.009494643,None,1148.826294786999,None,1148.826294786999,None,1151.3422060509984,None,1151.3422060509984,None,1.3000355100011802,1153.1471122990006,None,1153.1471122990006,None,5,1,0.8843256239997572,1154.4326880650005,None,1154.4326880650005,None,1154.4326880650005,None,1155.3334357019994,None,1,0.55143825399864,1155.3334357019994,None,94,1155.9017846429997,None,105,A,1,2021_May_20_1436,GazeFlow,2020.1.2,59.83338245863109,
9,Block507.xls,A,7,2,90,30,22,incongruent,Right,Left,Right,16,19,3,blue,2,6,/home/docky/apps/exp/images/16Bi.jpeg,/home/docky/apps/exp/images/19B.jpeg,0,8,8,8,0,1,1,1,1156.903136498,None,1156.903136498,None,1,4.643696005001402,1156.903136498,None,1161.5798964139976,None,1161.5798964139976,None,1164.0852040210011,None,1164.0852040210011,None,1.3505590639979346,1165.881599272001,None,1165.881599272001,None,6,1,0.8845918990009523,1167.2236822550003,None,1167.2236822550003,None,1167.2236822550003,None,1168.1252038499988,None,1,0.48476001099697896,1168.1252038499988,None,96,1168.626426963001,None,105,A,1,2021_May_20_1436,GazeFlow,2020.1.2,59.83338245863109,
9,Block507.xls,A,7,3,16,16,11,congruent,Left,Left,Right,33,35,2,yellow,2,6,/home/docky/apps/exp/images/33Yi.jpeg,/home/docky/apps/exp/images/35Y.jpeg,0,8,8,8,0,2,2,2,1169.6281779189994,None,1169.6281779189994,None,1,4.024949315997219,1169.6281779189994,None,1173.6868690599986,None,1173.6868690599986,None,1176.1898028799988,None,1176.1898028799988,None,1.635058443996968,1177.993086213999,None,1177.993086213999,None,5,0,1.21939412500069,1179.614677769001,None,1179.614677769001,None,1179.614677769001,None,1180.8502074690005,None,1,0.6173819059986272,1180.8502074690005,None,94,1181.4845570939979,None,105,A,1,2021_May_20_1436,GazeFlow,2020.1.2,59.83338245863109,
9,Block507.xls,A,7,4,117,57,22,incongruent,Left,Right,Left,77,72,5,yellow,2,5,/home/docky/apps/exp/images/77Y.jpeg,/home/docky/apps/exp/images/72Yi.jpeg,0,8,8,8,0,3,3,3,1182.486468862,None,1182.486468862,None,1,4.2923585470016405,1182.486468862,None,1186.8123886190006,None,1186.8123886190006,None,1189.3152881130009,None,1189.3152881130009,None,1.2009611440007575,1191.1187705390003,None,1191.1187705390003,None,5,1,1.0015241279979819,1192.3058701219998,None,1192.3058701219998,None,1192.3058701219998,None,1193.3240474179984,None,1,0.6189219599982607,1193.3240474179984,None,96,1193.9589746009988,None,105,A,1,2021_May_20_1436,GazeFlow,2020.1.2,59.83338245863109,
9,Block507.xls,A,7,5,53,53,12,congruent,Right,Right,Left,75,69,6,yellow,2,5,/home/docky/apps/exp/images/76Yi.jpeg,/home/docky/apps/exp/images/69Y.jpeg,0,8,8,8,0,4,4,4,1194.960559971998,None,1194.960559971998,None,1,4.35912571100198,1194.960559971998,None,1199.3531268509978,None,1199.3531268509978,None,1201.8563524569981,None,1201.8563524569981,None,1.350820764000673,1203.659391098001,None,1203.659391098001,None,5,1,1.001936796001246,1204.9973157739987,None,1204.9973157739987,None,1204.9973157739987,None,1206.0156857719994,None,1,0.534602307001478,1206.0156857719994,None,98,1206.5667778850002,None,105,A,1,2021_May_20_1436,GazeFlow,2020.1.2,59.83338245863109,
9,Block507.xls,A,7,6,96,36,22,incongruent,Left,Right,Left,66,65,1,blue,2,5,/home/docky/apps/exp/images/66Bi.jpeg,/home/docky/apps/exp/images/35Y.jpeg,0,8,8,8,0,5,5,5,1207.5680284480004,None,1207.5680284480004,None,1,4.760889788001805,1207.5680284480004,None,1212.3624551639987,None,1212.3624551639987,None,1214.8667123619998,None,1214.8667123619998,None,1.634487495997746,1216.6687864079977,None,1216.6687864079977,None,6,0,1.0679520860030607,1218.2898444249986,None,1218.2898444249986,None,1218.2898444249986,None,1219.374508416,None,1,0.517917427001521,1219.374508416,None,96,1219.9088784509986,None,105,A,1,2021_May_20_1436,GazeFlow,2020.1.2,59.83338245863109,
9,Block507.xls,A,7,7,58,58,12,congruent,Right,Right,Left,77,72,5,yellow,2,5,/home/docky/apps/exp/images/77Yi.jpeg,/home/docky/apps/exp/images/72Y.jpeg,0,8,8,8,0,6,6,6,1220.910887094,None,1220.910887094,None,1,4.142572161003045,1220.910887094,None,1225.086821590001,None,1225.086821590001,None,1227.591512769999,None,1227.591512769999,None,1.2337351449968992,1229.3930021099986,None,1229.3930021099986,None,5,1,0.8844943669973873,1230.613764152,None,1230.613764152,None,1230.613764152,None,1231.5145909499988,None,1,0.5185970769998676,1231.5145909499988,None,98,1232.0496832540011,None,105,A,1,2021_May_20_1436,GazeFlow,2020.1.2,59.83338245863109,
9,Block507.xls,A,7,8,41,41,12,congruent,Right,Right,Left,79,76,3,blue,2,5,/home/docky/apps/exp/images/79Bi.jpeg,/home/docky/apps/exp/images/76B.jpeg,0,8,8,8,0,7,7,7,1233.0509442740004,None,1233.0509442740004,None,1,4.392774340998585,1233.0509442740004,None,1237.482313378001,None,1237.482313378001,None,1239.9806103859992,None,1239.9806103859992,None,1.3335232059980626,1241.779757168999,None,1241.779757168999,None,5,1,0.9682222960000217,1243.1047531910008,None,1243.1047531910008,None,1243.1047531910008,None,1244.0897671909988,None,1,0.517890028997499,1244.0897671909988,None,100,1244.6240197709994,None,105,A,1,2021_May_20_1436,GazeFlow,2020.1.2,59.83338245863109,
9,Block507.xls,A,,,,,,,,,,,,,,,,,,0,8,8,8,,,,,,,,,,,,,,,,,,,,,,,,,,,,,,,,,,,,,,,,,,,,105,A,1,2021_May_20_1436,GazeFlow,2020.1.2,59.83338245863109,
10,Block515.xls,A,15,1,107,47,22,incongruent,Left,Right,Left,35,33,2,yellow,2,5,/home/docky/apps/exp/images/35Yi.jpeg,/home/docky/apps/exp/images/33Y.jpeg,0,9,9,9,0,0,0,0,1266.2849620779998,None,1266.2849620779998,None,1,5.501687136998953,1266.2849620779998,None,1271.8175507619999,None,1271.8175507619999,None,1274.3323033449997,None,1274.3323033449997,None,1.3170817270001862,1276.1341015430007,None,1276.1341015430007,None,5,1,0.918030283999542,1277.437914577,None,1277.437914577,None,1277.437914577,None,1278.3726585779987,None,1,0.5349409999980708,1278.3726585779987,None,102,1278.924025802,None,105,A,1,2021_May_20_1436,GazeFlow,2020.1.2,59.83338245863109,
10,Block515.xls,A,15,2,55,55,12,congruent,Right,Right,Left,76,69,7,yellow,2,5,/home/docky/apps/exp/images/76Yi.jpeg,/home/docky/apps/exp/images/69Y.jpeg,0,9,9,9,0,1,1,1,1279.9256427580003,None,1279.9256427580003,None,1,4.309004406000895,1279.9256427580003,None,1284.2710263080007,None,1284.2710263080007,None,1286.7709452529998,None,1286.7709452529998,None,1.300716180998279,1288.574361646999,None,1288.574361646999,None,5,1,0.9514162819978083,1289.8621430880012,None,1289.8621430880012,None,1289.8621430880012,None,1290.8300956559979,None,1,0.45178318499893066,1290.8300956559979,None,104,1291.2980399469998,None,105,A,1,2021_May_20_1436,GazeFlow,2020.1.2,59.83338245863109,
10,Block515.xls,A,15,3,75,15,21,incongruent,Right,Left,Right,33,35,2,yellow,2,6,/home/docky/apps/exp/images/33Yi.jpeg,/home/docky/apps/exp/images/35Y.jpeg,0,9,9,9,0,2,2,2,1292.299918069999,None,1292.299918069999,None,1,4.60921698400125,1292.299918069999,None,1296.9430127650012,None,1296.9430127650012,None,1299.4464227239987,None,1299.4464227239987,None,2.068935158997192,1301.2490793760007,None,1301.2490793760007,None,6,1,0.9847813409978698,1303.3047993709988,None,1303.3047993709988,None,1303.3047993709988,None,1304.3063385479982,None,1,0.6849218960014696,1304.3063385479982,None,106,1305.0073622829987,None,105,A,1,2021_May_20_1436,GazeFlow,2020.1.2,59.83338245863109,
10,Block515.xls,A,15,4,62,2,21,incongruent,Right,Left,Right,35,38,3,blue,2,6,/home/docky/apps/exp/images/35Bi.jpeg,/home/docky/apps/exp/images/38B.jpeg,0,9,9,9,0,3,3,3,1306.0099887830002,None,1306.0099887830002,None,1,4.258518492002622,1306.0099887830002,None,1310.3022997129992,None,1310.3022997129992,None,1312.8049857279984,None,1312.8049857279984,None,1.1841921339982946,1314.6087240449997,None,1314.6087240449997,None,6,1,0.8346260319995054,1315.7790612040008,None,1315.7790612040008,None,1315.7790612040008,None,1316.6301194000007,None,1,0.5348968869984674,1316.6301194000007,None,108,1317.181073918,None,105,A,1,2021_May_20_1436,GazeFlow,2020.1.2,59.83338245863109,
10,Block515.xls,A,15,5,100,40,22,incongruent,Left,Right,Left,79,76,3,blue,2,5,/home/docky/apps/exp/images/79Bi.jpeg,/home/docky/apps/exp/images/76B.jpeg,0,9,9,9,0,4,4,4,1318.1834777859985,None,1318.1834777859985,None,1,4.008731571000681,1318.1834777859985,None,1322.2254969759997,None,1322.2254969759997,None,1324.7302909639984,None,1324.7302909639984,None,1.1503618069982622,1326.532229853001,None,1326.532229853001,None,5,1,0.9016671949975716,1327.668687944999,None,1327.668687944999,None,1327.668687944999,None,1328.5865200209992,None,1,0.5519427879989962,1328.5865200209992,None,110,1329.1552367080003,None,105,A,1,2021_May_20_1436,GazeFlow,2020.1.2,59.83338245863109,
10,Block515.xls,A,15,6,108,48,22,incongruent,Left,Right,Left,39,38,1,yellow,2,5,/home/docky/apps/exp/images/39Y.jpeg,/home/docky/apps/exp/images/38Yi.jpeg,0,9,9,9,0,5,5,5,1330.156673188998,None,1330.156673188998,None,1,5.661889962000714,1330.156673188998,None,1335.8518219010002,None,1335.8518219010002,None,1338.3546623170005,None,1338.3546623170005,None,1.300610622001841,1340.1585036750002,None,1340.1585036750002,None,6,0,0.8846714630017232,1341.4454591180001,None,1341.4454591180001,None,1341.4454591180001,None,1342.3467916009977,None,1,0.5351106470006926,1342.3467916009977,None,108,1342.8983094670002,None,105,A,1,2021_May_20_1436,GazeFlow,2020.1.2,59.83338245863109,
10,Block515.xls,A,15,7,59,59,12,congruent,Right,Right,Left,80,79,1,yellow,2,5,/home/docky/apps/exp/images/80Y.jpeg,/home/docky/apps/exp/images/79Yi.jpeg,0,9,9,9,0,6,6,6,1343.8997615049993,None,1343.8997615049993,None,1,4.860667515000387,1343.8997615049993,None,1348.793238645001,None,1348.793238645001,None,1351.2982257959993,None,1351.2982257959993,None,1.6012019840018183,1353.0993546110003,None,1353.0993546110003,None,5,1,0.8524353100001463,1354.6877878179985,None,1354.6877878179985,None,1354.6877878179985,None,1355.5562358639982,None,1,0.6007247449997521,1355.5562358639982,None,110,1356.1734631519976,None,105,A,1,2021_May_20_1436,GazeFlow,2020.1.2,59.83338245863109,
10,Block515.xls,A,15,8,8,8,11,congruent,Left,Left,Right,38,39,1,blue,2,6,/home/docky/apps/exp/images/38B.jpeg,/home/docky/apps/exp/images/39Bi.jpeg,0,9,9,9,0,7,7,7,1357.1758173399976,None,1357.1758173399976,None,1,4.225415904998954,1357.1758173399976,None,1361.4350270469986,None,1361.4350270469986,None,1363.9412584380007,None,1363.9412584380007,None,1.350705396002013,1365.7370465249987,None,1365.7370465249987,None,6,1,0.9011212900004466,1367.0788440760007,None,1367.0788440760007,None,1367.0788440760007,None,1367.997415542999,None,1,0.5340298699993582,1367.997415542999,None,112,1368.5482314309993,None,105,A,1,2021_May_20_1436,GazeFlow,2020.1.2,59.83338245863109,
10,Block515.xls,A,,,,,,,,,,,,,,,,,,0,9,9,9,,,,,,,,,,,,,,,,,,,,,,,,,,,,,,,,,,,,,,,,,,,,105,A,1,2021_May_20_1436,GazeFlow,2020.1.2,59.83338245863109,
11,Block512.xls,A,12,1,30,30,11,congruent,Left,Left,Right,79,82,3,yellow,2,6,/home/docky/apps/exp/images/79Yi.jpeg,/home/docky/apps/exp/images/80Y.jpeg,0,10,10,10,0,0,0,0,1392.2123280089982,None,1392.2123280089982,None,1,5.752872548000596,1392.2123280089982,None,1397.9911907599999,None,1397.9911907599999,None,1400.5112985749984,None,1400.5112985749984,None,1.4172224219983036,1402.3146238150002,None,1402.3146238150002,None,6,1,0.9014738020014192,1403.716621495998,None,1403.716621495998,None,1403.716621495998,None,1404.6345863219976,None,1,0.5516128419985762,1404.6345863219976,None,114,1405.2025889299985,None,105,A,1,2021_May_20_1436,GazeFlow,2020.1.2,59.83338245863109,
11,Block512.xls,A,12,2,115,55,22,incongruent,Left,Right,Left,76,69,7,yellow,2,5,/home/docky/apps/exp/images/76Yi.jpeg,/home/docky/apps/exp/images/69Y.jpeg,0,10,10,10,0,1,1,1,1406.2045169999983,None,1406.2045169999983,None,1,4.7601408759983315,1406.2045169999983,None,1410.9980520169993,None,1410.9980520169993,None,1413.501084888001,None,1413.501084888001,None,1.0836411739983305,1415.3039025159997,None,1415.3039025159997,None,5,1,0.9180162939992442,1416.374492523999,None,1416.374492523999,None,1416.374492523999,None,1417.308917530001,None,1,0.5690200220014958,1417.308917530001,None,116,1417.8939534819983,None,105,A,1,2021_May_20_1436,GazeFlow,2020.1.2,59.83338245863109,
11,Block512.xls,A,12,3,66,6,21,incongruent,Right,Left,Right,38,39,1,blue,2,6,/home/docky/apps/exp/images/38B.jpeg,/home/docky/apps/exp/images/39Bi.jpeg,0,10,10,10,0,2,2,2,1418.8957082829984,None,1418.8957082829984,None,1,4.609488663998491,1418.8957082829984,None,1423.5390510430007,None,1423.5390510430007,None,1426.041600097,None,1426.041600097,None,1.484472056003142,1427.8398963910004,None,1427.8398963910004,None,6,1,0.8854327219996776,1429.3163245100004,None,1429.3163245100004,None,1429.3163245100004,None,1430.217845700001,None,1,0.5178912509982183,1430.217845700001,None,118,1430.7522897499985,None,105,A,1,2021_May_20_1436,GazeFlow,2020.1.2,59.83338245863109,
11,Block512.xls,A,12,4,35,35,12,congruent,Right,Right,Left,66,65,1,blue,2,5,/home/docky/apps/exp/images/66B.jpeg,/home/docky/apps/exp/images/35Yi.jpeg,0,10,10,10,0,3,3,3,1431.7539596770002,None,1431.7539596770002,None,1,5.09394519000125,1431.7539596770002,None,1436.8815897509994,None,1436.8815897509994,None,1439.3849002139978,None,1439.3849002139978,None,1.3341202669980703,1441.188058366999,None,1441.188058366999,None,5,1,0.9016588750018855,1442.5083869089976,None,1442.5083869089976,None,1442.5083869089976,None,1443.4267426469996,None,1,0.5174734699976398,1443.4267426469996,None,120,1443.9609631899984,None,105,A,1,2021_May_20_1436,GazeFlow,2020.1.2,59.83338245863109,
11,Block512.xls,A,12,5,40,40,12,congruent,Right,Right,Left,79,76,3,blue,2,5,/home/docky/apps/exp/images/79Bi.jpeg,/home/docky/apps/exp/images/76B.jpeg,0,10,10,10,0,4,4,4,1444.9635062880006,None,1444.9635062880006,None,1,5.210097753999435,1444.9635062880006,None,1450.205895256,None,1450.205895256,None,1452.7120840370007,None,1452.7120840370007,None,1.300862400999904,1454.513343030998,None,1454.513343030998,None,5,1,0.8511240689986153,1455.8011329830006,None,1455.8011329830006,None,1455.8011329830006,None,1456.6687824229994,None,1,0.5688985289998527,1456.6687824229994,None,122,1457.2538791869993,None,105,A,1,2021_May_20_1436,GazeFlow,2020.1.2,59.83338245863109,
11,Block512.xls,A,12,6,64,4,21,incongruent,Right,Left,Right,65,66,1,blue,2,6,/home/docky/apps/exp/images/35Yi.jpeg,/home/docky/apps/exp/images/66B.jpeg,0,10,10,10,0,5,5,5,1458.2554589459978,None,1458.2554589459978,None,1,4.893817359999957,1458.2554589459978,None,1463.1825446389994,None,1463.1825446389994,None,1465.6867847100002,None,1465.6867847100002,None,1.4509814209995966,1467.4891083820003,None,1467.4891083820003,None,6,1,0.8853894830026547,1468.9264837150004,None,1468.9264837150004,None,1468.9264837150004,None,1469.8282712029977,None,1,0.550987859001907,1469.8282712029977,None,124,1470.3960340810008,None,105,A,1,2021_May_20_1436,GazeFlow,2020.1.2,59.83338245863109,
11,Block512.xls,A,12,7,12,12,11,congruent,Left,Left,Right,76,79,3,blue,2,6,/home/docky/apps/exp/images/76B.jpeg,/home/docky/apps/exp/images/79Bi.jpeg,0,10,10,10,0,6,6,6,1471.3975623259976,None,1471.3975623259976,None,1,4.793787074999273,1471.3975623259976,None,1476.225354803999,None,1476.225354803999,None,1478.729488547,None,1478.729488547,None,1.333955906000483,1480.5309737850002,None,1480.5309737850002,None,5,0,0.884820633000345,1481.8516755460005,None,1481.8516755460005,None,1481.8516755460005,None,1482.7530739499998,None,1,0.5512700949984719,1482.7530739499998,None,122,1483.3206255580008,None,105,A,1,2021_May_20_1436,GazeFlow,2020.1.2,59.83338245863109,
11,Block512.xls,A,12,8,49,49,12,congruent,Right,Right,Left,39,38,1,yellow,2,5,/home/docky/apps/exp/images/39Y.jpeg,/home/docky/apps/exp/images/38Yi.jpeg,0,10,10,10,0,7,7,7,1484.322535632,None,1484.322535632,None,1,4.993873282997811,1484.322535632,None,1489.3500586170012,None,1489.3500586170012,None,1491.8582289769984,None,1491.8582289769984,None,1.8182154140013154,1493.6561203989986,None,1493.6561203989986,None,6,0,0.8349272070008738,1495.4614455250012,None,1495.4614455250012,None,1495.4614455250012,None,1496.3128944140008,None,1,0.5505837710006745,1496.3128944140008,None,120,1496.8800003959986,None,105,A,1,2021_May_20_1436,GazeFlow,2020.1.2,59.83338245863109,
11,Block512.xls,A,,,,,,,,,,,,,,,,,,0,10,10,10,,,,,,,,,,,,,,,,,,,,,,,,,,,,,,,,,,,,,,,,,,,,105,A,1,2021_May_20_1436,GazeFlow,2020.1.2,59.83338245863109,
12,Block503.xls,A,3,1,22,22,11,congruent,Left,Left,Right,62,65,3,yellow,2,6,/home/docky/apps/exp/images/38Bi.jpeg,/home/docky/apps/exp/images/35B.jpeg,0,11,11,11,0,0,0,0,1520.1762568739978,None,1520.1762568739978,None,1,6.1679130739976245,1520.1762568739978,None,1526.375687156,None,1526.375687156,None,1528.894900725998,None,1528.894900725998,None,1.23350756599757,1530.6957460230005,None,1530.6957460230005,None,6,1,3.7574511670027277,1531.9155261310007,None,1531.9155261310007,None,1531.9155261310007,None,1535.689388349001,None,1,0.8182785169992712,1535.689388349001,None,122,1536.524380720999,None,105,A,1,2021_May_20_1436,GazeFlow,2020.1.2,59.83338245863109,
12,Block503.xls,A,3,2,65,5,21,incongruent,Right,Left,Right,65,66,1,blue,2,6,/home/docky/apps/exp/images/35Y.jpeg,/home/docky/apps/exp/images/66Bi.jpeg,0,11,11,11,0,1,1,1,1537.5264066540003,None,1537.5264066540003,None,1,4.4419697699995595,1537.5264066540003,None,1542.0022599719996,None,1542.0022599719996,None,1544.5055781769988,None,1544.5055781769988,None,1.5846640600029787,1546.3105069919984,None,1546.3105069919984,None,5,0,0.8852461239985132,1547.8798513760012,None,1547.8798513760012,None,1547.8798513760012,None,1548.7814480659981,None,1,0.7011522469983902,1548.7814480659981,None,120,1549.4991845149998,None,105,A,1,2021_May_20_1436,GazeFlow,2020.1.2,59.83338245863109,
12,Block503.xls,A,3,3,76,16,21,incongruent,Right,Left,Right,33,35,2,yellow,2,6,/home/docky/apps/exp/images/33Y.jpeg,/home/docky/apps/exp/images/35Yi.jpeg,0,11,11,11,0,2,2,2,1550.5009841659994,None,1550.5009841659994,None,1,5.027729325000109,1550.5009841659994,None,1555.5619236499988,None,1555.5619236499988,None,1558.0649432999999,None,1558.0649432999999,None,1.3676940450022812,1559.8630112190003,None,1559.8630112190003,None,6,1,0.9520314820001659,1561.2224831739986,None,1561.2224831739986,None,1561.2224831739986,None,1562.190863421998,None,1,0.7178497940003581,1562.190863421998,None,122,1562.9252638990001,None,105,A,1,2021_May_20_1436,GazeFlow,2020.1.2,59.83338245863109,
12,Block503.xls,A,3,4,29,29,11,congruent,Left,Left,Right,79,82,3,yellow,2,6,/home/docky/apps/exp/images/79Y.jpeg,/home/docky/apps/exp/images/80Yi.jpeg,0,11,11,11,0,3,3,3,1563.927109338998,None,1563.927109338998,None,1,4.426020879000134,1563.927109338998,None,1568.3867849339986,None,1568.3867849339986,None,1570.890145114001,None,1570.890145114001,None,1.5513025740001467,1572.6930529439996,None,1572.6930529439996,None,5,0,1.2189878889985266,1574.2312877160002,None,1574.2312877160002,None,1574.2312877160002,None,1575.4667388659982,None,1,0.5839148439990822,1575.4667388659982,None,120,1576.0676488520003,None,105,A,1,2021_May_20_1436,GazeFlow,2020.1.2,59.83338245863109,
12,Block503.xls,A,3,5,103,43,22,incongruent,Left,Right,Left,39,38,1,blue,2,5,/home/docky/apps/exp/images/39Bi.jpeg,/home/docky/apps/exp/images/38B.jpeg,0,11,11,11,0,4,4,4,1577.0695824610011,None,1577.0695824610011,None,1,4.826500192000822,1577.0695824610011,None,1581.9299153879983,None,1581.9299153879983,None,1584.43475416,None,1584.43475416,None,1.4176718899980187,1586.2363515899997,None,1586.2363515899997,None,5,1,0.9177904099997249,1587.6406168549984,None,1587.6406168549984,None,1587.6406168549984,None,1588.5749278279982,None,1,0.6681563220008684,1588.5749278279982,None,122,1589.259339281998,None,105,A,1,2021_May_20_1436,GazeFlow,2020.1.2,59.83338245863109,
12,Block503.xls,A,3,6,47,47,12,congruent,Right,Right,Left,35,33,2,yellow,2,5,/home/docky/apps/exp/images/35Yi.jpeg,/home/docky/apps/exp/images/33Y.jpeg,0,11,11,11,0,5,5,5,1590.2616843760006,None,1590.2616843760006,None,1,5.9961604489981255,1590.2616843760006,None,1596.2911397219978,None,1596.2911397219978,None,1598.7942958079984,None,1598.7942958079984,None,1.3006217520014616,1600.5972967849993,None,1600.5972967849993,None,5,1,0.9513996050009155,1601.8848894949988,None,1601.8848894949988,None,1601.8848894949988,None,1602.8530727689977,None,1,0.5514246709972213,1602.8530727689977,None,124,1603.4207140420003,None,105,A,1,2021_May_20_1436,GazeFlow,2020.1.2,59.83338245863109,
12,Block503.xls,A,3,7,20,20,11,congruent,Left,Left,Right,65,66,1,yellow,2,6,/home/docky/apps/exp/images/35Bi.jpeg,/home/docky/apps/exp/images/66Y.jpeg,0,11,11,11,0,6,6,6,1604.4225533309982,None,1604.4225533309982,None,1,5.160626993998449,1604.4225533309982,None,1609.6167985569991,None,1609.6167985569991,None,1612.1233221340008,None,1612.1233221340008,None,1.98545779199776,1613.9175668040007,None,1613.9175668040007,None,6,1,0.885134296000615,1615.8953750559995,None,1615.8953750559995,None,1615.8953750559995,None,1616.7969678640002,None,1,0.5005187539973122,1616.7969678640002,None,126,1617.314215118,None,105,A,1,2021_May_20_1436,GazeFlow,2020.1.2,59.83338245863109,
12,Block503.xls,A,3,8,27,27,11,congruent,Left,Left,Right,72,77,5,yellow,2,6,/home/docky/apps/exp/images/72Yi.jpeg,/home/docky/apps/exp/images/77Y.jpeg,0,11,11,11,0,7,7,7,1618.3159714569993,None,1618.3159714569993,None,1,4.39325223600099,1618.3159714569993,None,1622.7425599449998,None,1622.7425599449998,None,1625.247557153998,None,1625.247557153998,None,1.7516294490014843,1627.048653654001,None,1627.048653654001,None,6,1,0.8520643820011173,1628.7871499249995,None,1628.7871499249995,None,1628.7871499249995,None,1629.655067773001,None,1,0.5345769759987888,1629.655067773001,None,128,1630.2058505239984,None,105,A,1,2021_May_20_1436,GazeFlow,2020.1.2,59.83338245863109,
12,Block503.xls,A,,,,,,,,,,,,,,,,,,0,11,11,11,,,,,,,,,,,,,,,,,,,,,,,,,,,,,,,,,,,,,,,,,,,,105,A,1,2021_May_20_1436,GazeFlow,2020.1.2,59.83338245863109,
13,Block501.xls,A,1,1,54,54,12,congruent,Right,Right,Left,75,69,6,yellow,2,5,/home/docky/apps/exp/images/76Y.jpeg,/home/docky/apps/exp/images/69Yi.jpeg,0,12,12,12,0,0,0,0,1649.5451440979996,None,1649.5451440979996,None,1,5.968239403999178,1649.5451440979996,None,1655.544924384998,None,1655.544924384998,None,1658.0609336179987,None,1658.0609336179987,None,1.3998666130028141,1659.8586398000007,None,1659.8586398000007,None,5,1,0.9518445819994668,1661.250299995998,None,1661.250299995998,None,1661.250299995998,None,1662.2184956620004,None,1,0.5508252429972345,1662.2184956620004,None,130,1662.7856562220004,None,105,A,1,2021_May_20_1436,GazeFlow,2020.1.2,59.83338245863109,
13,Block501.xls,A,1,2,70,10,21,incongruent,Right,Left,Right,73,76,3,blue,2,6,/home/docky/apps/exp/images/73Bi.jpeg,/home/docky/apps/exp/images/76B.jpeg,0,12,12,12,0,1,1,1,1663.7877127200009,None,1663.7877127200009,None,1,5.594968071000039,1663.7877127200009,None,1669.4162846430008,None,1669.4162846430008,None,1671.9196497169978,None,1671.9196497169978,None,1.3502702619989577,1673.7227980149983,None,1673.7227980149983,None,6,1,0.9520869529987976,1675.0600963939978,None,1675.0600963939978,None,1675.0600963939978,None,1676.0286908569979,None,1,0.5180078740013414,1676.0286908569979,None,132,1676.5630391710001,None,105,A,1,2021_May_20_1436,GazeFlow,2020.1.2,59.83338245863109,
13,Block501.xls,A,1,3,84,24,21,incongruent,Right,Left,Right,69,76,7,yellow,2,6,/home/docky/apps/exp/images/69Yi.jpeg,/home/docky/apps/exp/images/76Y.jpeg,0,12,12,12,0,2,2,2,1677.5646373319978,None,1677.5646373319978,None,1,5.244158771998627,1677.5646373319978,None,1682.8423728779999,None,1682.8423728779999,None,1685.345758391999,None,1685.345758391999,None,1.2338291279993427,1687.1482559350006,None,1687.1482559350006,None,6,1,0.8846146860014414,1688.369506248,None,1688.369506248,None,1688.369506248,None,1689.270537384,None,1,0.5517367310021655,1689.270537384,None,134,1689.8388115749985,None,105,A,1,2021_May_20_1436,GazeFlow,2020.1.2,59.83338245863109,
13,Block501.xls,A,1,4,26,26,11,congruent,Left,Left,Right,69,75,6,yellow,2,6,/home/docky/apps/exp/images/69Y.jpeg,/home/docky/apps/exp/images/76Yi.jpeg,0,12,12,12,0,3,3,3,1690.8404692039985,None,1690.8404692039985,None,1,4.876602243999514,1690.8404692039985,None,1695.7509195429993,None,1695.7509195429993,None,1698.253928637001,None,1698.253928637001,None,1.3510452850023285,1700.0572090370006,None,1700.0572090370006,None,6,1,0.9181135430007998,1701.3946901849995,None,1701.3946901849995,None,1701.3946901849995,None,1702.3292167459986,None,1,0.4515410290005093,1702.3292167459986,None,136,1702.7970522459982,None,105,A,1,2021_May_20_1436,GazeFlow,2020.1.2,59.83338245863109,
13,Block501.xls,A,1,5,97,37,22,incongruent,Left,Right,Left,79,73,6,blue,2,5,/home/docky/apps/exp/images/79B.jpeg,/home/docky/apps/exp/images/73Bi.jpeg,0,12,12,12,0,4,4,4,1703.7990581980011,None,1703.7990581980011,None,1,4.860057123001752,1703.7990581980011,None,1708.692562436001,None,1708.692562436001,None,1711.1962325460008,None,1711.1962325460008,None,1.2672567440022249,1712.999047516998,None,1712.999047516998,None,5,1,0.8843129870001576,1714.253149600001,None,1714.253149600001,None,1714.253149600001,None,1715.1544034949984,None,1,0.5341077669982042,1715.1544034949984,None,138,1715.7057208939987,None,105,A,1,2021_May_20_1436,GazeFlow,2020.1.2,59.83338245863109,
13,Block501.xls,A,1,6,98,38,22,incongruent,Left,Right,Left,79,73,6,blue,2,5,/home/docky/apps/exp/images/79B.jpeg,/home/docky/apps/exp/images/73Bi.jpeg,0,12,12,12,0,5,5,5,1716.7074345809997,None,1716.7074345809997,None,1,4.9104237020001165,1716.7074345809997,None,1721.651261799001,None,1721.651261799001,None,1724.1545163650007,None,1724.1545163650007,None,1.5010520840005483,1725.955638047999,None,1725.955638047999,None,5,1,0.8515471630016691,1727.4452813299977,None,1727.4452813299977,None,1727.4452813299977,None,1728.3132915149981,None,1,0.5181377730004897,1728.3132915149981,None,140,1728.8478193650008,None,105,A,1,2021_May_20_1436,GazeFlow,2020.1.2,59.83338245863109,
13,Block501.xls,A,1,7,77,17,21,incongruent,Right,Left,Right,65,66,1,yellow,2,6,/home/docky/apps/exp/images/35B.jpeg,/home/docky/apps/exp/images/66Yi.jpeg,0,12,12,12,0,6,6,6,1729.849460016001,None,1729.849460016001,None,1,5.111110845999065,1729.849460016001,None,1734.9939306919987,None,1734.9939306919987,None,1737.4972568880003,None,1737.4972568880003,None,1.651411532999191,1739.3003736129976,None,1739.3003736129976,None,5,0,0.9017871739997645,1740.9381466960003,None,1740.9381466960003,None,1740.9381466960003,None,1741.8562761219982,None,1,0.5341589259987813,1741.8562761219982,None,138,1742.407089278,None,105,A,1,2021_May_20_1436,GazeFlow,2020.1.2,59.83338245863109,
13,Block501.xls,A,1,8,50,50,12,congruent,Right,Right,Left,66,65,1,yellow,2,5,/home/docky/apps/exp/images/66Y.jpeg,/home/docky/apps/exp/images/35Bi.jpeg,0,12,12,12,0,7,7,7,1743.4089770469982,None,1743.4089770469982,None,1,5.043981879000057,1743.4089770469982,None,1748.4864274959982,None,1748.4864274959982,None,1750.9897612719978,None,1750.9897612719978,None,2.1023163739992015,1752.7888154020002,None,1752.7888154020002,None,5,1,0.8677560560026905,1754.8820996449977,None,1754.8820996449977,None,1754.8820996449977,None,1755.7665269440004,None,1,0.4842481019986735,1755.7665269440004,None,140,1756.2675286140002,None,105,A,1,2021_May_20_1436,GazeFlow,2020.1.2,59.83338245863109,
13,Block501.xls,A,,,,,,,,,,,,,,,,,,0,12,12,12,,,,,,,,,,,,,,,,,,,,,,,,,,,,,,,,,,,,,,,,,,,,105,A,1,2021_May_20_1436,GazeFlow,2020.1.2,59.83338245863109,
14,Block513.xls,A,13,1,32,32,12,congruent,Right,Right,Left,19,16,3,blue,2,5,/home/docky/apps/exp/images/19B.jpeg,/home/docky/apps/exp/images/16Bi.jpeg,0,13,13,13,0,0,0,0,1787.948125832001,None,1787.948125832001,None,1,6.218688261997158,1787.948125832001,None,1794.1883467509979,None,1794.1883467509979,None,1796.7141489899986,None,1796.7141489899986,None,1.283514004000608,1798.5148266190008,None,1798.5148266190008,None,5,1,0.9511921159974008,1799.7859116239997,None,1799.7859116239997,None,1799.7859116239997,None,1800.7538970649985,None,1,0.551593338001112,1800.7538970649985,None,142,1801.321956107,None,105,A,1,2021_May_20_1436,GazeFlow,2020.1.2,59.83338245863109,
14,Block513.xls,A,13,2,81,21,21,incongruent,Right,Left,Right,38,39,1,yellow,2,6,/home/docky/apps/exp/images/38Yi.jpeg,/home/docky/apps/exp/images/39Y.jpeg,0,13,13,13,0,1,1,1,1802.3234996520005,None,1802.3234996520005,None,1,4.910597639998741,1802.3234996520005,None,1807.2695022589978,None,1807.2695022589978,None,1809.7710505600007,None,1809.7710505600007,None,1.2171704690008482,1811.5744373310008,None,1811.5744373310008,None,5,0,0.9180438990006223,1812.7775763879981,None,1812.7775763879981,None,1812.7775763879981,None,1813.7125024790002,None,1,0.6183166549999441,1813.7125024790002,None,140,1814.3470674689997,None,105,A,1,2021_May_20_1436,GazeFlow,2020.1.2,59.83338245863109,
14,Block513.xls,A,13,3,92,32,22,incongruent,Left,Right,Left,19,16,3,blue,2,5,/home/docky/apps/exp/images/19B.jpeg,/home/docky/apps/exp/images/16Bi.jpeg,0,13,13,13,0,2,2,2,1815.3488672319982,None,1815.3488672319982,None,1,5.060439933997259,1815.3488672319982,None,1820.441345326999,None,1820.441345326999,None,1822.947993392998,None,1822.947993392998,None,1.6681863049998356,1824.7449374629978,None,1824.7449374629978,None,5,1,0.868885997999314,1826.4041273309995,None,1826.4041273309995,None,1826.4041273309995,None,1827.289047891998,None,1,0.551600247999886,1827.289047891998,None,142,1827.856456147998,None,105,A,1,2021_May_20_1436,GazeFlow,2020.1.2,59.83338245863109,
14,Block513.xls,A,13,4,6,6,11,congruent,Left,Left,Right,65,66,1,blue,2,6,/home/docky/apps/exp/images/35Y.jpeg,/home/docky/apps/exp/images/66Bi.jpeg,0,13,13,13,0,3,3,3,1828.858356318,None,1828.858356318,None,1,4.660148335999111,1828.858356318,None,1833.5504527379999,None,1833.5504527379999,None,1836.054899335999,None,1836.054899335999,None,1.6181176159989263,1837.852974516998,None,1837.852974516998,None,5,0,0.9190198700016481,1839.4628549769986,None,1839.4628549769986,None,1839.4628549769986,None,1840.3979209669997,None,1,0.51733211499959,1840.3979209669997,None,140,1840.9314872549985,None,105,A,1,2021_May_20_1436,GazeFlow,2020.1.2,59.83338245863109,
14,Block513.xls,A,13,5,67,7,21,incongruent,Right,Left,Right,38,39,1,blue,2,6,/home/docky/apps/exp/images/38Bi.jpeg,/home/docky/apps/exp/images/39B.jpeg,0,13,13,13,0,4,4,4,1841.9340595579997,None,1841.9340595579997,None,1,4.643382526002824,1841.9340595579997,None,1846.6107522149978,None,1846.6107522149978,None,1849.1139285149984,None,1849.1139285149984,None,1.517830523000157,1850.9117252869983,None,1850.9117252869983,None,6,1,0.9689514050005528,1852.4213851550012,None,1852.4213851550012,None,1852.4213851550012,None,1853.4064485669987,None,1,0.5675559820010676,1853.4064485669987,None,142,1853.9905159170012,None,105,A,1,2021_May_20_1436,GazeFlow,2020.1.2,59.83338245863109,
14,Block513.xls,A,13,6,111,51,22,incongruent,Left,Right,Left,66,65,1,yellow,2,5,/home/docky/apps/exp/images/66Yi.jpeg,/home/docky/apps/exp/images/35B.jpeg,0,13,13,13,0,5,5,5,1854.992336905998,None,1854.992336905998,None,1,4.476251664000301,1854.992336905998,None,1859.5003602059987,None,1859.5003602059987,None,1862.005178643998,None,1862.005178643998,None,1.7015025389991933,1863.8033004379977,None,1863.8033004379977,None,5,1,0.8352180260008026,1865.4967509359994,None,1865.4967509359994,None,1865.4967509359994,None,1866.348294094998,None,1,0.6011051179993956,1866.348294094998,None,144,1866.9656556499976,None,105,A,1,2021_May_20_1436,GazeFlow,2020.1.2,59.83338245863109,
14,Block513.xls,A,13,7,88,28,21,incongruent,Right,Left,Right,79,82,3,yellow,2,6,/home/docky/apps/exp/images/79Y.jpeg,/home/docky/apps/exp/images/80Yi.jpeg,0,13,13,13,0,6,6,6,1867.9678430329986,None,1867.9678430329986,None,1,4.793217656999332,1867.9678430329986,None,1872.7947775899993,None,1872.7947775899993,None,1875.2978105619986,None,1875.2978105619986,None,1.384299187000579,1877.1010934629994,None,1877.1010934629994,None,5,0,0.9183978820001357,1878.4720168349995,None,1878.4720168349995,None,1878.4720168349995,None,1879.4069246049985,None,1,0.5682221239985665,1879.4069246049985,None,142,1879.9914312330002,None,105,A,1,2021_May_20_1436,GazeFlow,2020.1.2,59.83338245863109,
14,Block513.xls,A,13,8,14,14,11,congruent,Left,Left,Right,80,83,3,blue,2,6,/home/docky/apps/exp/images/80B.jpeg,/home/docky/apps/exp/images/83Bi.jpeg,0,13,13,13,0,7,7,7,1880.9930009479976,None,1880.9930009479976,None,1,5.311376139001368,1880.9930009479976,None,1886.3361204629982,None,1886.3361204629982,None,1888.8411435989983,None,1888.8411435989983,None,1.618000911999843,1890.6446424649985,None,1890.6446424649985,None,6,1,0.985671098002058,1892.248718638999,None,1892.248718638999,None,1892.248718638999,None,1893.250535905001,None,1,0.5672428229991056,1893.250535905001,None,144,1893.8345024240007,None,105,A,1,2021_May_20_1436,GazeFlow,2020.1.2,59.83338245863109,
14,Block513.xls,A,,,,,,,,,,,,,,,,,,0,13,13,13,,,,,,,,,,,,,,,,,,,,,,,,,,,,,,,,,,,,,,,,,,,,105,A,1,2021_May_20_1436,GazeFlow,2020.1.2,59.83338245863109,
15,Block514.xls,A,14,1,113,53,22,incongruent,Left,Right,Left,75,69,6,yellow,2,5,/home/docky/apps/exp/images/76Y.jpeg,/home/docky/apps/exp/images/69Yi.jpeg,0,14,14,14,0,0,0,0,1916.4466268729993,None,1916.4466268729993,None,1,6.169803173997934,1916.4466268729993,None,1922.6376482099986,None,1922.6376482099986,None,1925.1631669249982,None,1925.1631669249982,None,1.4169920120002644,1926.9647971759987,None,1926.9647971759987,None,5,1,0.918123645002197,1928.368949036998,None,1928.368949036998,None,1928.368949036998,None,1929.3034922820007,None,1,0.7013193430029787,1929.3034922820007,None,146,1930.021511619001,None,105,A,1,2021_May_20_1436,GazeFlow,2020.1.2,59.83338245863109,
15,Block514.xls,A,14,2,45,45,12,congruent,Right,Right,Left,39,38,1,blue,2,5,/home/docky/apps/exp/images/39B.jpeg,/home/docky/apps/exp/images/38Bi.jpeg,0,14,14,14,0,1,1,1,1931.0234906570004,None,1931.0234906570004,None,1,5.578188145998865,1931.0234906570004,None,1936.640336777,None,1936.640336777,None,1939.137865730001,None,1939.137865730001,None,1.6180439759991714,1940.9399372279986,None,1940.9399372279986,None,5,1,1.0350928230000136,1942.5464339889986,None,1942.5464339889986,None,1942.5464339889986,None,1943.5982433040008,None,1,0.6009337619980215,1943.5982433040008,None,148,1944.2158121209977,None,105,A,1,2021_May_20_1436,GazeFlow,2020.1.2,59.83338245863109,
15,Block514.xls,A,14,3,52,52,12,congruent,Right,Right,Left,75,69,6,yellow,2,5,/home/docky/apps/exp/images/76Y.jpeg,/home/docky/apps/exp/images/69Yi.jpeg,0,14,14,14,0,2,2,2,1945.218341355001,None,1945.218341355001,None,1,5.6942305990014574,1945.218341355001,None,1950.9463536559997,None,1950.9463536559997,None,1953.4515553659985,None,1953.4515553659985,None,1.4844785579989548,1955.2549710149979,None,1955.2549710149979,None,5,1,0.9353362379988539,1956.7239323739996,None,1956.7239323739996,None,1956.7239323739996,None,1957.6756598930006,None,1,0.6841162939999776,1957.6756598930006,None,150,1958.376604522,None,105,A,1,2021_May_20_1436,GazeFlow,2020.1.2,59.83338245863109,
15,Block514.xls,A,14,4,106,46,22,incongruent,Left,Right,Left,35,33,2,yellow,2,5,/home/docky/apps/exp/images/35Yi.jpeg,/home/docky/apps/exp/images/33Y.jpeg,0,14,14,14,0,3,3,3,1959.3785395560008,None,1959.3785395560008,None,1,4.776621769000485,1959.3785395560008,None,1964.1890187399986,None,1964.1890187399986,None,1966.6919646360002,None,1966.6919646360002,None,1.3508355710000615,1968.495582036001,None,1968.495582036001,None,5,1,0.8675632839986065,1969.8330242049997,None,1969.8330242049997,None,1969.8330242049997,None,1970.7172864409986,None,1,0.48460671700013336,1970.7172864409986,None,152,1971.2186627890005,None,105,A,1,2021_May_20_1436,GazeFlow,2020.1.2,59.83338245863109,
15,Block514.xls,A,14,5,109,49,22,incongruent,Left,Right,Left,39,38,1,yellow,2,5,/home/docky/apps/exp/images/39Yi.jpeg,/home/docky/apps/exp/images/38Y.jpeg,0,14,14,14,0,4,4,4,1972.2200980259986,None,1972.2200980259986,None,1,4.325723380999989,1972.2200980259986,None,1976.5795957240007,None,1976.5795957240007,None,1979.0844370310006,None,1979.0844370310006,None,1.6849341209999693,1980.8811804479992,None,1980.8811804479992,None,5,1,0.8515805399983947,1982.5574510469996,None,1982.5574510469996,None,1982.5574510469996,None,1983.425599891998,None,1,0.3676627329987241,1983.425599891998,None,154,1983.809767824001,None,105,A,1,2021_May_20_1436,GazeFlow,2020.1.2,59.83338245863109,
15,Block514.xls,A,14,6,89,29,21,incongruent,Right,Left,Right,79,82,3,yellow,2,6,/home/docky/apps/exp/images/79Yi.jpeg,/home/docky/apps/exp/images/80Y.jpeg,0,14,14,14,0,5,5,5,1984.8114879040004,None,1984.8114879040004,None,1,4.7599244310004,1984.8114879040004,None,1989.605497785,None,1989.605497785,None,1992.1078199119984,None,1992.1078199119984,None,1.9015371259993117,1993.9061430910006,None,1993.9061430910006,None,6,1,0.7682278460015368,1995.7999227149994,None,1995.7999227149994,None,1995.7999227149994,None,1996.5846065650003,None,1,0.48377049100236036,1996.5846065650003,None,156,1997.084978889001,None,105,A,1,2021_May_20_1436,GazeFlow,2020.1.2,59.83338245863109,
15,Block514.xls,A,14,7,91,31,22,incongruent,Left,Right,Left,19,16,3,blue,2,5,/home/docky/apps/exp/images/19Bi.jpeg,/home/docky/apps/exp/images/16B.jpeg,0,14,14,14,0,6,6,6,1998.0870364209986,None,1998.0870364209986,None,1,4.2088562220014865,1998.0870364209986,None,2002.3296669730007,None,2002.3296669730007,None,2004.8343001369976,None,2004.8343001369976,None,1.4681638539987034,2006.6381631900003,None,2006.6381631900003,None,5,1,0.8679250460008916,2008.0904279690003,None,2008.0904279690003,None,2008.0904279690003,None,2008.9746941859994,None,1,0.5351742500024557,2008.9746941859994,None,158,2009.526461215999,None,105,A,1,2021_May_20_1436,GazeFlow,2020.1.2,59.83338245863109,
15,Block514.xls,A,14,8,79,19,21,incongruent,Right,Left,Right,62,65,3,yellow,2,6,/home/docky/apps/exp/images/38B.jpeg,/home/docky/apps/exp/images/35Bi.jpeg,0,14,14,14,0,7,7,7,2010.5280292509997,None,2010.5280292509997,None,1,4.325572401998215,2010.5280292509997,None,2014.8852255689999,None,2014.8852255689999,None,2017.3929696300002,None,2017.3929696300002,None,1.6847331629978726,2019.193670149998,None,2019.193670149998,None,6,1,0.8186594969993166,2020.8652989830007,None,2020.8652989830007,None,2020.8652989830007,None,2021.700033412999,None,1,0.6175183209998067,2021.700033412999,None,160,2022.3341540330002,None,105,A,1,2021_May_20_1436,GazeFlow,2020.1.2,59.83338245863109,
15,Block514.xls,A,,,,,,,,,,,,,,,,,,0,14,14,14,,,,,,,,,,,,,,,,,,,,,,,,,,,,,,,,,,,,,,,,,,,,105,A,1,2021_May_20_1436,GazeFlow,2020.1.2,59.83338245863109,
