Nblock,condsFile,grouping,Block,TrialBlock,N,trialN,trialCond,gazeCon,gazedirR,corrBinR,corrBinP,valLBY,valRBY,diff,colorCube,feedbacktext,corrAns,imageL,imageR,SelBlocks.thisRepN,SelBlocks.thisTrialN,SelBlocks.thisN,SelBlocks.thisIndex,Trials.thisRepN,Trials.thisTrialN,Trials.thisN,Trials.thisIndex,waitCube.started,waitCube.stopped,text_3.started,text_3.stopped,StartKeyPress.keys,StartKeyPress.rt,StartKeyPress.started,StartKeyPress.stopped,StimL.started,StimL.stopped,StimR.started,StimR.stopped,imageStim2L.started,imageStim2L.stopped,imageStim2R.started,imageStim2R.stopped,RTkeyRelease,imageStim3L.started,imageStim3L.stopped,imageStim3R.started,imageStim3R.stopped,dropResp.keys,dropResp.corr,dropResp.rt,dropResp.started,dropResp.stopped,imageStim5L.started,imageStim5L.stopped,imageStim5R.started,imageStim5R.stopped,text_2.started,text_2.stopped,ReturnSpace.keys,ReturnSpace.rt,ReturnSpace.started,ReturnSpace.stopped,totalpoints,textFeedback.started,textFeedback.stopped,participant,group,session,date,expName,psychopyVersion,frameRate,
1,Block809.xls,B,9,1,93,93,None,congruent,Right,Right,Left,80,79,1,yellow,2,5,/home/docky/apps/exp/images/80Y.jpeg,/home/docky/apps/exp/images/79Yi.jpeg,0,0,0,0,0,0,0,0,39.2547329309964,None,39.2547329309964,None,1,18.955969702001312,39.2547329309964,None,58.24455549699633,None,58.24455549699633,None,60.761314691000734,None,60.761314691000734,None,1.1162807460059412,62.56068828499701,None,62.56068828499701,None,5,1,0.9345758209965425,63.66472435399919,None,63.66472435399919,None,63.66472435399919,None,64.6161644620006,None,1,0.6179774859992904,64.6161644620006,None,2,65.25028123399534,None,106,B,1,2021_May_20_1807,GazeFlow,2020.1.2,59.90809965553004,
1,Block809.xls,B,9,2,15,15,None,congruent,Left,Left,Right,38,39,1,blue,2,6,/home/docky/apps/exp/images/38B.jpeg,/home/docky/apps/exp/images/39Bi.jpeg,0,0,0,0,0,1,1,1,66.25237342099717,None,66.25237342099717,None,1,4.459933689999161,66.25237342099717,None,70.73134847199981,None,70.73134847199981,None,73.24863854599971,None,73.24863854599971,None,1.2505423159964266,75.05230547500105,None,75.05230547500105,None,6,1,1.051612187999126,76.28919121899526,None,76.28919121899526,None,76.28919121899526,None,77.3575180869957,None,1,0.6353377030027332,77.3575180869957,None,4,78.00911851500132,None,106,B,1,2021_May_20_1807,GazeFlow,2020.1.2,59.90809965553004,
1,Block809.xls,B,9,3,117,21,None,incongruent,Left,Right,Left,39,38,1,yellow,2,5,/home/docky/apps/exp/images/39Yi.jpeg,/home/docky/apps/exp/images/38Y.jpeg,0,0,0,0,0,2,2,2,79.01066429299681,None,79.01066429299681,None,1,4.609536551004567,79.01066429299681,None,83.65360181900178,None,83.65360181900178,None,86.15715665499738,None,86.15715665499738,None,1.2337869689945364,87.96026394199725,None,87.96026394199725,None,5,1,0.9009743319984409,89.18096332099958,None,89.18096332099958,None,89.18096332099958,None,90.09858881100081,None,1,0.6019632259994978,90.09858881100081,None,6,90.71703530599916,None,106,B,1,2021_May_20_1807,GazeFlow,2020.1.2,59.90809965553004,
1,Block809.xls,B,9,4,94,94,None,congruent,Right,Right,Left,80,79,1,yellow,2,5,/home/docky/apps/exp/images/80Y.jpeg,/home/docky/apps/exp/images/79Yi.jpeg,0,0,0,0,0,3,3,3,91.71865090500069,None,91.71865090500069,None,1,4.559516606001125,91.71865090500069,None,96.31186198799696,None,96.31186198799696,None,98.81496082699596,None,98.81496082699596,None,1.3175430849951226,100.61321596599737,None,100.61321596599737,None,5,1,0.934409236004285,101.9224612830003,None,101.9224612830003,None,101.9224612830003,None,102.87360973199975,None,1,0.6022100760019384,102.87360973199975,None,8,103.49182574999577,None,106,B,1,2021_May_20_1807,GazeFlow,2020.1.2,59.90809965553004,
1,Block809.xls,B,9,5,41,41,None,congruent,Right,Right,Left,79,76,3,blue,2,5,/home/docky/apps/exp/images/79Bi.jpeg,/home/docky/apps/exp/images/76B.jpeg,0,0,0,0,0,4,4,4,104.49333138699876,None,104.49333138699876,None,1,5.22757758100488,104.49333138699876,None,109.75488602199766,None,109.75488602199766,None,112.2595797469985,None,112.2595797469985,None,1.9686819839989766,114.0613993099978,None,114.0613993099978,None,5,1,1.0847015280014602,116.01641537500109,None,116.01641537500109,None,116.01641537500109,None,117.11762146800174,None,1,0.6016749730042648,117.11762146800174,None,10,117.73588652599574,None,106,B,1,2021_May_20_1807,GazeFlow,2020.1.2,59.90809965553004,
1,Block809.xls,B,9,6,36,36,None,congruent,Right,Right,Left,79,73,6,blue,2,5,/home/docky/apps/exp/images/79Bi.jpeg,/home/docky/apps/exp/images/73B.jpeg,0,0,0,0,0,5,5,5,118.73822846799885,None,118.73822846799885,None,1,4.559050422998553,118.73822846799885,None,123.33107414699771,None,123.33107414699771,None,125.83569245800027,None,125.83569245800027,None,1.2675685119975242,127.63345261899667,None,127.63345261899667,None,5,1,0.9845855149978888,128.89137402099732,None,128.89137402099732,None,128.89137402099732,None,129.892945186999,None,1,0.6678967690022546,129.892945186999,None,12,130.57721106499957,None,106,B,1,2021_May_20_1807,GazeFlow,2020.1.2,59.90809965553004,
1,Block809.xls,B,9,7,78,78,None,congruent,Right,Right,Left,39,38,1,yellow,2,5,/home/docky/apps/exp/images/39Yi.jpeg,/home/docky/apps/exp/images/38Y.jpeg,0,0,0,0,0,6,6,6,131.5794159500001,None,131.5794159500001,None,1,5.143889371000114,131.5794159500001,None,136.75724808999803,None,136.75724808999803,None,139.2629136050018,None,139.2629136050018,None,1.8519263970010797,141.0631321519977,None,141.0631321519977,None,5,1,1.101531320004142,142.90205672499724,None,142.90205672499724,None,142.90205672499724,None,144.02023375799763,None,1,0.6848489789990708,144.02023375799763,None,14,144.72115521100204,None,106,B,1,2021_May_20_1807,GazeFlow,2020.1.2,59.90809965553004,
1,Block809.xls,B,9,8,29,29,None,congruent,Right,Right,Left,38,35,3,blue,2,5,/home/docky/apps/exp/images/38B.jpeg,/home/docky/apps/exp/images/35Bi.jpeg,0,0,0,0,0,7,7,7,145.72389113799727,None,145.72389113799727,None,1,4.492838219004625,145.72389113799727,None,150.25168728599965,None,150.25168728599965,None,152.75311192699883,None,152.75311192699883,None,1.718187136000779,154.5508059049971,None,154.5508059049971,None,5,1,1.0521505910000997,156.2610780479954,None,156.2610780479954,None,156.2610780479954,None,157.32973742499598,None,1,0.7843081030005123,157.32973742499598,None,16,158.13072465799632,None,106,B,1,2021_May_20_1807,GazeFlow,2020.1.2,59.90809965553004,
1,Block809.xls,B,,,,,,,,,,,,,,,,,,0,0,0,0,,,,,,,,,,,,,,,,,,,,,,,,,,,,,,,,,,,,,,,,,,,,106,B,1,2021_May_20_1807,GazeFlow,2020.1.2,59.90809965553004,
2,Block805.xls,B,5,1,16,16,None,congruent,Left,Left,Right,73,76,3,blue,2,6,/home/docky/apps/exp/images/73B.jpeg,/home/docky/apps/exp/images/76Bi.jpeg,0,1,1,1,0,0,0,0,177.12076574000093,None,177.12076574000093,None,1,7.855018833994109,177.12076574000093,None,184.998022957996,None,184.998022957996,None,187.52240661199903,None,187.52240661199903,None,1.801528228999814,189.32429920700088,None,189.32429920700088,None,6,1,1.0014635449988418,191.112186817998,None,191.112186817998,None,191.112186817998,None,192.13032704000216,None,1,0.6849780519987689,192.13032704000216,None,18,192.83165170800203,None,106,B,1,2021_May_20_1807,GazeFlow,2020.1.2,59.90809965553004,
2,Block805.xls,B,5,2,2,2,None,congruent,Left,Left,Right,16,19,3,blue,2,6,/home/docky/apps/exp/images/16B.jpeg,/home/docky/apps/exp/images/19Bi.jpeg,0,1,1,1,0,1,1,1,193.83379160000186,None,193.83379160000186,None,1,4.8265078279946465,193.83379160000186,None,198.69421590899583,None,198.69421590899583,None,201.19884699999966,None,201.19884699999966,None,1.4176631739974255,203.00080023900227,None,203.00080023900227,None,6,1,0.9688153349998174,204.40464442299708,None,204.40464442299708,None,204.40464442299708,None,205.3898997340002,None,1,0.5838290019964916,205.3898997340002,None,20,205.99043373899622,None,106,B,1,2021_May_20_1807,GazeFlow,2020.1.2,59.90809965553004,
2,Block805.xls,B,5,3,64,64,None,congruent,Left,Left,Right,69,76,7,yellow,2,6,/home/docky/apps/exp/images/69Y.jpeg,/home/docky/apps/exp/images/76Yi.jpeg,0,1,1,1,0,2,2,2,206.99225076699804,None,206.99225076699804,None,1,4.993973340999219,206.99225076699804,None,212.02008440999634,None,212.02008440999634,None,214.52463512100076,None,214.52463512100076,None,1.2174870430026203,216.3262429919996,None,216.3262429919996,None,6,1,18.653037636999215,217.53015970499837,None,217.53015970499837,None,217.53015970499837,None,236.1995661740002,None,1,1.3360784329997841,236.1995661740002,None,22,237.55226880100236,None,106,B,1,2021_May_20_1807,GazeFlow,2020.1.2,59.90809965553004,
2,Block805.xls,B,5,4,61,61,None,congruent,Left,Left,Right,38,39,1,yellow,2,6,/home/docky/apps/exp/images/38Yi.jpeg,/home/docky/apps/exp/images/39Y.jpeg,0,1,1,1,0,3,3,3,238.55420165399846,None,238.55420165399846,None,1,7.749199851001322,238.55420165399846,None,246.33667325699935,None,246.33667325699935,None,248.84123159299634,None,248.84123159299634,None,1.8015323420040659,250.63856748899707,None,250.63856748899707,None,5,0,1.0349887780030258,252.4314612140006,None,252.4314612140006,None,252.4314612140006,None,253.48320629500085,None,1,0.750913946001674,253.48320629500085,None,20,254.2507435430016,None,106,B,1,2021_May_20_1807,GazeFlow,2020.1.2,59.90809965553004,
2,Block805.xls,B,5,5,23,23,None,congruent,Left,Left,Right,80,83,3,blue,2,6,/home/docky/apps/exp/images/80B.jpeg,/home/docky/apps/exp/images/83Bi.jpeg,0,1,1,1,0,4,4,4,255.25275078599952,None,255.25275078599952,None,1,6.446689181000693,255.25275078599952,None,261.7312658879964,None,261.7312658879964,None,264.236055125999,None,264.236055125999,None,1.6679337269961252,266.0392345319997,None,266.0392345319997,None,6,1,1.0357459139995626,267.6940098529958,None,267.6940098529958,None,267.6940098529958,None,268.7461268429979,None,1,0.7676598300022306,268.7461268429979,None,22,269.53073746000155,None,106,B,1,2021_May_20_1807,GazeFlow,2020.1.2,59.90809965553004,
2,Block805.xls,B,5,6,87,87,None,congruent,Right,Right,Left,76,69,7,yellow,2,5,/home/docky/apps/exp/images/76Yi.jpeg,/home/docky/apps/exp/images/69Y.jpeg,0,1,1,1,0,5,5,5,270.53289668900106,None,270.53289668900106,None,1,5.010000081994804,270.53289668900106,None,275.57657607299916,None,275.57657607299916,None,278.08142651999515,None,278.08142651999515,None,1.3007756509978208,279.8836663109978,None,279.8836663109978,None,5,1,1.0686159190008766,281.17056973099534,None,281.17056973099534,None,281.17056973099534,None,282.2558985659998,None,1,0.9181367309938651,282.2558985659998,None,24,283.19054350700026,None,106,B,1,2021_May_20_1807,GazeFlow,2020.1.2,59.90809965553004,
2,Block805.xls,B,5,7,4,4,None,congruent,Left,Left,Right,35,38,3,blue,2,6,/home/docky/apps/exp/images/35B.jpeg,/home/docky/apps/exp/images/38Bi.jpeg,0,1,1,1,0,6,6,6,284.19273494400113,None,284.19273494400113,None,1,5.227485860996239,284.19273494400113,None,289.45379725199746,None,289.45379725199746,None,291.9584887719975,None,291.9584887719975,None,1.3842239450023044,293.7583576249963,None,293.7583576249963,None,6,1,1.1188845639990177,295.13093899299565,None,295.13093899299565,None,295.13093899299565,None,296.26618934699945,None,1,0.9514865109958919,296.26618934699945,None,26,297.23441879299935,None,106,B,1,2021_May_20_1807,GazeFlow,2020.1.2,59.90809965553004,
2,Block805.xls,B,5,8,114,18,None,incongruent,Right,Left,Right,79,82,3,yellow,2,6,/home/docky/apps/exp/images/79Y.jpeg,/home/docky/apps/exp/images/80Yi.jpeg,0,1,1,1,0,7,7,7,298.2365209109994,None,298.2365209109994,None,1,4.559731130997534,298.2365209109994,None,302.82969701999536,None,302.82969701999536,None,305.3328002039998,None,305.3328002039998,None,2.0023272260004887,307.1362891579993,None,307.1362891579993,None,6,1,1.1188148910005111,309.124685969,None,309.124685969,None,309.124685969,None,310.25973121300194,None,1,0.78476166499604,310.25973121300194,None,28,311.0614768960004,None,106,B,1,2021_May_20_1807,GazeFlow,2020.1.2,59.90809965553004,
2,Block805.xls,B,,,,,,,,,,,,,,,,,,0,1,1,1,,,,,,,,,,,,,,,,,,,,,,,,,,,,,,,,,,,,,,,,,,,,106,B,1,2021_May_20_1807,GazeFlow,2020.1.2,59.90809965553004,
3,Block804.xls,B,4,1,95,95,None,congruent,Right,Right,Left,80,79,1,yellow,2,5,/home/docky/apps/exp/images/80Yi.jpeg,/home/docky/apps/exp/images/79Y.jpeg,0,2,2,2,0,0,0,0,332.70520945500175,None,332.70520945500175,None,1,6.671933033998357,332.70520945500175,None,339.39851028400153,None,339.39851028400153,None,341.92430844699993,None,341.92430844699993,None,1.6840807640037383,343.71935585400206,None,343.71935585400206,None,6,0,1.102598475998093,345.3950766170019,None,345.3950766170019,None,345.3950766170019,None,346.51376310199703,None,1,0.7514580529968953,346.51376310199703,None,26,347.2817012000014,None,106,B,1,2021_May_20_1807,GazeFlow,2020.1.2,59.90809965553004,
3,Block804.xls,B,4,2,107,11,None,incongruent,Left,Right,Left,83,80,3,blue,2,5,/home/docky/apps/exp/images/83Bi.jpeg,/home/docky/apps/exp/images/80B.jpeg,0,2,2,2,0,1,1,1,348.28404930599936,None,348.28404930599936,None,1,4.960180889996991,348.28404930599936,None,353.27780941099627,None,353.27780941099627,None,355.78248179300135,None,355.78248179300135,None,1.5347907830000622,357.5791810369992,None,357.5791810369992,None,5,1,1.1347829989972524,359.10518227199645,None,359.10518227199645,None,359.10518227199645,None,360.25711533999856,None,1,0.718002431000059,360.25711533999856,None,28,360.9914973490013,None,106,B,1,2021_May_20_1807,GazeFlow,2020.1.2,59.90809965553004,
3,Block804.xls,B,4,3,27,27,None,congruent,Right,Right,Left,19,16,3,blue,2,5,/home/docky/apps/exp/images/19Bi.jpeg,/home/docky/apps/exp/images/16B.jpeg,0,2,2,2,0,2,2,2,361.99378252099996,None,361.99378252099996,None,1,5.09338421299617,361.99378252099996,None,367.12111598499905,None,367.12111598499905,None,369.624181651001,None,369.624181651001,None,1.5844964470015839,371.4296661119952,None,371.4296661119952,None,5,1,1.1525756779956282,372.9988640119991,None,372.9988640119991,None,372.9988640119991,None,374.16746857399994,None,1,0.7846252659946913,374.16746857399994,None,30,374.9684985310014,None,106,B,1,2021_May_20_1807,GazeFlow,2020.1.2,59.90809965553004,
3,Block804.xls,B,4,4,101,5,None,incongruent,Right,Left,Right,76,79,3,blue,2,6,/home/docky/apps/exp/images/76B.jpeg,/home/docky/apps/exp/images/79Bi.jpeg,0,2,2,2,0,3,3,3,375.9710078549979,None,375.9710078549979,None,1,5.06011575699813,375.9710078549979,None,381.06488390999584,None,381.06488390999584,None,383.5696092220023,None,383.5696092220023,None,2.486747364004259,385.37166814599914,None,385.37166814599914,None,6,1,1.1193262660017353,387.85984309500054,None,387.85984309500054,None,387.85984309500054,None,388.99588740000036,None,1,0.7349340190048679,388.99588740000036,None,32,389.74714742299693,None,106,B,1,2021_May_20_1807,GazeFlow,2020.1.2,59.90809965553004,
3,Block804.xls,B,4,5,47,47,None,congruent,Right,Right,Left,39,38,1,blue,2,5,/home/docky/apps/exp/images/39Bi.jpeg,/home/docky/apps/exp/images/38B.jpeg,0,2,2,2,0,4,4,4,390.749749679002,None,390.749749679002,None,1,5.026705174001108,390.749749679002,None,395.8100582889965,None,395.8100582889965,None,398.31511251299526,None,398.31511251299526,None,1.1506916189973708,400.1170805809961,None,400.1170805809961,None,5,1,1.0518450180024956,401.25359268899774,None,401.25359268899774,None,401.25359268899774,None,402.321702235,None,1,0.6856926849941374,402.321702235,None,34,403.0235598540021,None,106,B,1,2021_May_20_1807,GazeFlow,2020.1.2,59.90809965553004,
3,Block804.xls,B,4,6,90,90,None,congruent,Right,Right,Left,77,72,5,yellow,2,5,/home/docky/apps/exp/images/77Yi.jpeg,/home/docky/apps/exp/images/72Y.jpeg,0,2,2,2,0,5,5,5,404.02532988099847,None,404.02532988099847,None,1,5.595359960003407,404.02532988099847,None,409.6539505799956,None,409.6539505799956,None,412.15682219299924,None,412.15682219299924,None,1.4676085460014292,413.960800144996,None,413.960800144996,None,5,1,1.1012681779975537,415.41460342999926,None,415.41460342999926,None,415.41460342999926,None,416.5331821380023,None,1,0.8179987749972497,416.5331821380023,None,36,417.3677235189971,None,106,B,1,2021_May_20_1807,GazeFlow,2020.1.2,59.90809965553004,
3,Block804.xls,B,4,7,12,12,None,congruent,Left,Left,Right,38,39,1,blue,2,6,/home/docky/apps/exp/images/38B.jpeg,/home/docky/apps/exp/images/39Bi.jpeg,0,2,2,2,0,6,6,6,418.3699831679987,None,418.3699831679987,None,1,6.045390892002615,418.3699831679987,None,424.44934579399705,None,424.44934579399705,None,426.95217767899885,None,426.95217767899885,None,1.2342705020055291,428.749853456,None,428.749853456,None,6,1,1.1024907649989473,429.97592912599794,None,429.97592912599794,None,429.97592912599794,None,431.09476566699595,None,1,0.7178605610024533,431.09476566699595,None,38,431.8288169369989,None,106,B,1,2021_May_20_1807,GazeFlow,2020.1.2,59.90809965553004,
3,Block804.xls,B,4,8,20,20,None,congruent,Left,Left,Right,76,79,3,blue,2,6,/home/docky/apps/exp/images/76Bi.jpeg,/home/docky/apps/exp/images/79B.jpeg,0,2,2,2,0,7,7,7,432.8310406399978,None,432.8310406399978,None,1,5.01035772600153,432.8310406399978,None,437.874981768,None,437.874981768,None,440.37801484100055,None,440.37801484100055,None,1.6853078400017694,442.18155914700037,None,442.18155914700037,None,6,1,2.905471846999717,443.8531865719997,None,443.8531865719997,None,443.8531865719997,None,446.77485252099723,None,1,0.9857668010008638,446.77485252099723,None,40,447.77701761599747,None,106,B,1,2021_May_20_1807,GazeFlow,2020.1.2,59.90809965553004,
3,Block804.xls,B,,,,,,,,,,,,,,,,,,0,2,2,2,,,,,,,,,,,,,,,,,,,,,,,,,,,,,,,,,,,,,,,,,,,,106,B,1,2021_May_20_1807,GazeFlow,2020.1.2,59.90809965553004,
4,Block814.xls,B,14,1,99,3,None,incongruent,Right,Left,Right,65,66,1,blue,2,6,/home/docky/apps/exp/images/35Yi.jpeg,/home/docky/apps/exp/images/66B.jpeg,0,3,3,3,0,0,0,0,466.8329182289963,None,466.8329182289963,None,1,4.397418460001063,466.8329182289963,None,471.2577467309966,None,471.2577467309966,None,473.77838353600237,None,473.77838353600237,None,1.5506497329988633,475.57519003599737,None,475.57519003599737,None,6,1,1.2191052209964255,477.1177261720004,None,477.1177261720004,None,477.1177261720004,None,478.353172354,None,1,0.8345815590000711,478.353172354,None,42,479.20445582600223,None,106,B,1,2021_May_20_1807,GazeFlow,2020.1.2,59.90809965553004,
4,Block814.xls,B,14,2,34,34,None,congruent,Right,Right,Left,66,65,1,blue,2,5,/home/docky/apps/exp/images/66B.jpeg,/home/docky/apps/exp/images/35Yi.jpeg,0,3,3,3,0,1,1,1,480.2066231459976,None,480.2066231459976,None,1,4.993613531994924,480.2066231459976,None,485.2345973639967,None,485.2345973639967,None,487.7384945599988,None,487.7384945599988,None,1.2507155029961723,489.54209234099835,None,489.54209234099835,None,5,1,0.9847620559958159,490.7775235000008,None,490.7775235000008,None,490.7775235000008,None,491.77891881699907,None,1,0.7182550169964088,491.77891881699907,None,44,492.51350963099685,None,106,B,1,2021_May_20_1807,GazeFlow,2020.1.2,59.90809965553004,
4,Block814.xls,B,14,3,91,91,None,congruent,Right,Right,Left,77,72,5,yellow,2,5,/home/docky/apps/exp/images/77Yi.jpeg,/home/docky/apps/exp/images/72Y.jpeg,0,3,3,3,0,2,2,2,493.51545330299996,None,493.51545330299996,None,1,5.277783395002189,493.51545330299996,None,498.8270477519982,None,498.8270477519982,None,501.3297128549966,None,501.3297128549966,None,1.584588106998126,503.13295816999744,None,503.13295816999744,None,5,1,1.0011136539978907,504.7046387829978,None,504.7046387829978,None,504.7046387829978,None,505.72254544799944,None,1,0.7515367839951068,505.72254544799944,None,46,506.4906979119987,None,106,B,1,2021_May_20_1807,GazeFlow,2020.1.2,59.90809965553004,
4,Block814.xls,B,14,4,68,68,None,congruent,Left,Left,Right,72,77,5,yellow,2,6,/home/docky/apps/exp/images/72Yi.jpeg,/home/docky/apps/exp/images/77Y.jpeg,0,3,3,3,0,3,3,3,507.4930869300006,None,507.4930869300006,None,1,4.909841264001443,507.4930869300006,None,512.4368810090018,None,512.4368810090018,None,514.9414405220014,None,514.9414405220014,None,1.367653972003609,516.7328468299966,None,516.7328468299966,None,6,1,1.0691706729994621,518.0973201109955,None,518.0973201109955,None,518.0973201109955,None,519.182543586001,None,1,0.7345408910041442,519.182543586001,None,48,519.9336302090014,None,106,B,1,2021_May_20_1807,GazeFlow,2020.1.2,59.90809965553004,
4,Block814.xls,B,14,5,66,66,None,congruent,Left,Left,Right,69,76,7,yellow,2,6,/home/docky/apps/exp/images/69Yi.jpeg,/home/docky/apps/exp/images/76Y.jpeg,0,3,3,3,0,4,4,4,520.9355305369972,None,520.9355305369972,None,1,4.710295315999247,520.9355305369972,None,525.6791127210017,None,525.6791127210017,None,528.182478896997,None,528.182478896997,None,1.4507424999974319,529.985343221997,None,529.985343221997,None,6,1,1.01890972199908,531.4231587940012,None,531.4231587940012,None,531.4231587940012,None,532.4583946549974,None,1,0.7343432449997636,532.4583946549974,None,50,533.2091101359983,None,106,B,1,2021_May_20_1807,GazeFlow,2020.1.2,59.90809965553004,
4,Block814.xls,B,14,6,115,19,None,incongruent,Left,Right,Left,80,79,1,yellow,2,5,/home/docky/apps/exp/images/80Yi.jpeg,/home/docky/apps/exp/images/79Y.jpeg,0,3,3,3,0,5,5,5,534.2113402979958,None,534.2113402979958,None,1,4.425973019999219,534.2113402979958,None,538.6711788129978,None,538.6711788129978,None,541.1761737380002,None,541.1761737380002,None,2.002283369998622,542.9778531839984,None,542.9778531839984,None,5,1,1.1020131429977482,544.9659802570022,None,544.9659802570022,None,544.9659802570022,None,546.084457514,None,1,0.7846720930028823,546.084457514,None,52,546.8859304299986,None,106,B,1,2021_May_20_1807,GazeFlow,2020.1.2,59.90809965553004,
4,Block814.xls,B,14,7,9,9,None,congruent,Left,Left,Right,65,66,1,blue,2,6,/home/docky/apps/exp/images/35Yi.jpeg,/home/docky/apps/exp/images/66B.jpeg,0,3,3,3,0,6,6,6,547.8884150410013,None,547.8884150410013,None,1,5.661650842004747,547.8884150410013,None,553.5834556420014,None,553.5834556420014,None,556.0880372620013,None,556.0880372620013,None,2.203119842997694,557.8918987809957,None,557.8918987809957,None,6,1,1.4189620790057234,560.0788242519993,None,560.0788242519993,None,560.0788242519993,None,561.5148964249966,None,1,0.7187338759977138,561.5148964249966,None,54,562.2492825070003,None,106,B,1,2021_May_20_1807,GazeFlow,2020.1.2,59.90809965553004,
4,Block814.xls,B,14,8,14,14,None,congruent,Left,Left,Right,38,39,1,blue,2,6,/home/docky/apps/exp/images/38Bi.jpeg,/home/docky/apps/exp/images/39B.jpeg,0,3,3,3,0,7,7,7,563.2514724720022,None,563.2514724720022,None,1,4.809678015000827,563.2514724720022,None,568.0950740179978,None,568.0950740179978,None,570.5976319789988,None,570.5976319789988,None,1.8016254150061286,572.4017931459966,None,572.4017931459966,None,6,1,1.9698976239960757,574.1895426400006,None,574.1895426400006,None,574.1895426400006,None,576.1762498390017,None,1,0.9522573989961529,576.1762498390017,None,56,577.1448377299967,None,106,B,1,2021_May_20_1807,GazeFlow,2020.1.2,59.90809965553004,
4,Block814.xls,B,,,,,,,,,,,,,,,,,,0,3,3,3,,,,,,,,,,,,,,,,,,,,,,,,,,,,,,,,,,,,,,,,,,,,106,B,1,2021_May_20_1807,GazeFlow,2020.1.2,59.90809965553004,
5,Block812.xls,B,12,1,18,18,None,congruent,Left,Left,Right,73,76,3,blue,2,6,/home/docky/apps/exp/images/73B.jpeg,/home/docky/apps/exp/images/76Bi.jpeg,0,4,4,4,0,0,0,0,595.899927624996,None,595.899927624996,None,1,5.335494021994236,595.899927624996,None,601.2567931809972,None,601.2567931809972,None,603.7809696719996,None,603.7809696719996,None,1.4501033600026858,605.5783851079977,None,605.5783851079977,None,5,0,1.1523164799946244,607.0201010289966,None,607.0201010289966,None,607.0201010289966,None,608.1887196819953,None,1,0.7846488139985013,608.1887196819953,None,54,608.9899172379955,None,106,B,1,2021_May_20_1807,GazeFlow,2020.1.2,59.90809965553004,
5,Block812.xls,B,12,2,3,3,None,congruent,Left,Left,Right,16,19,3,blue,2,6,/home/docky/apps/exp/images/16Bi.jpeg,/home/docky/apps/exp/images/19B.jpeg,0,4,4,4,0,1,1,1,609.9924091299981,None,609.9924091299981,None,1,5.310487741997349,609.9924091299981,None,615.3367084549973,None,615.3367084549973,None,617.840093605002,None,617.840093605002,None,1.5346481000015046,619.6377440180004,None,619.6377440180004,None,6,1,1.0687456950035994,621.164194318997,None,621.164194318997,None,621.164194318997,None,622.2495733059986,None,1,0.8008033289952436,622.2495733059986,None,56,623.0674978649986,None,106,B,1,2021_May_20_1807,GazeFlow,2020.1.2,59.90809965553004,
5,Block812.xls,B,12,3,56,56,None,congruent,Left,Left,Right,62,65,3,yellow,2,6,/home/docky/apps/exp/images/38Bi.jpeg,/home/docky/apps/exp/images/35B.jpeg,0,4,4,4,0,2,2,2,624.0696107049953,None,624.0696107049953,None,1,4.7429611349944025,624.0696107049953,None,628.844506454996,None,628.844506454996,None,631.3494688400024,None,631.3494688400024,None,1.6350784149981337,633.1522277209951,None,633.1522277209951,None,6,1,1.2193325760017615,634.7739850619982,None,634.7739850619982,None,634.7739850619982,None,636.0095067980001,None,1,0.8853807509949547,636.0095067980001,None,58,636.9107792790019,None,106,B,1,2021_May_20_1807,GazeFlow,2020.1.2,59.90809965553004,
5,Block812.xls,B,12,4,11,11,None,congruent,Left,Left,Right,38,39,1,blue,2,6,/home/docky/apps/exp/images/38B.jpeg,/home/docky/apps/exp/images/39Bi.jpeg,0,4,4,4,0,3,3,3,637.9130369859995,None,637.9130369859995,None,1,5.143747528003587,637.9130369859995,None,643.0890733319975,None,643.0890733319975,None,645.5938560779978,None,645.5938560779978,None,2.0022743549998268,647.3971902859994,None,647.3971902859994,None,6,1,1.1683663790026912,649.3857169159965,None,649.3857169159965,None,649.3857169159965,None,650.5708211640012,None,1,0.734943290000956,650.5708211640012,None,60,651.3219749389973,None,106,B,1,2021_May_20_1807,GazeFlow,2020.1.2,59.90809965553004,
5,Block812.xls,B,12,5,116,20,None,incongruent,Left,Right,Left,35,33,2,yellow,2,5,/home/docky/apps/exp/images/35Yi.jpeg,/home/docky/apps/exp/images/33Y.jpeg,0,4,4,4,0,4,4,4,652.3246510480021,None,652.3246510480021,None,1,5.144085157000518,652.3246510480021,None,657.5058779079991,None,657.5058779079991,None,660.0051001309985,None,660.0051001309985,None,1.5512061260014889,661.8088414399972,None,661.8088414399972,None,5,1,1.102280963001249,663.3461539630007,None,663.3461539630007,None,663.3461539630007,None,664.4644482770018,None,1,0.8017170690000057,664.4644482770018,None,62,665.2826278220018,None,106,B,1,2021_May_20_1807,GazeFlow,2020.1.2,59.90809965553004,
5,Block812.xls,B,12,6,40,40,None,congruent,Right,Right,Left,79,76,3,blue,2,5,/home/docky/apps/exp/images/79Bi.jpeg,/home/docky/apps/exp/images/76B.jpeg,0,4,4,4,0,5,5,5,666.2851114160003,None,666.2851114160003,None,1,5.427430716001254,666.2851114160003,None,671.7463761309991,None,671.7463761309991,None,674.251037809001,None,674.251037809001,None,1.7350929410022218,676.0532129229978,None,676.0532129229978,None,5,1,1.1190283469986753,677.7741061749985,None,677.7741061749985,None,677.7741061749985,None,678.9096310780005,None,1,0.8344701140013058,678.9096310780005,None,64,679.7607097989967,None,106,B,1,2021_May_20_1807,GazeFlow,2020.1.2,59.90809965553004,
5,Block812.xls,B,12,7,76,76,None,congruent,Right,Right,Left,39,38,1,yellow,2,5,/home/docky/apps/exp/images/39Yi.jpeg,/home/docky/apps/exp/images/38Y.jpeg,0,4,4,4,0,6,6,6,680.7631186979997,None,680.7631186979997,None,1,5.811603184003616,680.7631186979997,None,686.6085595569966,None,686.6085595569966,None,689.1131566359982,None,689.1131566359982,None,1.735148879000917,690.9146827450022,None,690.9146827450022,None,5,1,1.2520553739959723,692.6364122879968,None,692.6364122879968,None,692.6364122879968,None,693.9049193339961,None,1,0.8683385449985508,693.9049193339961,None,66,694.789909692001,None,106,B,1,2021_May_20_1807,GazeFlow,2020.1.2,59.90809965553004,
5,Block812.xls,B,12,8,77,77,None,congruent,Right,Right,Left,39,38,1,yellow,2,5,/home/docky/apps/exp/images/39Y.jpeg,/home/docky/apps/exp/images/38Yi.jpeg,0,4,4,4,0,7,7,7,695.7925114329992,None,695.7925114329992,None,1,5.043249840993667,695.7925114329992,None,700.8694743879969,None,700.8694743879969,None,703.3743256269954,None,703.3743256269954,None,1.868483964994084,705.1764154459961,None,705.1764154459961,None,6,0,1.201953155999945,707.0311019739966,None,707.0311019739966,None,707.0311019739966,None,708.2495099469961,None,1,0.7346938980044797,708.2495099469961,None,64,709.0010309069985,None,106,B,1,2021_May_20_1807,GazeFlow,2020.1.2,59.90809965553004,
5,Block812.xls,B,,,,,,,,,,,,,,,,,,0,4,4,4,,,,,,,,,,,,,,,,,,,,,,,,,,,,,,,,,,,,,,,,,,,,106,B,1,2021_May_20_1807,GazeFlow,2020.1.2,59.90809965553004,
6,Block803.xls,B,3,1,84,84,None,congruent,Right,Right,Left,75,69,6,yellow,2,5,/home/docky/apps/exp/images/76Yi.jpeg,/home/docky/apps/exp/images/69Y.jpeg,0,5,5,5,0,0,0,0,726.251541302001,None,726.251541302001,None,1,5.653326966006716,726.251541302001,None,731.929476354002,None,731.929476354002,None,734.4515746809993,None,734.4515746809993,None,1.500736682995921,736.2534107550018,None,736.2534107550018,None,5,1,1.1356160239956807,737.7407136350012,None,737.7407136350012,None,737.7407136350012,None,738.892875325997,None,1,0.8174685639969539,738.892875325997,None,66,739.7272603279998,None,106,B,1,2021_May_20_1807,GazeFlow,2020.1.2,59.90809965553004,
6,Block803.xls,B,3,2,82,82,None,congruent,Right,Right,Left,66,65,1,yellow,2,5,/home/docky/apps/exp/images/66Y.jpeg,/home/docky/apps/exp/images/35Bi.jpeg,0,5,5,5,0,1,1,1,740.7295485930008,None,740.7295485930008,None,1,5.444763423001859,740.7295485930008,None,746.2079531330019,None,746.2079531330019,None,748.7105692900004,None,748.7105692900004,None,1.6847983539992128,750.513711767002,None,750.513711767002,None,5,1,1.068921642996429,752.1854841089953,None,752.1854841089953,None,752.1854841089953,None,753.2707783320002,None,1,5.127126004001184,753.2707783320002,None,68,758.4140708999985,None,106,B,1,2021_May_20_1807,GazeFlow,2020.1.2,59.90809965553004,
6,Block803.xls,B,3,3,80,80,None,congruent,Right,Right,Left,66,65,1,yellow,2,5,/home/docky/apps/exp/images/66Yi.jpeg,/home/docky/apps/exp/images/35B.jpeg,0,5,5,5,0,2,2,2,759.4160064710013,None,759.4160064710013,None,1,2.0044733120012097,759.4160064710013,None,761.4539360380004,None,761.4539360380004,None,763.9567925489973,None,763.9567925489973,None,1.8016825610029628,765.7580302679999,None,765.7580302679999,None,5,1,1.1516325980046531,767.5487529460006,None,767.5487529460006,None,767.5487529460006,None,768.7169144319996,None,1,0.8690244800018263,768.7169144319996,None,70,769.6018310879954,None,106,B,1,2021_May_20_1807,GazeFlow,2020.1.2,59.90809965553004,
6,Block803.xls,B,3,4,79,79,None,congruent,Right,Right,Left,66,65,1,yellow,2,5,/home/docky/apps/exp/images/66Y.jpeg,/home/docky/apps/exp/images/35Bi.jpeg,0,5,5,5,0,3,3,3,770.6044975319965,None,770.6044975319965,None,1,5.377291789001902,770.6044975319965,None,776.0138081159967,None,776.0138081159967,None,778.518302960998,None,778.518302960998,None,1.7851416039993637,780.3206193649967,None,780.3206193649967,None,5,1,1.0688299800021923,782.0935528139962,None,782.0935528139962,None,782.0935528139962,None,783.1788263619965,None,1,0.8346909659958328,783.1788263619965,None,72,784.0302691479956,None,106,B,1,2021_May_20_1807,GazeFlow,2020.1.2,59.90809965553004,
6,Block803.xls,B,3,5,92,92,None,congruent,Right,Right,Left,77,72,5,yellow,2,5,/home/docky/apps/exp/images/77Y.jpeg,/home/docky/apps/exp/images/72Yi.jpeg,0,5,5,5,0,4,4,4,785.0324894590012,None,785.0324894590012,None,1,4.959914699000365,785.0324894590012,None,790.0257059419964,None,790.0257059419964,None,792.5311177780022,None,792.5311177780022,None,1.83474912699603,794.332593318999,None,794.332593318999,None,5,1,1.1352829299939913,796.153971202999,None,796.153971202999,None,796.153971202999,None,797.3055921470004,None,1,0.8018497490047594,797.3055921470004,None,74,798.1241403280001,None,106,B,1,2021_May_20_1807,GazeFlow,2020.1.2,59.90809965553004,
6,Block803.xls,B,3,6,106,10,None,incongruent,Left,Right,Left,79,76,3,blue,2,5,/home/docky/apps/exp/images/79Bi.jpeg,/home/docky/apps/exp/images/76B.jpeg,0,5,5,5,0,5,5,5,799.1264878729999,None,799.1264878729999,None,1,5.0099904099988635,799.1264878729999,None,804.1686437569952,None,804.1686437569952,None,806.6727956589966,None,806.6727956589966,None,2.052361809001013,808.4766210829985,None,808.4766210829985,None,5,1,1.03465332199994,810.5154958459971,None,810.5154958459971,None,810.5154958459971,None,811.567051578997,None,1,0.7183574730006512,811.567051578997,None,76,812.3018029300001,None,106,B,1,2021_May_20_1807,GazeFlow,2020.1.2,59.90809965553004,
6,Block803.xls,B,3,7,25,25,None,congruent,Right,Right,Left,19,16,3,blue,2,5,/home/docky/apps/exp/images/19Bi.jpeg,/home/docky/apps/exp/images/16B.jpeg,0,5,5,5,0,6,6,6,813.3039928619983,None,813.3039928619983,None,1,5.894859100997564,813.3039928619983,None,819.2328207899991,None,819.2328207899991,None,821.7357461150023,None,821.7357461150023,None,1.9853592090003076,823.5393316789996,None,823.5393316789996,None,5,1,1.0849666750000324,825.5113065469995,None,825.5113065469995,None,825.5113065469995,None,826.6127518079957,None,1,0.8688187759980792,826.6127518079957,None,78,827.497926637996,None,106,B,1,2021_May_20_1807,GazeFlow,2020.1.2,59.90809965553004,
6,Block803.xls,B,3,8,46,46,None,congruent,Right,Right,Left,39,38,1,blue,2,5,/home/docky/apps/exp/images/39B.jpeg,/home/docky/apps/exp/images/38Bi.jpeg,0,5,5,5,0,7,7,7,828.5002914169963,None,828.5002914169963,None,1,4.59255932400265,828.5002914169963,None,833.1265526139978,None,833.1265526139978,None,835.6298269949984,None,835.6298269949984,None,1.5677017140042153,837.433071325002,None,837.433071325002,None,5,1,1.0358164059944102,838.987399468002,None,838.987399468002,None,838.987399468002,None,840.0391706369992,None,1,0.8177060540037928,840.0391706369992,None,80,840.873623143998,None,106,B,1,2021_May_20_1807,GazeFlow,2020.1.2,59.90809965553004,
6,Block803.xls,B,,,,,,,,,,,,,,,,,,0,5,5,5,,,,,,,,,,,,,,,,,,,,,,,,,,,,,,,,,,,,,,,,,,,,106,B,1,2021_May_20_1807,GazeFlow,2020.1.2,59.90809965553004,
7,Block810.xls,B,10,1,119,23,None,incongruent,Left,Right,Left,76,69,7,yellow,2,5,/home/docky/apps/exp/images/76Yi.jpeg,/home/docky/apps/exp/images/69Y.jpeg,0,6,6,6,0,0,0,0,865.6397231619994,None,865.6397231619994,None,1,5.286104271006479,865.6397231619994,None,870.9520600019969,None,870.9520600019969,None,873.471452482001,None,873.471452482001,None,2.2017634679941693,875.2751797029996,None,875.2751797029996,None,5,1,1.2520559590047924,877.4619219109954,None,877.4619219109954,None,877.4619219109954,None,878.7307306689981,None,1,1.0522411209967686,878.7307306689981,None,82,879.7995387389965,None,106,B,1,2021_May_20_1807,GazeFlow,2020.1.2,59.90809965553004,
7,Block810.xls,B,10,2,43,43,None,congruent,Right,Right,Left,83,80,3,blue,2,5,/home/docky/apps/exp/images/83B.jpeg,/home/docky/apps/exp/images/80Bi.jpeg,0,6,6,6,0,1,1,1,880.8018580150019,None,880.8018580150019,None,1,4.943131847998302,880.8018580150019,None,885.7788955659998,None,885.7788955659998,None,888.2819749400005,None,888.2819749400005,None,1.634936762995494,890.0857229839967,None,890.0857229839967,None,5,1,1.1015295139950467,891.7065625280011,None,891.7065625280011,None,891.7065625280011,None,892.8249310109968,None,1,1.0020948980018147,892.8249310109968,None,84,893.8436561919953,None,106,B,1,2021_May_20_1807,GazeFlow,2020.1.2,59.90809965553004,
7,Block810.xls,B,10,3,53,53,None,congruent,Left,Left,Right,65,66,1,yellow,2,6,/home/docky/apps/exp/images/35Bi.jpeg,/home/docky/apps/exp/images/66Y.jpeg,0,6,6,6,0,2,2,2,894.8458390689993,None,894.8458390689993,None,1,4.459400373001699,894.8458390689993,None,899.340310679996,None,899.340310679996,None,901.8418166429983,None,901.8418166429983,None,1.668108002995723,903.6396789680002,None,903.6396789680002,None,6,1,1.0353371260061976,905.2995508899985,None,905.2995508899985,None,905.2995508899985,None,906.3513231899997,None,1,0.6008251769962953,906.3513231899997,None,86,906.9689196100007,None,106,B,1,2021_May_20_1807,GazeFlow,2020.1.2,59.90809965553004,
7,Block810.xls,B,10,4,74,74,None,congruent,Right,Right,Left,35,33,2,yellow,2,5,/home/docky/apps/exp/images/35Y.jpeg,/home/docky/apps/exp/images/33Yi.jpeg,0,6,6,6,0,3,3,3,907.9710869240007,None,907.9710869240007,None,1,4.776358308001363,907.9710869240007,None,912.7815900579953,None,912.7815900579953,None,915.2846435429965,None,915.2846435429965,None,2.420254595002916,917.0878497680023,None,917.0878497680023,None,6,0,1.1702610130014364,919.5090801170008,None,919.5090801170008,None,919.5090801170008,None,920.6953616109968,None,1,0.5849076419981429,920.6953616109968,None,84,921.2968478709954,None,106,B,1,2021_May_20_1807,GazeFlow,2020.1.2,59.90809965553004,
7,Block810.xls,B,10,5,21,21,None,congruent,Left,Left,Right,76,79,3,blue,2,6,/home/docky/apps/exp/images/76B.jpeg,/home/docky/apps/exp/images/79Bi.jpeg,0,6,6,6,0,4,4,4,922.2990365969963,None,922.2990365969963,None,1,4.943353875998582,922.2990365969963,None,927.2761222779955,None,927.2761222779955,None,929.780926858999,None,929.780926858999,None,1.7848852319948492,931.5772995279985,None,931.5772995279985,None,6,1,1.0854700549971312,933.3541180030006,None,933.3541180030006,None,933.3541180030006,None,934.4559825909964,None,1,0.6175093299971195,934.4559825909964,None,86,935.0900681979983,None,106,B,1,2021_May_20_1807,GazeFlow,2020.1.2,59.90809965553004,
7,Block810.xls,B,10,6,85,85,None,congruent,Right,Right,Left,75,69,6,yellow,2,5,/home/docky/apps/exp/images/76Y.jpeg,/home/docky/apps/exp/images/69Yi.jpeg,0,6,6,6,0,5,5,5,936.0926067990004,None,936.0926067990004,None,1,4.575812732000486,936.0926067990004,None,940.7021120950012,None,940.7021120950012,None,943.2053961479978,None,943.2053961479978,None,1.6515094639980816,945.0082121219966,None,945.0082121219966,None,5,1,1.0353301759969327,946.6466544189971,None,946.6466544189971,None,946.6466544189971,None,947.6982155820006,None,1,1.1187134470019373,947.6982155820006,None,88,948.8334413939956,None,106,B,1,2021_May_20_1807,GazeFlow,2020.1.2,59.90809965553004,
7,Block810.xls,B,10,7,49,49,None,congruent,Left,Left,Right,33,35,2,yellow,2,6,/home/docky/apps/exp/images/33Yi.jpeg,/home/docky/apps/exp/images/35Y.jpeg,0,6,6,6,0,6,6,6,949.8360075039964,None,949.8360075039964,None,1,4.993705189997854,949.8360075039964,None,954.8629445039987,None,954.8629445039987,None,957.3677521310019,None,957.3677521310019,None,1.8850911010013078,959.1692071319994,None,959.1692071319994,None,6,1,1.135124280997843,961.0410899519993,None,961.0410899519993,None,961.0410899519993,None,962.1930776680019,None,1,0.6844271520021721,962.1930776680019,None,90,962.8940549649997,None,106,B,1,2021_May_20_1807,GazeFlow,2020.1.2,59.90809965553004,
7,Block810.xls,B,10,8,63,63,None,congruent,Left,Left,Right,38,39,1,yellow,2,6,/home/docky/apps/exp/images/38Y.jpeg,/home/docky/apps/exp/images/39Yi.jpeg,0,6,6,6,0,7,7,7,963.8963280409953,None,963.8963280409953,None,1,4.6767585890047485,963.8963280409953,None,968.6062188779979,None,968.6062188779979,None,971.111286925996,None,971.111286925996,None,1.6346309189975727,972.9131713789975,None,972.9131713789975,None,6,1,1.1020955810017767,974.5341690049972,None,974.5341690049972,None,974.5341690049972,None,975.6527169709952,None,1,0.9014133919990854,975.6527169709952,None,92,976.5710979180003,None,106,B,1,2021_May_20_1807,GazeFlow,2020.1.2,59.90809965553004,
7,Block810.xls,B,,,,,,,,,,,,,,,,,,0,6,6,6,,,,,,,,,,,,,,,,,,,,,,,,,,,,,,,,,,,,,,,,,,,,106,B,1,2021_May_20_1807,GazeFlow,2020.1.2,59.90809965553004,
8,Block801.xls,B,1,1,1,1,None,congruent,Left,Left,Right,16,19,3,blue,2,6,/home/docky/apps/exp/images/16Bi.jpeg,/home/docky/apps/exp/images/19B.jpeg,0,7,7,7,0,0,0,0,998.9668219379964,None,998.9668219379964,None,1,5.030897561999154,998.9668219379964,None,1004.0285022359967,None,1004.0285022359967,None,1006.546541746,None,1006.546541746,None,1.9013625340012368,1008.3486150019962,None,1008.3486150019962,None,6,1,1.2020267379994038,1010.236576026,None,1010.236576026,None,1010.236576026,None,1011.4553053240015,None,1,0.7013176759937778,1011.4553053240015,None,94,1012.1732244250015,None,106,B,1,2021_May_20_1807,GazeFlow,2020.1.2,59.90809965553004,
8,Block801.xls,B,1,2,105,9,None,incongruent,Left,Right,Left,79,73,6,blue,2,5,/home/docky/apps/exp/images/79B.jpeg,/home/docky/apps/exp/images/73Bi.jpeg,0,7,7,7,0,1,1,1,1013.1752483689997,None,1013.1752483689997,None,1,5.2609057139998185,1013.1752483689997,None,1018.4696623069976,None,1018.4696623069976,None,1020.9746906559958,None,1020.9746906559958,None,1.6844062129966915,1022.7748827089963,None,1022.7748827089963,None,5,1,1.2024632590037072,1024.4477001630003,None,1024.4477001630003,None,1024.4477001630003,None,1025.666340101001,None,1,0.7677906629978679,1025.666340101001,None,96,1026.4508926249982,None,106,B,1,2021_May_20_1807,GazeFlow,2020.1.2,59.90809965553004,
8,Block801.xls,B,1,3,62,62,None,congruent,Left,Left,Right,38,39,1,yellow,2,6,/home/docky/apps/exp/images/38Y.jpeg,/home/docky/apps/exp/images/39Yi.jpeg,0,7,7,7,0,2,2,2,1027.4532566330017,None,1027.4532566330017,None,1,5.043548179004574,1027.4532566330017,None,1032.5306793779964,None,1032.5306793779964,None,1035.033047867997,None,1035.033047867997,None,1.9020365749966004,1036.835142377,None,1036.835142377,None,6,1,1.1020418429980054,1038.7251676129963,None,1038.7251676129963,None,1038.7251676129963,None,1039.8437407070014,None,1,0.6845360760053154,1039.8437407070014,None,98,1040.545086197002,None,106,B,1,2021_May_20_1807,GazeFlow,2020.1.2,59.90809965553004,
8,Block801.xls,B,1,4,38,38,None,congruent,Right,Right,Left,79,73,6,blue,2,5,/home/docky/apps/exp/images/79B.jpeg,/home/docky/apps/exp/images/73Bi.jpeg,0,7,7,7,0,3,3,3,1041.5474302959992,None,1041.5474302959992,None,1,4.358707643004891,1041.5474302959992,None,1045.9394700810008,None,1045.9394700810008,None,1048.443321836996,None,1048.443321836996,None,1.9520808199958992,1050.2467645540019,None,1050.2467645540019,None,5,1,1.0849147589979111,1052.1848395569978,None,1052.1848395569978,None,1052.1848395569978,None,1053.2864620409964,None,1,0.6514585330005502,1053.2864620409964,None,100,1053.9544402760002,None,106,B,1,2021_May_20_1807,GazeFlow,2020.1.2,59.90809965553004,
8,Block801.xls,B,1,5,6,6,None,congruent,Left,Left,Right,35,38,3,blue,2,6,/home/docky/apps/exp/images/35Bi.jpeg,/home/docky/apps/exp/images/38B.jpeg,0,7,7,7,0,4,4,4,1054.9567965059978,None,1054.9567965059978,None,1,4.759496426006081,1054.9567965059978,None,1059.7530580079983,None,1059.7530580079983,None,1062.2551187130011,None,1062.2551187130011,None,1.802002029005962,1064.0568677150004,None,1064.0568677150004,None,6,1,1.1519524570030626,1065.8448479979998,None,1065.8448479979998,None,1065.8448479979998,None,1067.012851710002,None,1,0.6180714540023473,1067.012851710002,None,102,1067.6477449550002,None,106,B,1,2021_May_20_1807,GazeFlow,2020.1.2,59.90809965553004,
8,Block801.xls,B,1,6,51,51,None,congruent,Left,Left,Right,33,35,2,yellow,2,6,/home/docky/apps/exp/images/33Yi.jpeg,/home/docky/apps/exp/images/35Y.jpeg,0,7,7,7,0,5,5,5,1068.650298774999,None,1068.650298774999,None,1,4.325428635995195,1068.650298774999,None,1073.009230058,None,1073.009230058,None,1075.5117988569982,None,1075.5117988569982,None,1.818420542003878,1077.3155959989963,None,1077.3155959989963,None,6,1,1.118772176996572,1079.120625245996,None,1079.120625245996,None,1079.120625245996,None,1080.2559361169988,None,1,0.617500136999297,1080.2559361169988,None,104,1080.8899640949967,None,106,B,1,2021_May_20_1807,GazeFlow,2020.1.2,59.90809965553004,
8,Block801.xls,B,1,7,73,73,None,congruent,Right,Right,Left,35,33,2,yellow,2,5,/home/docky/apps/exp/images/35Yi.jpeg,/home/docky/apps/exp/images/33Y.jpeg,0,7,7,7,0,6,6,6,1081.8923906749988,None,1081.8923906749988,None,1,4.526300899000489,1081.8923906749988,None,1086.452004615996,None,1086.452004615996,None,1088.955280189999,None,1088.955280189999,None,1.517323411993857,1090.754332331002,None,1090.754332331002,None,5,1,1.1187806189991534,1092.2625945399996,None,1092.2625945399996,None,1092.2625945399996,None,1093.3980914400017,None,1,0.700974169994879,1093.3980914400017,None,106,1094.115847039,None,106,B,1,2021_May_20_1807,GazeFlow,2020.1.2,59.90809965553004,
8,Block801.xls,B,1,8,96,96,None,congruent,Right,Right,Left,80,79,1,yellow,2,5,/home/docky/apps/exp/images/80Yi.jpeg,/home/docky/apps/exp/images/79Y.jpeg,0,7,7,7,0,7,7,7,1095.1179537019998,None,1095.1179537019998,None,1,5.594625899000675,1095.1179537019998,None,1100.7464425719954,None,1100.7464425719954,None,1103.2491560010021,None,1103.2491560010021,None,2.286297847997048,1105.052965392002,None,1105.052965392002,None,5,1,1.1011805549933342,1107.3258092399992,None,1107.3258092399992,None,1107.3258092399992,None,1108.443669704,None,1,0.5679741979984101,1108.443669704,None,108,1109.0280410549967,None,106,B,1,2021_May_20_1807,GazeFlow,2020.1.2,59.90809965553004,
8,Block801.xls,B,,,,,,,,,,,,,,,,,,0,7,7,7,,,,,,,,,,,,,,,,,,,,,,,,,,,,,,,,,,,,,,,,,,,,106,B,1,2021_May_20_1807,GazeFlow,2020.1.2,59.90809965553004,
9,Block802.xls,B,2,1,30,30,None,congruent,Right,Right,Left,38,35,3,blue,2,5,/home/docky/apps/exp/images/38B.jpeg,/home/docky/apps/exp/images/35Bi.jpeg,0,8,8,8,0,0,0,0,1130.4529800169985,None,1130.4529800169985,None,1,5.066507796000224,1130.4529800169985,None,1135.5431721709974,None,1135.5431721709974,None,1138.0687190050012,None,1138.0687190050012,None,1.5339567240007455,1139.872426064001,None,1139.872426064001,None,5,1,1.1018408849995467,1141.3915571749967,None,1141.3915571749967,None,1141.3915571749967,None,1142.5102488330012,None,1,0.5838671940000495,1142.5102488330012,None,110,1143.110921638996,None,106,B,1,2021_May_20_1807,GazeFlow,2020.1.2,59.90809965553004,
9,Block802.xls,B,2,2,5,5,None,congruent,Left,Left,Right,35,38,3,blue,2,6,/home/docky/apps/exp/images/35B.jpeg,/home/docky/apps/exp/images/38Bi.jpeg,0,8,8,8,0,1,1,1,1144.1128802029998,None,1144.1128802029998,None,1,5.010359496998717,1144.1128802029998,None,1149.1571926089964,None,1149.1571926089964,None,1151.6618567629994,None,1151.6618567629994,None,1.96858050100127,1153.4651572680013,None,1153.4651572680013,None,6,1,1.185077376998379,1155.4186898100015,None,1155.4186898100015,None,1155.4186898100015,None,1156.6205559549999,None,1,0.6178874379984336,1156.6205559549999,None,112,1157.2549644419996,None,106,B,1,2021_May_20_1807,GazeFlow,2020.1.2,59.90809965553004,
9,Block802.xls,B,2,3,103,7,None,incongruent,Left,Right,Left,19,16,3,blue,2,5,/home/docky/apps/exp/images/19Bi.jpeg,/home/docky/apps/exp/images/16B.jpeg,0,8,8,8,0,2,2,2,1158.2571937159955,None,1158.2571937159955,None,1,4.7929822799997055,1158.2571937159955,None,1163.0838989019976,None,1163.0838989019976,None,1165.5890389740016,None,1165.5890389740016,None,1.8684232649975456,1167.390914937001,None,1167.390914937001,None,5,1,1.1018719209969277,1169.245596558998,None,1169.245596558998,None,1169.245596558998,None,1170.3637349799974,None,1,0.5349050160002662,1170.3637349799974,None,114,1170.9150203940007,None,106,B,1,2021_May_20_1807,GazeFlow,2020.1.2,59.90809965553004,
9,Block802.xls,B,2,4,35,35,None,congruent,Right,Right,Left,66,65,1,blue,2,5,/home/docky/apps/exp/images/66B.jpeg,/home/docky/apps/exp/images/35Yi.jpeg,0,8,8,8,0,3,3,3,1171.9170695119974,None,1171.9170695119974,None,1,5.427798656004597,1171.9170695119974,None,1177.3783688549956,None,1177.3783688549956,None,1179.881836708002,None,1179.881836708002,None,1.7349130490038078,1181.6799469850012,None,1181.6799469850012,None,5,1,1.1188451730049565,1183.4066237939987,None,1183.4066237939987,None,1183.4066237939987,None,1184.5418243509994,None,1,0.634323794998636,1184.5418243509994,None,116,1185.192568817998,None,106,B,1,2021_May_20_1807,GazeFlow,2020.1.2,59.90809965553004,
9,Block802.xls,B,2,5,42,42,None,congruent,Right,Right,Left,83,80,3,blue,2,5,/home/docky/apps/exp/images/83Bi.jpeg,/home/docky/apps/exp/images/80B.jpeg,0,8,8,8,0,4,4,4,1186.1946150360018,None,1186.1946150360018,None,1,5.327533005998703,1186.1946150360018,None,1191.556273659,None,1191.556273659,None,1194.0590731289994,None,1194.0590731289994,None,1.6848111849976704,1195.8624906839977,None,1195.8624906839977,None,5,1,1.119028408000304,1197.5338899630005,None,1197.5338899630005,None,1197.5338899630005,None,1198.6692523489983,None,1,0.6007096850007656,1198.6692523489983,None,118,1199.2867341019955,None,106,B,1,2021_May_20_1807,GazeFlow,2020.1.2,59.90809965553004,
9,Block802.xls,B,2,6,104,8,None,incongruent,Left,Right,Left,38,35,3,blue,2,5,/home/docky/apps/exp/images/38B.jpeg,/home/docky/apps/exp/images/35Bi.jpeg,0,8,8,8,0,5,5,5,1200.2889608479963,None,1200.2889608479963,None,1,4.843598738996661,1200.2889608479963,None,1205.165946987996,None,1205.165946987996,None,1207.6683482459994,None,1207.6683482459994,None,2.7037566650033114,1209.471945022,None,1209.471945022,None,6,0,1.2034982299956027,1212.1772423799994,None,1212.1772423799994,None,1212.1772423799994,None,1213.3975183459988,None,1,0.651209703006316,1213.3975183459988,None,116,1214.0653271359988,None,106,B,1,2021_May_20_1807,GazeFlow,2020.1.2,59.90809965553004,
9,Block802.xls,B,2,7,22,22,None,congruent,Left,Left,Right,80,83,3,blue,2,6,/home/docky/apps/exp/images/80Bi.jpeg,/home/docky/apps/exp/images/83B.jpeg,0,8,8,8,0,6,6,6,1215.0678386020008,None,1215.0678386020008,None,1,4.725990871003887,1215.0678386020008,None,1219.8275813910004,None,1219.8275813910004,None,1222.330336359002,None,1222.330336359002,None,1.6846626430051401,1224.1343698529963,None,1224.1343698529963,None,6,1,1.1356646120038931,1225.8054365999997,None,1225.8054365999997,None,1225.8054365999997,None,1226.9574196679969,None,1,0.6677078080028878,1226.9574196679969,None,118,1227.6416750839999,None,106,B,1,2021_May_20_1807,GazeFlow,2020.1.2,59.90809965553004,
9,Block802.xls,B,2,8,54,54,None,congruent,Left,Left,Right,65,66,1,yellow,2,6,/home/docky/apps/exp/images/35Bi.jpeg,/home/docky/apps/exp/images/66Y.jpeg,0,8,8,8,0,7,7,7,1228.6438558840018,None,1228.6438558840018,None,1,4.025385754001036,1228.6438558840018,None,1232.7048319089954,None,1232.7048319089954,None,1235.207561891999,None,1235.207561891999,None,1.8851017560009495,1237.0092532630006,None,1237.0092532630006,None,6,1,1.0692908969940618,1238.8808280649973,None,1238.8808280649973,None,1238.8808280649973,None,1239.965840056997,None,1,0.5845804099953966,1239.965840056997,None,120,1240.5668268489972,None,106,B,1,2021_May_20_1807,GazeFlow,2020.1.2,59.90809965553004,
9,Block802.xls,B,,,,,,,,,,,,,,,,,,0,8,8,8,,,,,,,,,,,,,,,,,,,,,,,,,,,,,,,,,,,,,,,,,,,,106,B,1,2021_May_20_1807,GazeFlow,2020.1.2,59.90809965553004,
10,Block813.xls,B,13,1,70,70,None,congruent,Left,Left,Right,79,82,3,yellow,2,6,/home/docky/apps/exp/images/79Yi.jpeg,/home/docky/apps/exp/images/80Y.jpeg,0,9,9,9,0,0,0,0,1261.5929143309986,None,1261.5929143309986,None,1,4.328090656999848,1261.5929143309986,None,1265.9468821670016,None,1265.9468821670016,None,1268.4721080269956,None,1268.4721080269956,None,1.5168663510048646,1270.2591549060016,None,1270.2591549060016,None,6,1,1.03584768800647,1271.7613422950017,None,1271.7613422950017,None,1271.7613422950017,None,1272.8130620469965,None,1,0.6512659790023463,1272.8130620469965,None,122,1273.4805366459987,None,106,B,1,2021_May_20_1807,GazeFlow,2020.1.2,59.90809965553004,
10,Block813.xls,B,13,2,60,60,None,congruent,Left,Left,Right,38,39,1,yellow,2,6,/home/docky/apps/exp/images/38Yi.jpeg,/home/docky/apps/exp/images/39Y.jpeg,0,9,9,9,0,1,1,1,1274.4826998089993,None,1274.4826998089993,None,1,4.409387326995784,1274.4826998089993,None,1278.925687586001,None,1278.925687586001,None,1281.4289994119972,None,1281.4289994119972,None,1.9189853520001634,1283.232606477999,None,1283.232606477999,None,5,0,1.0855363390001003,1285.1374183649968,None,1285.1374183649968,None,1285.1374183649968,None,1286.2391221409998,None,1,0.5509022059995914,1286.2391221409998,None,120,1286.806942907002,None,106,B,1,2021_May_20_1807,GazeFlow,2020.1.2,59.90809965553004,
10,Block813.xls,B,13,3,81,81,None,congruent,Right,Right,Left,66,65,1,yellow,2,5,/home/docky/apps/exp/images/66Y.jpeg,/home/docky/apps/exp/images/35Bi.jpeg,0,9,9,9,0,2,2,2,1287.8086474619995,None,1287.8086474619995,None,1,4.826766236001276,1287.8086474619995,None,1292.6711468079957,None,1292.6711468079957,None,1295.1740848240006,None,1295.1740848240006,None,1.9354816240011132,1296.9756745689956,None,1296.9756745689956,None,5,1,1.1184748640007456,1298.8972471000016,None,1298.8972471000016,None,1298.8972471000016,None,1300.032357999,None,1,0.6177193399998941,1300.032357999,None,122,1300.666719007997,None,106,B,1,2021_May_20_1807,GazeFlow,2020.1.2,59.90809965553004,
10,Block813.xls,B,13,4,110,14,None,incongruent,Right,Left,Right,65,66,1,yellow,2,6,/home/docky/apps/exp/images/35B.jpeg,/home/docky/apps/exp/images/66Yi.jpeg,0,9,9,9,0,3,3,3,1301.6694208100016,None,1301.6694208100016,None,1,5.828192888999183,1301.6694208100016,None,1307.5314437189954,None,1307.5314437189954,None,1310.034290333002,None,1310.034290333002,None,2.018694979000429,1311.8394551949968,None,1311.8394551949968,None,5,0,1.2015403119949042,1313.8432747530023,None,1313.8432747530023,None,1313.8432747530023,None,1315.0616278129964,None,1,0.6178150179985096,1315.0616278129964,None,120,1315.6966113999952,None,106,B,1,2021_May_20_1807,GazeFlow,2020.1.2,59.90809965553004,
10,Block813.xls,B,13,5,17,17,None,congruent,Left,Left,Right,73,76,3,blue,2,6,/home/docky/apps/exp/images/73Bi.jpeg,/home/docky/apps/exp/images/76B.jpeg,0,9,9,9,0,4,4,4,1316.6987970129994,None,1316.6987970129994,None,1,5.0931839449986,1316.6987970129994,None,1321.8285168239963,None,1321.8285168239963,None,1324.3307272749953,None,1324.3307272749953,None,2.052086789997702,1326.1315234209978,None,1326.1315234209978,None,6,1,1.3189160249967244,1328.171058508,None,1328.171058508,None,1328.171058508,None,1329.5064580489998,None,1,0.6517470159960794,1329.5064580489998,None,122,1330.1743347660013,None,106,B,1,2021_May_20_1807,GazeFlow,2020.1.2,59.90809965553004,
10,Block813.xls,B,13,6,111,15,None,incongruent,Right,Left,Right,62,65,3,yellow,2,6,/home/docky/apps/exp/images/38B.jpeg,/home/docky/apps/exp/images/35Bi.jpeg,0,9,9,9,0,5,5,5,1331.176801196998,None,1331.176801196998,None,1,5.243692958996689,1331.176801196998,None,1336.454389104998,None,1336.454389104998,None,1338.9572084949978,None,1338.9572084949978,None,2.21906973500154,1340.7596568009976,None,1340.7596568009976,None,6,1,1.1685661649971735,1342.9663289859964,None,1342.9663289859964,None,1342.9663289859964,None,1344.1513052609953,None,1,0.601321870002721,1344.1513052609953,None,124,1344.769185614001,None,106,B,1,2021_May_20_1807,GazeFlow,2020.1.2,59.90809965553004,
10,Block813.xls,B,13,7,55,55,None,congruent,Left,Left,Right,65,66,1,yellow,2,6,/home/docky/apps/exp/images/35B.jpeg,/home/docky/apps/exp/images/66Yi.jpeg,0,9,9,9,0,6,6,6,1345.7716963330022,None,1345.7716963330022,None,1,4.8600775160011835,1345.7716963330022,None,1350.665317123996,None,1350.665317123996,None,1353.1701031179982,None,1353.1701031179982,None,4.440858058995218,1354.9712940409954,None,1354.9712940409954,None,5,0,1.336810945002071,1359.4138266209993,None,1359.4138266209993,None,1359.4138266209993,None,1360.76694365,None,1,0.9691076210001484,1360.76694365,None,122,1361.7525785550024,None,106,B,1,2021_May_20_1807,GazeFlow,2020.1.2,59.90809965553004,
10,Block813.xls,B,13,8,26,26,None,congruent,Right,Right,Left,19,16,3,blue,2,5,/home/docky/apps/exp/images/19B.jpeg,/home/docky/apps/exp/images/16Bi.jpeg,0,9,9,9,0,7,7,7,1362.7546702780019,None,1362.7546702780019,None,1,5.561459914999432,1362.7546702780019,None,1368.3495898330002,None,1368.3495898330002,None,1370.8524722759976,None,1370.8524722759976,None,2.2192453789975843,1372.6498042390012,None,1372.6498042390012,None,5,1,1.1512946600050782,1374.8618218289994,None,1374.8618218289994,None,1374.8618218289994,None,1376.030075691,None,1,0.5676657629956026,1376.030075691,None,124,1376.6146548760007,None,106,B,1,2021_May_20_1807,GazeFlow,2020.1.2,59.90809965553004,
10,Block813.xls,B,,,,,,,,,,,,,,,,,,0,9,9,9,,,,,,,,,,,,,,,,,,,,,,,,,,,,,,,,,,,,,,,,,,,,106,B,1,2021_May_20_1807,GazeFlow,2020.1.2,59.90809965553004,
11,Block806.xls,B,6,1,10,10,None,congruent,Left,Left,Right,65,66,1,blue,2,6,/home/docky/apps/exp/images/35Y.jpeg,/home/docky/apps/exp/images/66Bi.jpeg,0,10,10,10,0,0,0,0,1399.7616609760007,None,1399.7616609760007,None,1,4.683618472001399,1399.7616609760007,None,1404.474298920999,None,1404.474298920999,None,1406.9910136530016,None,1406.9910136530016,None,2.318690237996634,1408.7948570879962,None,1408.7948570879962,None,5,0,1.134864933002973,1411.099020319998,None,1411.099020319998,None,1411.099020319998,None,1412.2505387810015,None,1,0.6681985550021636,1412.2505387810015,None,122,1412.9352896630007,None,106,B,1,2021_May_20_1807,GazeFlow,2020.1.2,59.90809965553004,
11,Block806.xls,B,6,2,89,89,None,congruent,Right,Right,Left,76,69,7,yellow,2,5,/home/docky/apps/exp/images/76Yi.jpeg,/home/docky/apps/exp/images/69Y.jpeg,0,10,10,10,0,1,1,1,1413.9373805529976,None,1413.9373805529976,None,1,5.962355871000909,1413.9373805529976,None,1419.9330217099996,None,1419.9330217099996,None,1422.435857231998,None,1422.435857231998,None,1.8684616980026476,1424.2415764830002,None,1424.2415764830002,None,5,1,1.185043402001611,1426.094586770996,None,1426.094586770996,None,1426.094586770996,None,1427.2961778839963,None,1,0.8352626460036845,1427.2961778839963,None,124,1428.1478508180007,None,106,B,1,2021_May_20_1807,GazeFlow,2020.1.2,59.90809965553004,
11,Block806.xls,B,6,3,88,88,None,congruent,Right,Right,Left,76,69,7,yellow,2,5,/home/docky/apps/exp/images/76Y.jpeg,/home/docky/apps/exp/images/69Yi.jpeg,0,10,10,10,0,2,2,2,1429.1503381799994,None,1429.1503381799994,None,1,6.6966184039993095,1429.1503381799994,None,1435.8808769120005,None,1435.8808769120005,None,1438.383580030997,None,1438.383580030997,None,1.9016689549971488,1440.187075861002,None,1440.187075861002,None,5,1,1.0181196379999164,1442.075471293996,None,1442.075471293996,None,1442.075471293996,None,1443.1101781089965,None,1,0.6849242710013641,1443.1101781089965,None,126,1443.8117313030016,None,106,B,1,2021_May_20_1807,GazeFlow,2020.1.2,59.90809965553004,
11,Block806.xls,B,6,4,109,13,None,incongruent,Right,Left,Right,33,35,2,yellow,2,6,/home/docky/apps/exp/images/33Yi.jpeg,/home/docky/apps/exp/images/35Y.jpeg,0,10,10,10,0,3,3,3,1444.8141519490018,None,1444.8141519490018,None,1,5.894993260000774,1444.8141519490018,None,1450.7427212149996,None,1450.7427212149996,None,1453.2459491689951,None,1453.2459491689951,None,2.7874334279986215,1455.0490890219953,None,1455.0490890219953,None,5,0,1.7874780959973577,1457.8383328560012,None,1457.8383328560012,None,1457.8383328560012,None,1459.642099509998,None,1,1.0864887689967873,1459.642099509998,None,124,1460.7449441630015,None,106,B,1,2021_May_20_1807,GazeFlow,2020.1.2,59.90809965553004,
11,Block806.xls,B,6,5,37,37,None,congruent,Right,Right,Left,79,73,6,blue,2,5,/home/docky/apps/exp/images/79Bi.jpeg,/home/docky/apps/exp/images/73B.jpeg,0,10,10,10,0,4,4,4,1461.746984737998,None,1461.746984737998,None,1,5.344046669997624,1461.746984737998,None,1467.1229989330022,None,1467.1229989330022,None,1469.6272779239953,None,1469.6272779239953,None,1.7854092350025894,1471.4311513909997,None,1471.4311513909997,None,5,1,1.0526484579968383,1473.2024266969966,None,1473.2024266969966,None,1473.2024266969966,None,1474.2711982039982,None,1,0.7344356969988439,1474.2711982039982,None,126,1475.0220199510004,None,106,B,1,2021_May_20_1807,GazeFlow,2020.1.2,59.90809965553004,
11,Block806.xls,B,6,6,108,12,None,incongruent,Left,Right,Left,39,38,1,blue,2,5,/home/docky/apps/exp/images/39Bi.jpeg,/home/docky/apps/exp/images/38B.jpeg,0,10,10,10,0,5,5,5,1476.0247381949957,None,1476.0247381949957,None,1,6.061997082993912,1476.0247381949957,None,1482.1206653490008,None,1482.1206653490008,None,1484.6247430079966,None,1484.6247430079966,None,1.7185384399999748,1486.4271609770003,None,1486.4271609770003,None,5,1,1.0353867969970452,1488.1315634229977,None,1488.1315634229977,None,1488.1315634229977,None,1489.1833922649967,None,1,0.6675834880006732,1489.1833922649967,None,128,1489.8678482019968,None,106,B,1,2021_May_20_1807,GazeFlow,2020.1.2,59.90809965553004,
11,Block806.xls,B,6,7,52,52,None,congruent,Left,Left,Right,65,66,1,yellow,2,6,/home/docky/apps/exp/images/35B.jpeg,/home/docky/apps/exp/images/66Yi.jpeg,0,10,10,10,0,6,6,6,1490.8699160639953,None,1490.8699160639953,None,1,5.661953415998141,1490.8699160639953,None,1496.5652771940004,None,1496.5652771940004,None,1499.0682483919954,None,1499.0682483919954,None,2.252643847001309,1500.8714485749952,None,1500.8714485749952,None,6,1,1.2020485210014158,1503.1108514039952,None,1503.1108514039952,None,1503.1108514039952,None,1504.3289662730022,None,1,0.6679465630004415,1504.3289662730022,None,130,1505.0144959009995,None,106,B,1,2021_May_20_1807,GazeFlow,2020.1.2,59.90809965553004,
11,Block806.xls,B,6,8,75,75,None,congruent,Right,Right,Left,35,33,2,yellow,2,5,/home/docky/apps/exp/images/35Yi.jpeg,/home/docky/apps/exp/images/33Y.jpeg,0,10,10,10,0,7,7,7,1506.0162986270007,None,1506.0162986270007,None,1,4.67630782899505,1506.0162986270007,None,1510.7259416119996,None,1510.7259416119996,None,1513.2306410699966,None,1513.2306410699966,None,2.2188783059973503,1515.034344202002,None,1515.034344202002,None,5,1,0.9848852099967189,1517.2382206559996,None,1517.2382206559996,None,1517.2382206559996,None,1518.2394062019957,None,1,0.5847436910044053,1518.2394062019957,None,132,1518.8407628049972,None,106,B,1,2021_May_20_1807,GazeFlow,2020.1.2,59.90809965553004,
11,Block806.xls,B,,,,,,,,,,,,,,,,,,0,10,10,10,,,,,,,,,,,,,,,,,,,,,,,,,,,,,,,,,,,,,,,,,,,,106,B,1,2021_May_20_1807,GazeFlow,2020.1.2,59.90809965553004,
12,Block811.xls,B,11,1,86,86,None,congruent,Right,Right,Left,75,69,6,yellow,2,5,/home/docky/apps/exp/images/76Y.jpeg,/home/docky/apps/exp/images/69Yi.jpeg,0,11,11,11,0,0,0,0,1540.117008672998,None,1540.117008672998,None,1,4.697328610003751,1540.117008672998,None,1544.8461175029952,None,1544.8461175029952,None,1547.3639259580013,None,1547.3639259580013,None,1.5507483530018362,1549.167376780002,None,1549.167376780002,None,5,1,0.9686560499976622,1550.7033100819972,None,1550.7033100819972,None,1550.7033100819972,None,1551.6883811549997,None,1,0.6842803420004202,1551.6883811549997,None,134,1552.3892763370022,None,106,B,1,2021_May_20_1807,GazeFlow,2020.1.2,59.90809965553004,
12,Block811.xls,B,11,2,83,83,None,congruent,Right,Right,Left,75,69,6,yellow,2,5,/home/docky/apps/exp/images/76Yi.jpeg,/home/docky/apps/exp/images/69Y.jpeg,0,11,11,11,0,1,1,1,1553.391156423997,None,1553.391156423997,None,1,5.679026466998039,1553.391156423997,None,1559.1031302179981,None,1559.1031302179981,None,1561.6059742180005,None,1561.6059742180005,None,1.5845595850041718,1563.4091426769955,None,1563.4091426769955,None,5,1,1.4358221879956545,1564.980986871,None,1564.980986871,None,1564.980986871,None,1566.4332570240003,None,1,0.7848037700023269,1566.4332570240003,None,136,1567.235013462996,None,106,B,1,2021_May_20_1807,GazeFlow,2020.1.2,59.90809965553004,
12,Block811.xls,B,11,3,28,28,None,congruent,Right,Right,Left,38,35,3,blue,2,5,/home/docky/apps/exp/images/38Bi.jpeg,/home/docky/apps/exp/images/35B.jpeg,0,11,11,11,0,2,2,2,1568.2369666669983,None,1568.2369666669983,None,1,5.511091715001385,1568.2369666669983,None,1573.7817793849972,None,1573.7817793849972,None,1576.28471498,None,1576.28471498,None,1.5006859690038254,1578.0901246770009,None,1578.0901246770009,None,5,1,1.1525624260029872,1579.5760663210021,None,1579.5760663210021,None,1579.5760663210021,None,1580.7448470969975,None,1,1.8869205009978032,1580.7448470969975,None,138,1582.6480441530002,None,106,B,1,2021_May_20_1807,GazeFlow,2020.1.2,59.90809965553004,
12,Block811.xls,B,11,4,58,58,None,congruent,Left,Left,Right,62,65,3,yellow,2,6,/home/docky/apps/exp/images/38B.jpeg,/home/docky/apps/exp/images/35Bi.jpeg,0,11,11,11,0,3,3,3,1583.650531827996,None,1583.650531827996,None,1,4.141608164005447,1583.650531827996,None,1587.8258743600018,None,1587.8258743600018,None,1590.3296021959977,None,1590.3296021959977,None,2.0352941940000164,1592.1319253469992,None,1592.1319253469992,None,6,1,1.0347965880064294,1594.1540571660007,None,1594.1540571660007,None,1594.1540571660007,None,1595.2053791739963,None,1,0.5012902740054415,1595.2053791739963,None,140,1595.723364409001,None,106,B,1,2021_May_20_1807,GazeFlow,2020.1.2,59.90809965553004,
12,Block811.xls,B,11,5,32,32,None,congruent,Right,Right,Left,66,65,1,blue,2,5,/home/docky/apps/exp/images/66Bi.jpeg,/home/docky/apps/exp/images/35Y.jpeg,0,11,11,11,0,4,4,4,1596.7253613249995,None,1596.7253613249995,None,1,4.693530021002516,1596.7253613249995,None,1601.4522315499999,None,1601.4522315499999,None,1603.9549734579996,None,1603.9549734579996,None,2.1691678590068477,1605.752674422998,None,1605.752674422998,None,6,0,1.1684186100028455,1607.9143106409974,None,1607.9143106409974,None,1607.9143106409974,None,1609.0992910999994,None,1,0.6015195239961031,1609.0992910999994,None,138,1609.7171206150015,None,106,B,1,2021_May_20_1807,GazeFlow,2020.1.2,59.90809965553004,
12,Block811.xls,B,11,6,67,67,None,congruent,Left,Left,Right,72,77,5,yellow,2,6,/home/docky/apps/exp/images/72Y.jpeg,/home/docky/apps/exp/images/77Yi.jpeg,0,11,11,11,0,5,5,5,1610.719649437,None,1610.719649437,None,1,5.360621612999239,1610.719649437,None,1616.1142068479967,None,1616.1142068479967,None,1618.6189864709959,None,1618.6189864709959,None,1.8686611680022907,1620.4207177739954,None,1620.4207177739954,None,6,1,1.2187631970009534,1622.2754369359973,None,1622.2754369359973,None,1622.2754369359973,None,1623.5109180849977,None,1,0.7011329900051351,1623.5109180849977,None,140,1624.2287543580023,None,106,B,1,2021_May_20_1807,GazeFlow,2020.1.2,59.90809965553004,
12,Block811.xls,B,11,7,120,24,None,incongruent,Left,Right,Left,77,72,5,yellow,2,5,/home/docky/apps/exp/images/77Y.jpeg,/home/docky/apps/exp/images/72Yi.jpeg,0,11,11,11,0,6,6,6,1625.2311808739978,None,1625.2311808739978,None,1,5.360655753000174,1625.2311808739978,None,1630.625703120997,None,1630.625703120997,None,1633.1301846849965,None,1633.1301846849965,None,1.9519649829962873,1634.932506610996,None,1634.932506610996,None,5,1,1.1014558109964128,1636.8706277759993,None,1636.8706277759993,None,1636.8706277759993,None,1637.9890038480007,None,1,0.5675034150044667,1637.9890038480007,None,142,1638.5734324489968,None,106,B,1,2021_May_20_1807,GazeFlow,2020.1.2,59.90809965553004,
12,Block811.xls,B,11,8,57,57,None,congruent,Left,Left,Right,62,65,3,yellow,2,6,/home/docky/apps/exp/images/38Bi.jpeg,/home/docky/apps/exp/images/35B.jpeg,0,11,11,11,0,7,7,7,1639.575220877996,None,1639.575220877996,None,1,5.060971881001024,1639.575220877996,None,1644.669560369999,None,1644.669560369999,None,1647.172698452996,None,1647.172698452996,None,1.818445441997028,1648.975205251998,None,1648.975205251998,None,6,1,1.0020910109960823,1650.780954681999,None,1650.780954681999,None,1650.780954681999,None,1651.7993609979967,None,1,0.6176338290024432,1651.7993609979967,None,144,1652.4333653499998,None,106,B,1,2021_May_20_1807,GazeFlow,2020.1.2,59.90809965553004,
12,Block811.xls,B,,,,,,,,,,,,,,,,,,0,11,11,11,,,,,,,,,,,,,,,,,,,,,,,,,,,,,,,,,,,,,,,,,,,,106,B,1,2021_May_20_1807,GazeFlow,2020.1.2,59.90809965553004,
13,Block808.xls,B,8,1,118,22,None,incongruent,Left,Right,Left,75,69,6,yellow,2,5,/home/docky/apps/exp/images/76Y.jpeg,/home/docky/apps/exp/images/69Yi.jpeg,0,12,12,12,0,0,0,0,1674.3431854419978,None,1674.3431854419978,None,1,5.30301034799777,1674.3431854419978,None,1679.6755586590007,None,1679.6755586590007,None,1682.1926616650017,None,1682.1926616650017,None,1.6506174510068377,1683.9959409840012,None,1683.9959409840012,None,5,1,0.9855584090037155,1685.6319476720018,None,1685.6319476720018,None,1685.6319476720018,None,1686.6337570089963,None,1,0.5673733349976828,1686.6337570089963,None,146,1687.217657934998,None,106,B,1,2021_May_20_1807,GazeFlow,2020.1.2,59.90809965553004,
13,Block808.xls,B,8,2,7,7,None,congruent,Left,Left,Right,65,66,1,blue,2,6,/home/docky/apps/exp/images/35Yi.jpeg,/home/docky/apps/exp/images/66B.jpeg,0,12,12,12,0,1,1,1,1688.2198066839992,None,1688.2198066839992,None,1,5.210745008997037,1688.2198066839992,None,1693.4670830260002,None,1693.4670830260002,None,1695.966421778001,None,1695.966421778001,None,1.5847630460048094,1697.7693591839998,None,1697.7693591839998,None,6,1,1.002061996005068,1699.3419954889978,None,1699.3419954889978,None,1699.3419954889978,None,1700.3604242939982,None,1,0.416964801006543,1700.3604242939982,None,148,1700.7941324950007,None,106,B,1,2021_May_20_1807,GazeFlow,2020.1.2,59.90809965553004,
13,Block808.xls,B,8,3,112,16,None,incongruent,Right,Left,Right,69,76,7,yellow,2,6,/home/docky/apps/exp/images/69Yi.jpeg,/home/docky/apps/exp/images/76Y.jpeg,0,12,12,12,0,2,2,2,1701.7961114899954,None,1701.7961114899954,None,1,4.60964403199614,1701.7961114899954,None,1706.4394844679991,None,1706.4394844679991,None,1708.9424524739952,None,1708.9424524739952,None,1.5845897999970475,1710.7402074720012,None,1710.7402074720012,None,6,1,1.1022816309996415,1712.3173145569963,None,1712.3173145569963,None,1712.3173145569963,None,1713.4357441600005,None,1,0.5673520290001761,1713.4357441600005,None,150,1714.0199042140011,None,106,B,1,2021_May_20_1807,GazeFlow,2020.1.2,59.90809965553004,
13,Block808.xls,B,8,4,97,1,None,incongruent,Right,Left,Right,16,19,3,blue,2,6,/home/docky/apps/exp/images/16Bi.jpeg,/home/docky/apps/exp/images/19B.jpeg,0,12,12,12,0,3,3,3,1715.0217071449952,None,1715.0217071449952,None,1,5.044253724998271,1715.0217071449952,None,1720.099336995001,None,1720.099336995001,None,1722.6025476060022,None,1722.6025476060022,None,1.8681654079991858,1724.406151078998,None,1724.406151078998,None,5,0,1.01877063500433,1726.2607001200013,None,1726.2607001200013,None,1726.2607001200013,None,1727.2961575129957,None,1,0.6674714399996446,1727.2961575129957,None,148,1727.9802518569995,None,106,B,1,2021_May_20_1807,GazeFlow,2020.1.2,59.90809965553004,
13,Block808.xls,B,8,5,24,24,None,congruent,Left,Left,Right,80,83,3,blue,2,6,/home/docky/apps/exp/images/80Bi.jpeg,/home/docky/apps/exp/images/83B.jpeg,0,12,12,12,0,4,4,4,1728.9823201420004,None,1728.9823201420004,None,1,5.527812503001769,1728.9823201420004,None,1734.5461801909987,None,1734.5461801909987,None,1737.048844568999,None,1737.048844568999,None,1.785129018004227,1738.8501781359955,None,1738.8501781359955,None,6,1,1.335573665004631,1740.6219228249975,None,1740.6219228249975,None,1740.6219228249975,None,1741.9739095149998,None,1,0.8516393019963289,1741.9739095149998,None,150,1742.8427161919972,None,106,B,1,2021_May_20_1807,GazeFlow,2020.1.2,59.90809965553004,
13,Block808.xls,B,8,6,13,13,None,congruent,Left,Left,Right,38,39,1,blue,2,6,/home/docky/apps/exp/images/38Bi.jpeg,/home/docky/apps/exp/images/39B.jpeg,0,12,12,12,0,5,5,5,1743.8448056339985,None,1743.8448056339985,None,1,5.060622971999692,1743.8448056339985,None,1748.938780479999,None,1748.938780479999,None,1751.4435805409958,None,1751.4435805409958,None,1.918735465995269,1753.2454040289958,None,1753.2454040289958,None,6,1,1.118616330997611,1755.150291109996,None,1755.150291109996,None,1755.150291109996,None,1756.2851863749966,None,1,0.5013695390007342,1756.2851863749966,None,152,1756.8028597039956,None,106,B,1,2021_May_20_1807,GazeFlow,2020.1.2,59.90809965553004,
13,Block808.xls,B,8,7,8,8,None,congruent,Left,Left,Right,65,66,1,blue,2,6,/home/docky/apps/exp/images/35Y.jpeg,/home/docky/apps/exp/images/66Bi.jpeg,0,12,12,12,0,6,6,6,1757.804961599999,None,1757.804961599999,None,1,4.926825077003741,1757.804961599999,None,1762.765571416996,None,1762.765571416996,None,1765.270242450999,None,1765.270242450999,None,4.774913655004639,1767.071389482997,None,1767.071389482997,None,5,0,2.406368839998322,1771.8478192139955,None,1771.8478192139955,None,1771.8478192139955,None,1774.2703689519985,None,1,0.8520973330014385,1774.2703689519985,None,150,1775.138930191999,None,106,B,1,2021_May_20_1807,GazeFlow,2020.1.2,59.90809965553004,
13,Block808.xls,B,8,8,31,31,None,congruent,Right,Right,Left,66,65,1,blue,2,5,/home/docky/apps/exp/images/66B.jpeg,/home/docky/apps/exp/images/35Yi.jpeg,0,12,12,12,0,7,7,7,1776.140980600001,None,1776.140980600001,None,1,5.310350923995429,1776.140980600001,None,1781.4853152159994,None,1781.4853152159994,None,1783.9879841950024,None,1783.9879841950024,None,3.739372212003218,1785.7913466300015,None,1785.7913466300015,None,5,1,1.251257401003386,1789.534108202999,None,1789.534108202999,None,1789.534108202999,None,1790.802277668001,None,1,0.8850357929986785,1790.802277668001,None,152,1791.7039659389993,None,106,B,1,2021_May_20_1807,GazeFlow,2020.1.2,59.90809965553004,
13,Block808.xls,B,,,,,,,,,,,,,,,,,,0,12,12,12,,,,,,,,,,,,,,,,,,,,,,,,,,,,,,,,,,,,,,,,,,,,106,B,1,2021_May_20_1807,GazeFlow,2020.1.2,59.90809965553004,
14,Block815.xls,B,15,1,65,65,None,congruent,Left,Left,Right,69,76,7,yellow,2,6,/home/docky/apps/exp/images/69Yi.jpeg,/home/docky/apps/exp/images/76Y.jpeg,0,13,13,13,0,0,0,0,1814.2668424059957,None,1814.2668424059957,None,1,5.550805847000447,1814.2668424059957,None,1819.8381837339984,None,1819.8381837339984,None,1822.3647137039952,None,1822.3647137039952,None,2.1351448179993895,1824.1667690940012,None,1824.1667690940012,None,6,1,1.034685680999246,1826.2885398479993,None,1826.2885398479993,None,1826.2885398479993,None,1827.3398412070019,None,1,0.5513602970022475,1827.3398412070019,None,154,1827.9075973569998,None,106,B,1,2021_May_20_1807,GazeFlow,2020.1.2,59.90809965553004,
14,Block815.xls,B,15,2,102,6,None,incongruent,Right,Left,Right,80,83,3,blue,2,6,/home/docky/apps/exp/images/80B.jpeg,/home/docky/apps/exp/images/83Bi.jpeg,0,13,13,13,0,1,1,1,1828.9102947599968,None,1828.9102947599968,None,1,4.909502994996728,1828.9102947599968,None,1833.8537591599961,None,1833.8537591599961,None,1836.3581933079986,None,1836.3581933079986,None,2.5036173129992676,1838.1603185959975,None,1838.1603185959975,None,6,1,2.4709685019988683,1840.6668955060013,None,1840.6668955060013,None,1840.6668955060013,None,1843.154403460001,None,1,0.868541826006549,1843.154403460001,None,156,1844.0393337720016,None,106,B,1,2021_May_20_1807,GazeFlow,2020.1.2,59.90809965553004,
14,Block815.xls,B,15,3,33,33,None,congruent,Right,Right,Left,66,65,1,blue,2,5,/home/docky/apps/exp/images/66Bi.jpeg,/home/docky/apps/exp/images/35Y.jpeg,0,13,13,13,0,2,2,2,1845.0412687610005,None,1845.0412687610005,None,1,4.709533529996406,1845.0412687610005,None,1849.7822499079994,None,1849.7822499079994,None,1852.2871358400007,None,1852.2871358400007,None,2.369731419996242,1854.0911157430019,None,1854.0911157430019,None,5,1,1.1179480790015077,1856.4475484009963,None,1856.4475484009963,None,1856.4475484009963,None,1857.5820210039965,None,1,0.5683777379963431,1857.5820210039965,None,158,1858.1664993419981,None,106,B,1,2021_May_20_1807,GazeFlow,2020.1.2,59.90809965553004,
14,Block815.xls,B,15,4,72,72,None,congruent,Left,Left,Right,79,82,3,yellow,2,6,/home/docky/apps/exp/images/79Yi.jpeg,/home/docky/apps/exp/images/80Y.jpeg,0,13,13,13,0,3,3,3,1859.168936588001,None,1859.168936588001,None,1,5.3605828910003765,1859.168936588001,None,1864.5633894299972,None,1864.5633894299972,None,1867.0655321230006,None,1867.0655321230006,None,1.85198691199912,1868.8698053400003,None,1868.8698053400003,None,6,1,2.1870065959956264,1870.7079637610004,None,1870.7079637610004,None,1870.7079637610004,None,1872.9125297079954,None,1,0.7344683560004341,1872.9125297079954,None,160,1873.6634820489999,None,106,B,1,2021_May_20_1807,GazeFlow,2020.1.2,59.90809965553004,
14,Block815.xls,B,15,5,100,4,None,incongruent,Right,Left,Right,73,76,3,blue,2,6,/home/docky/apps/exp/images/73B.jpeg,/home/docky/apps/exp/images/76Bi.jpeg,0,13,13,13,0,4,4,4,1874.665600239001,None,1874.665600239001,None,1,4.992980625997006,1874.665600239001,None,1879.6926548179981,None,1879.6926548179981,None,1882.1972002249968,None,1882.1972002249968,None,2.0523239910035045,1883.9990666519952,None,1883.9990666519952,None,6,1,1.3021294200007105,1886.0375305909984,None,1886.0375305909984,None,1886.0375305909984,None,1887.3565793539965,None,1,0.6174528949995874,1887.3565793539965,None,162,1887.991099040999,None,106,B,1,2021_May_20_1807,GazeFlow,2020.1.2,59.90809965553004,
14,Block815.xls,B,15,6,45,45,None,congruent,Right,Right,Left,39,38,1,blue,2,5,/home/docky/apps/exp/images/39B.jpeg,/home/docky/apps/exp/images/38Bi.jpeg,0,13,13,13,0,5,5,5,1888.9932072910015,None,1888.9932072910015,None,1,4.659627752000233,1888.9932072910015,None,1893.6866265650024,None,1893.6866265650024,None,1896.1893700889996,None,1896.1893700889996,None,2.135612782003591,1897.9930125070023,None,1897.9930125070023,None,5,1,1.1685535720025655,1900.1152217670024,None,1900.1152217670024,None,1900.1152217670024,None,1901.3000202490002,None,1,0.6519979100048658,1901.3000202490002,None,164,1901.9679696929961,None,106,B,1,2021_May_20_1807,GazeFlow,2020.1.2,59.90809965553004,
14,Block815.xls,B,15,7,98,2,None,incongruent,Right,Left,Right,35,38,3,blue,2,6,/home/docky/apps/exp/images/35Bi.jpeg,/home/docky/apps/exp/images/38B.jpeg,0,13,13,13,0,6,6,6,1902.9706098929964,None,1902.9706098929964,None,1,4.960287395995692,1902.9706098929964,None,1907.964290691998,None,1907.964290691998,None,1910.4689920320016,None,1910.4689920320016,None,2.0524504209970473,1912.2704974209992,None,1912.2704974209992,None,6,1,1.3186483679965022,1914.3094195199956,None,1914.3094195199956,None,1914.3094195199956,None,1915.6447978189972,None,1,0.6014676260019769,1915.6447978189972,None,166,1916.2625856609957,None,106,B,1,2021_May_20_1807,GazeFlow,2020.1.2,59.90809965553004,
14,Block815.xls,B,15,8,59,59,None,congruent,Left,Left,Right,38,39,1,yellow,2,6,/home/docky/apps/exp/images/38Yi.jpeg,/home/docky/apps/exp/images/39Y.jpeg,0,13,13,13,0,7,7,7,1917.2649363149976,None,1917.2649363149976,None,1,6.129330540003139,1917.2649363149976,None,1923.4276877039956,None,1923.4276877039956,None,1925.9305109959969,None,1925.9305109959969,None,4.6744203319976805,1927.7282292609962,None,1927.7282292609962,None,5,0,1.5044131670001661,1932.409768972997,None,1932.409768972997,None,1932.409768972997,None,1933.9305583000023,None,1,0.5849961550047738,1933.9305583000023,None,164,1934.5317199919955,None,106,B,1,2021_May_20_1807,GazeFlow,2020.1.2,59.90809965553004,
14,Block815.xls,B,,,,,,,,,,,,,,,,,,0,13,13,13,,,,,,,,,,,,,,,,,,,,,,,,,,,,,,,,,,,,,,,,,,,,106,B,1,2021_May_20_1807,GazeFlow,2020.1.2,59.90809965553004,
15,Block807.xls,B,7,1,71,71,None,congruent,Left,Left,Right,79,82,3,yellow,2,6,/home/docky/apps/exp/images/79Y.jpeg,/home/docky/apps/exp/images/80Yi.jpeg,0,14,14,14,0,0,0,0,1955.2308211799973,None,1955.2308211799973,None,1,6.074283422996814,1955.2308211799973,None,1961.3306577839976,None,1961.3306577839976,None,1963.8541545760017,None,1963.8541545760017,None,2.4694256099974154,1965.653830270996,None,1965.653830270996,None,6,1,1.3162290709951776,1968.1330909050012,None,1968.1330909050012,None,1968.1330909050012,None,1969.4658780839964,None,1,0.5176113240013365,1969.4658780839964,None,166,1970.0003902379976,None,106,B,1,2021_May_20_1807,GazeFlow,2020.1.2,59.90809965553004,
15,Block807.xls,B,7,2,44,44,None,congruent,Right,Right,Left,83,80,3,blue,2,5,/home/docky/apps/exp/images/83Bi.jpeg,/home/docky/apps/exp/images/80B.jpeg,0,14,14,14,0,1,1,1,1971.0027520680014,None,1971.0027520680014,None,1,5.627664986001037,1971.0027520680014,None,1976.6643553530012,None,1976.6643553530012,None,1979.1690415439953,None,1979.1690415439953,None,3.0881612450029934,1980.9710239889973,None,1980.9710239889973,None,5,1,0.983306515001459,1984.0627440960016,None,1984.0627440960016,None,1984.0627440960016,None,1985.062775762999,None,1,0.5515116579990718,1985.062775762999,None,168,1985.6311440450008,None,106,B,1,2021_May_20_1807,GazeFlow,2020.1.2,59.90809965553004,
15,Block807.xls,B,7,3,48,48,None,congruent,Right,Right,Left,39,38,1,blue,2,5,/home/docky/apps/exp/images/39Bi.jpeg,/home/docky/apps/exp/images/38B.jpeg,0,14,14,14,0,2,2,2,1986.6330628079959,None,1986.6330628079959,None,1,5.477577133002342,1986.6330628079959,None,1992.1444281009972,None,1992.1444281009972,None,1994.649398264999,None,1994.649398264999,None,1.9189548089998425,1996.4508377599996,None,1996.4508377599996,None,5,1,1.101428918998863,1998.3561253029984,None,1998.3561253029984,None,1998.3561253029984,None,1999.4740029820023,None,1,0.618209319000016,1999.4740029820023,None,170,2000.1087791999962,None,106,B,1,2021_May_20_1807,GazeFlow,2020.1.2,59.90809965553004,
15,Block807.xls,B,7,4,113,17,None,incongruent,Right,Left,Right,72,77,5,yellow,2,6,/home/docky/apps/exp/images/72Yi.jpeg,/home/docky/apps/exp/images/77Y.jpeg,0,14,14,14,0,3,3,3,2001.1111420000016,None,2001.1111420000016,None,1,4.926475960994139,2001.1111420000016,None,2006.0715018389965,None,2006.0715018389965,None,2008.5747570669992,None,2008.5747570669992,None,1.6681648179946933,2010.3780332960014,None,2010.3780332960014,None,6,1,2.2368494239999563,2012.0324772989989,None,2012.0324772989989,None,2012.0324772989989,None,2014.2861307700005,None,1,0.6850370329993893,2014.2861307700005,None,172,2014.9880804389977,None,106,B,1,2021_May_20_1807,GazeFlow,2020.1.2,59.90809965553004,
15,Block807.xls,B,7,5,69,69,None,congruent,Left,Left,Right,72,77,5,yellow,2,6,/home/docky/apps/exp/images/72Y.jpeg,/home/docky/apps/exp/images/77Yi.jpeg,0,14,14,14,0,4,4,4,2015.9900901579967,None,2015.9900901579967,None,1,4.976402565000171,2015.9900901579967,None,2021.000100158999,None,2021.000100158999,None,2023.503361477,None,2023.503361477,None,1.7182466399972327,2025.3062067290011,None,2025.3062067290011,None,6,1,1.0350989299986395,2027.0116179489996,None,2027.0116179489996,None,2027.0116179489996,None,2028.0634767879965,None,1,0.6007088009937434,2028.0634767879965,None,174,2028.6810493459998,None,106,B,1,2021_May_20_1807,GazeFlow,2020.1.2,59.90809965553004,
15,Block807.xls,B,7,6,39,39,None,congruent,Right,Right,Left,79,76,3,blue,2,5,/home/docky/apps/exp/images/79B.jpeg,/home/docky/apps/exp/images/76Bi.jpeg,0,14,14,14,0,5,5,5,2029.6834682319968,None,2029.6834682319968,None,1,5.110013810000964,2029.6834682319968,None,2034.8272710429956,None,2034.8272710429956,None,2037.3335943860002,None,2037.3335943860002,None,1.8186798140013707,2039.1341436639996,None,2039.1341436639996,None,5,1,1.052432743999816,2040.9387016969995,None,2040.9387016969995,None,2040.9387016969995,None,2042.0072300269967,None,1,0.7174671669999952,2042.0072300269967,None,176,2042.7416111369967,None,106,B,1,2021_May_20_1807,GazeFlow,2020.1.2,59.90809965553004,
15,Block807.xls,B,7,7,50,50,None,congruent,Left,Left,Right,33,35,2,yellow,2,6,/home/docky/apps/exp/images/33Y.jpeg,/home/docky/apps/exp/images/35Yi.jpeg,0,14,14,14,0,6,6,6,2043.7439607859997,None,2043.7439607859997,None,1,5.711950769000396,2043.7439607859997,None,2049.4890497779998,None,2049.4890497779998,None,2051.992420937997,None,2051.992420937997,None,1.8516900089962292,2053.795520038999,None,2053.795520038999,None,6,1,2.1205404749998706,2055.633844762997,None,2055.633844762997,None,2055.633844762997,None,2057.7706966240003,None,1,0.8525979400001233,2057.7706966240003,None,178,2058.6392773779953,None,106,B,1,2021_May_20_1807,GazeFlow,2020.1.2,59.90809965553004,
15,Block807.xls,B,7,8,19,19,None,congruent,Left,Left,Right,76,79,3,blue,2,6,/home/docky/apps/exp/images/76B.jpeg,/home/docky/apps/exp/images/79Bi.jpeg,0,14,14,14,0,7,7,7,2059.641595276,None,2059.641595276,None,1,5.076728321997507,2059.641595276,None,2064.7521449289998,None,2064.7521449289998,None,2067.2569737500016,None,2067.2569737500016,None,2.687375884001085,2069.058360160001,None,2069.058360160001,None,6,1,1.2179852230037795,2071.749252321002,None,2071.749252321002,None,2071.749252321002,None,2072.9834661169953,None,1,0.5517831380057032,2072.9834661169953,None,180,2073.5517501809954,None,106,B,1,2021_May_20_1807,GazeFlow,2020.1.2,59.90809965553004,
15,Block807.xls,B,,,,,,,,,,,,,,,,,,0,14,14,14,,,,,,,,,,,,,,,,,,,,,,,,,,,,,,,,,,,,,,,,,,,,106,B,1,2021_May_20_1807,GazeFlow,2020.1.2,59.90809965553004,
