Nblock,condsFile,grouping,Block,TrialBlock,N,trialN,trialCond,gazeCon,gazedirR,corrBinR,corrBinP,valLBY,valRBY,diff,colorCube,feedbacktext,corrAns,imageL,imageR,SelBlocks.thisRepN,SelBlocks.thisTrialN,SelBlocks.thisN,SelBlocks.thisIndex,Trials.thisRepN,Trials.thisTrialN,Trials.thisN,Trials.thisIndex,waitCube.started,waitCube.stopped,text_3.started,text_3.stopped,StartKeyPress.keys,StartKeyPress.rt,StartKeyPress.started,StartKeyPress.stopped,StimL.started,StimL.stopped,StimR.started,StimR.stopped,imageStim2L.started,imageStim2L.stopped,imageStim2R.started,imageStim2R.stopped,RTkeyRelease,imageStim3L.started,imageStim3L.stopped,imageStim3R.started,imageStim3R.stopped,dropResp.keys,dropResp.corr,dropResp.rt,dropResp.started,dropResp.stopped,imageStim5L.started,imageStim5L.stopped,imageStim5R.started,imageStim5R.stopped,text_2.started,text_2.stopped,ReturnSpace.keys,ReturnSpace.rt,ReturnSpace.started,ReturnSpace.stopped,totalpoints,textFeedback.started,textFeedback.stopped,participant,group,session,date,expName,psychopyVersion,frameRate,
1,Block502.xls,A,2,1,93,33,22,incongruent,Left,Right,Left,38,35,3,blue,2,5,/home/docky/apps/exp/images/38B.jpeg,/home/docky/apps/exp/images/35Bi.jpeg,0,0,0,0,0,0,0,0,52.63462061700011,None,52.63462061700011,None,1,6.217030169000282,52.63462061700011,None,58.89301729399995,None,58.89301729399995,None,61.400180860000546,None,61.400180860000546,None,3.688661436000075,63.20081671400021,None,63.20081671400021,None,6,0,0.9164609780000319,66.89445891100058,None,66.89445891100058,None,66.89445891100058,None,67.82738171700021,None,1,0.8350186990001021,67.82738171700021,None,-2,68.67968039900006,None,107,A,1,2021_May_21_0928,GazeFlow,2020.1.2,59.89911455681229,
1,Block502.xls,A,2,2,42,42,12,congruent,Right,Right,Left,83,80,3,blue,2,5,/home/docky/apps/exp/images/83Bi.jpeg,/home/docky/apps/exp/images/80B.jpeg,0,0,0,0,0,1,1,1,69.68145303100027,None,69.68145303100027,None,1,9.451958068999375,69.68145303100027,None,79.16732318699997,None,79.16732318699997,None,81.67017099500026,None,81.67017099500026,None,2.1523313389998293,83.47563527300008,None,83.47563527300008,None,5,1,0.9178104740003619,85.61259714700009,None,85.61259714700009,None,85.61259714700009,None,86.54713978600012,None,1,0.885122651000529,86.54713978600012,None,0,87.44908483900053,None,107,A,1,2021_May_21_0928,GazeFlow,2020.1.2,59.89911455681229,
1,Block502.xls,A,2,3,9,9,11,congruent,Left,Left,Right,38,39,1,blue,2,6,/home/docky/apps/exp/images/38Bi.jpeg,/home/docky/apps/exp/images/39B.jpeg,0,0,0,0,0,2,2,2,88.45134938400042,None,88.45134938400042,None,1,6.0118561159997626,88.45134938400042,None,94.4971466930001,None,94.4971466930001,None,97.00044002499999,None,97.00044002499999,None,3.655962940999416,98.80326499200055,None,98.80326499200055,None,5,0,0.9842990299994199,102.46231799599991,None,102.46231799599991,None,102.46231799599991,None,103.46320789099991,None,1,0.8352364190004664,103.46320789099991,None,-2,104.31476022900006,None,107,A,1,2021_May_21_0928,GazeFlow,2020.1.2,59.89911455681229,
1,Block502.xls,A,2,4,23,23,11,congruent,Left,Left,Right,38,39,1,yellow,2,6,/home/docky/apps/exp/images/38Yi.jpeg,/home/docky/apps/exp/images/39Y.jpeg,0,0,0,0,0,3,3,3,105.31727533100002,None,105.31727533100002,None,1,6.1795831560002625,105.31727533100002,None,111.53187402999993,None,111.53187402999993,None,114.03343472300003,None,114.03343472300003,None,2.854089045999899,115.837003826,None,115.837003826,None,6,1,1.0362685270001748,118.69219760500073,None,118.69219760500073,None,118.69219760500073,None,119.74485622200064,None,1,0.9020589809997546,119.74485622200064,None,0,120.66335297400019,None,107,A,1,2021_May_21_0928,GazeFlow,2020.1.2,59.89911455681229,
1,Block502.xls,A,2,5,57,57,12,congruent,Right,Right,Left,77,72,5,yellow,2,5,/home/docky/apps/exp/images/77Y.jpeg,/home/docky/apps/exp/images/72Yi.jpeg,0,0,0,0,0,4,4,4,121.66577806100031,None,121.66577806100031,None,1,6.145528686999569,121.66577806100031,None,127.84499539399985,None,127.84499539399985,None,130.34812486300052,None,130.34812486300052,None,2.319656154000768,132.15171966100024,None,132.15171966100024,None,5,1,0.967792487999759,134.4746571810001,None,134.4746571810001,None,134.4746571810001,None,135.458877133,None,1,0.9017626450004173,135.458877133,None,2,136.37725219000004,None,107,A,1,2021_May_21_0928,GazeFlow,2020.1.2,59.89911455681229,
1,Block502.xls,A,2,6,118,58,22,incongruent,Left,Right,Left,80,79,1,yellow,2,5,/home/docky/apps/exp/images/80Yi.jpeg,/home/docky/apps/exp/images/79Y.jpeg,0,0,0,0,0,5,5,5,137.37963566800045,None,137.37963566800045,None,1,4.809518187000322,137.37963566800045,None,142.22303030200055,None,142.22303030200055,None,144.72590813400075,None,144.72590813400075,None,5.87684801100022,146.5293115780005,None,146.5293115780005,None,6,0,1.0678837449995626,152.40931575000013,None,152.40931575000013,None,152.40931575000013,None,153.49375910300023,None,1,0.701685887000167,153.49375910300023,None,0,154.21236601300006,None,107,A,1,2021_May_21_0928,GazeFlow,2020.1.2,59.89911455681229,
1,Block502.xls,A,2,7,101,41,22,incongruent,Left,Right,Left,83,80,3,blue,2,5,/home/docky/apps/exp/images/83Bi.jpeg,/home/docky/apps/exp/images/80B.jpeg,0,0,0,0,0,6,6,6,155.21433520500068,None,155.21433520500068,None,1,4.675934813999447,155.21433520500068,None,159.92410939300044,None,159.92410939300044,None,162.42902076600058,None,162.42902076600058,None,1.9020153089995802,164.2260324200006,None,164.2260324200006,None,5,1,1.0351527940001688,166.1192082080006,None,166.1192082080006,None,166.1192082080006,None,167.17071845100054,None,1,0.7846447510000871,167.17071845100054,None,2,167.97193289000006,None,107,A,1,2021_May_21_0928,GazeFlow,2020.1.2,59.89911455681229,
1,Block502.xls,A,2,8,69,9,21,incongruent,Right,Left,Right,73,76,3,blue,2,6,/home/docky/apps/exp/images/73B.jpeg,/home/docky/apps/exp/images/76Bi.jpeg,0,0,0,0,0,7,7,7,168.9739858160001,None,168.9739858160001,None,1,5.3113895440001215,168.9739858160001,None,174.3215181180003,None,174.3215181180003,None,176.829397427,None,176.829397427,None,3.973133086999951,178.62704317099997,None,178.62704317099997,None,6,1,1.0843217319998075,182.60168097000042,None,182.60168097000042,None,182.60168097000042,None,183.70233803500014,None,1,0.684974339999826,183.70233803500014,None,4,184.40394706799998,None,107,A,1,2021_May_21_0928,GazeFlow,2020.1.2,59.89911455681229,
1,Block502.xls,A,,,,,,,,,,,,,,,,,,0,0,0,0,,,,,,,,,,,,,,,,,,,,,,,,,,,,,,,,,,,,,,,,,,,,107,A,1,2021_May_21_0928,GazeFlow,2020.1.2,59.89911455681229,
2,Block506.xls,A,6,1,120,60,22,incongruent,Left,Right,Left,80,79,1,yellow,2,5,/home/docky/apps/exp/images/80Yi.jpeg,/home/docky/apps/exp/images/79Y.jpeg,0,1,1,1,0,0,0,0,239.93031127700033,None,239.93031127700033,None,1,4.196647707999546,239.93031127700033,None,244.15903573500054,None,244.15903573500054,None,246.67420177300028,None,246.67420177300028,None,0.11477981899952283,248.47778834400015,None,248.47778834400015,None,5,1,1.5559764580002593,248.59230661699985,None,248.59230661699985,None,248.59230661699985,None,250.16501706300005,None,1,1.2188753689997611,250.16501706300005,None,6,251.40070723100052,None,107,A,1,2021_May_21_0928,GazeFlow,2020.1.2,59.89911455681229,
2,Block506.xls,A,6,2,51,51,12,congruent,Right,Right,Left,66,65,1,yellow,2,5,/home/docky/apps/exp/images/66Y.jpeg,/home/docky/apps/exp/images/35Bi.jpeg,0,1,1,1,0,1,1,1,252.40307325499998,None,252.40307325499998,None,1,5.76126811299946,252.40307325499998,None,258.1981346520006,None,258.1981346520006,None,260.6858812290002,None,260.6858812290002,None,0.7499306300005628,262.505148704,None,262.505148704,None,5,1,0.8344467370006896,263.24088487300014,None,263.24088487300014,None,263.24088487300014,None,264.09185050500037,None,1,0.7351882110006045,264.09185050500037,None,8,264.8437842630001,None,107,A,1,2021_May_21_0928,GazeFlow,2020.1.2,59.89911455681229,
2,Block506.xls,A,6,3,119,59,22,incongruent,Left,Right,Left,80,79,1,yellow,2,5,/home/docky/apps/exp/images/80Y.jpeg,/home/docky/apps/exp/images/79Yi.jpeg,0,1,1,1,0,2,2,2,265.8455480390003,None,265.8455480390003,None,1,5.3442179730000134,265.8455480390003,None,271.22337429900017,None,271.22337429900017,None,273.7269114790006,None,273.7269114790006,None,0.21578278499964654,275.52960636199987,None,275.52960636199987,None,5,1,0.9407052599999588,275.7424613250005,None,275.7424613250005,None,275.7424613250005,None,276.69967401300073,None,1,9.118990156999644,276.69967401300073,None,10,285.83464060200004,None,107,A,1,2021_May_21_0928,GazeFlow,2020.1.2,59.89911455681229,
2,Block506.xls,A,6,4,28,28,11,congruent,Left,Left,Right,72,77,5,yellow,2,6,/home/docky/apps/exp/images/72Y.jpeg,/home/docky/apps/exp/images/77Yi.jpeg,0,1,1,1,0,3,3,3,286.8366051339999,None,286.8366051339999,None,1,10.3878906810005,286.8366051339999,None,297.25761292100015,None,297.25761292100015,None,299.7607456860005,None,299.7607456860005,None,0.9172461560001466,301.56399383400003,None,301.56399383400003,None,6,1,1.2424331540005369,302.47749078800007,None,302.47749078800007,None,302.47749078800007,None,303.73606345700045,None,1,1.4361623189997772,303.73606345700045,None,12,305.18883340699995,None,107,A,1,2021_May_21_0928,GazeFlow,2020.1.2,59.89911455681229,
2,Block506.xls,A,6,5,85,25,21,incongruent,Right,Left,Right,69,75,6,yellow,2,6,/home/docky/apps/exp/images/69Y.jpeg,/home/docky/apps/exp/images/76Yi.jpeg,0,1,1,1,0,4,4,4,306.19086521700046,None,306.19086521700046,None,1,9.502002989000175,306.19086521700046,None,315.72659842600024,None,315.72659842600024,None,318.23158052800045,None,318.23158052800045,None,0.615946979999535,320.03510618400014,None,320.03510618400014,None,6,1,2.4211339000003136,320.63572470500003,None,320.63572470500003,None,320.63572470500003,None,323.07311090200074,None,1,1.0688587840004402,323.07311090200074,None,14,324.158505675,None,107,A,1,2021_May_21_0928,GazeFlow,2020.1.2,59.89911455681229,
2,Block506.xls,A,6,6,71,11,21,incongruent,Right,Left,Right,76,79,3,blue,2,6,/home/docky/apps/exp/images/76B.jpeg,/home/docky/apps/exp/images/79Bi.jpeg,0,1,1,1,0,5,5,5,325.1609979499999,None,325.1609979499999,None,1,14.979243093999685,325.1609979499999,None,340.1742666079999,None,340.1742666079999,None,342.6790995040001,None,342.6790995040001,None,0.8332840180000858,344.48082434200023,None,344.48082434200023,None,5,0,1.0851124490000075,345.30007455099985,None,345.30007455099985,None,345.30007455099985,None,346.40198379699996,None,1,0.735147634999521,346.40198379699996,None,12,347.15371878899987,None,107,A,1,2021_May_21_0928,GazeFlow,2020.1.2,59.89911455681229,
2,Block506.xls,A,6,7,56,56,12,congruent,Right,Right,Left,76,69,7,yellow,2,5,/home/docky/apps/exp/images/76Yi.jpeg,/home/docky/apps/exp/images/69Y.jpeg,0,1,1,1,0,6,6,6,348.1552706550001,None,348.1552706550001,None,1,6.19639092000034,348.1552706550001,None,354.38487341200016,None,354.38487341200016,None,356.88980352700037,None,356.88980352700037,None,0.8330418409996128,358.691638667,None,358.691638667,None,5,1,1.034731785999611,359.51126732600005,None,359.51126732600005,None,359.51126732600005,None,360.5625083499999,None,1,0.9360625929994058,360.5625083499999,None,14,361.5148829540003,None,107,A,1,2021_May_21_0928,GazeFlow,2020.1.2,59.89911455681229,
2,Block506.xls,A,6,8,33,33,12,congruent,Right,Right,Left,38,35,3,blue,2,5,/home/docky/apps/exp/images/38B.jpeg,/home/docky/apps/exp/images/35Bi.jpeg,0,1,1,1,0,7,7,7,362.51647747100014,None,362.51647747100014,None,1,7.014746729999388,362.51647747100014,None,369.5647728439999,None,369.5647728439999,None,372.06762745300057,None,372.06762745300057,None,0.7830570079995596,373.870735857,None,373.870735857,None,5,1,1.1181562410001789,374.64075473699995,None,374.64075473699995,None,374.64075473699995,None,375.7756256980001,None,1,0.9524347979995582,375.7756256980001,None,16,376.744511893,None,107,A,1,2021_May_21_0928,GazeFlow,2020.1.2,59.89911455681229,
2,Block506.xls,A,,,,,,,,,,,,,,,,,,0,1,1,1,,,,,,,,,,,,,,,,,,,,,,,,,,,,,,,,,,,,,,,,,,,,107,A,1,2021_May_21_0928,GazeFlow,2020.1.2,59.89911455681229,
3,Block505.xls,A,5,1,1,1,11,congruent,Left,Left,Right,16,19,3,blue,2,6,/home/docky/apps/exp/images/16Bi.jpeg,/home/docky/apps/exp/images/19B.jpeg,0,2,2,2,0,0,0,0,399.82288308600073,None,399.82288308600073,None,1,5.882513171000028,399.82288308600073,None,405.7342030760001,None,405.7342030760001,None,408.2563235060006,None,408.2563235060006,None,0.6823555999999371,410.05862151600013,None,410.05862151600013,None,5,0,0.9849844680002207,410.7273090100007,None,410.7273090100007,None,410.7273090100007,None,411.72860042400043,None,1,1.1363077689993588,411.72860042400043,None,14,412.88122615300017,None,107,A,1,2021_May_21_0928,GazeFlow,2020.1.2,59.89911455681229,
3,Block505.xls,A,5,2,10,10,11,congruent,Left,Left,Right,73,76,3,blue,2,6,/home/docky/apps/exp/images/73B.jpeg,/home/docky/apps/exp/images/76Bi.jpeg,0,2,2,2,0,1,1,1,413.88311202300065,None,413.88311202300065,None,1,5.678517747999649,413.88311202300065,None,419.59338110800036,None,419.59338110800036,None,422.09842798800037,None,422.09842798800037,None,1.1003758269998798,423.90346775299986,None,423.90346775299986,None,5,0,0.9345957499999713,424.9883954020006,None,424.9883954020006,None,424.9883954020006,None,425.93955737600027,None,1,0.7020418709998921,425.93955737600027,None,12,426.658226343,None,107,A,1,2021_May_21_0928,GazeFlow,2020.1.2,59.89911455681229,
3,Block505.xls,A,5,3,95,35,22,incongruent,Left,Right,Left,66,65,1,blue,2,5,/home/docky/apps/exp/images/66B.jpeg,/home/docky/apps/exp/images/35Yi.jpeg,0,2,2,2,0,2,2,2,427.6598084410007,None,427.6598084410007,None,1,5.878787630000261,427.6598084410007,None,433.57208595200063,None,433.57208595200063,None,436.075769952,None,436.075769952,None,1.0334391220003454,437.8804984799999,None,437.8804984799999,None,5,1,1.0349685269993643,438.8986568520004,None,438.8986568520004,None,438.8986568520004,None,439.95009794199996,None,1,0.7691590399999768,439.95009794199996,None,14,440.7354884060005,None,107,A,1,2021_May_21_0928,GazeFlow,2020.1.2,59.89911455681229,
3,Block505.xls,A,5,4,46,46,12,congruent,Right,Right,Left,35,33,2,yellow,2,5,/home/docky/apps/exp/images/35Yi.jpeg,/home/docky/apps/exp/images/33Y.jpeg,0,2,2,2,0,3,3,3,441.73690651500056,None,441.73690651500056,None,1,5.361145107999619,441.73690651500056,None,447.1318069680001,None,447.1318069680001,None,449.6350542099999,None,449.6350542099999,None,0.6496256749996974,451.4378444470003,None,451.4378444470003,None,5,1,0.9682893279996279,452.0742180440002,None,452.0742180440002,None,452.0742180440002,None,453.0588803290002,None,1,1.4194531379998807,453.0588803290002,None,16,454.49512547799986,None,107,A,1,2021_May_21_0928,GazeFlow,2020.1.2,59.89911455681229,
3,Block505.xls,A,5,5,78,18,21,incongruent,Right,Left,Right,65,66,1,yellow,2,6,/home/docky/apps/exp/images/35Bi.jpeg,/home/docky/apps/exp/images/66Y.jpeg,0,2,2,2,0,4,4,4,455.49688281399995,None,455.49688281399995,None,1,4.843508792000648,455.49688281399995,None,460.3725718149999,None,460.3725718149999,None,462.87770810000075,None,462.87770810000075,None,0.9168227760001173,464.68076127400036,None,464.68076127400036,None,6,1,1.2183962469998733,465.5838950420002,None,465.5838950420002,None,465.5838950420002,None,466.81925918600064,None,1,0.5842177520007681,466.81925918600064,None,18,467.4204429930005,None,107,A,1,2021_May_21_0928,GazeFlow,2020.1.2,59.89911455681229,
3,Block505.xls,A,5,6,43,43,12,congruent,Right,Right,Left,83,80,3,blue,2,5,/home/docky/apps/exp/images/83B.jpeg,/home/docky/apps/exp/images/80Bi.jpeg,0,2,2,2,0,5,5,5,468.4226569420007,None,468.4226569420007,None,1,4.49226242000077,468.4226569420007,None,472.9514497070004,None,472.9514497070004,None,475.4519094850002,None,475.4519094850002,None,0.7498906290002196,477.2500930209999,None,477.2500930209999,None,5,1,1.1349744499993903,477.9912942660003,None,477.9912942660003,None,477.9912942660003,None,479.1430532000004,None,1,0.8020616040003006,479.1430532000004,None,20,479.96160896499987,None,107,A,1,2021_May_21_0928,GazeFlow,2020.1.2,59.89911455681229,
3,Block505.xls,A,5,7,44,44,12,congruent,Right,Right,Left,39,38,1,blue,2,5,/home/docky/apps/exp/images/39Bi.jpeg,/home/docky/apps/exp/images/38B.jpeg,0,2,2,2,0,6,6,6,480.9632632720004,None,480.9632632720004,None,1,4.359056068999962,480.9632632720004,None,485.3561146990005,None,485.3561146990005,None,487.86082700800034,None,487.86082700800034,None,0.6993163689994617,489.66473343600046,None,489.66473343600046,None,5,1,1.2184868949998418,490.3486236560002,None,490.3486236560002,None,490.3486236560002,None,491.583778319,None,1,0.8359903119999217,491.583778319,None,22,492.43593620200045,None,107,A,1,2021_May_21_0928,GazeFlow,2020.1.2,59.89911455681229,
3,Block505.xls,A,5,8,116,56,22,incongruent,Left,Right,Left,77,72,5,yellow,2,5,/home/docky/apps/exp/images/77Y.jpeg,/home/docky/apps/exp/images/72Y.jpeg,0,2,2,2,0,7,7,7,493.43752102600047,None,493.43752102600047,None,1,5.962371681999684,493.43752102600047,None,499.4334957250003,None,499.4334957250003,None,501.93813230200067,None,501.93813230200067,None,0.9001037810003254,503.73981129599997,None,503.73981129599997,None,5,1,1.0849128190002375,504.6263665460001,None,504.6263665460001,None,504.6263665460001,None,505.7281741960005,None,1,0.7684478410001248,505.7281741960005,None,24,506.5130238820002,None,107,A,1,2021_May_21_0928,GazeFlow,2020.1.2,59.89911455681229,
3,Block505.xls,A,,,,,,,,,,,,,,,,,,0,2,2,2,,,,,,,,,,,,,,,,,,,,,,,,,,,,,,,,,,,,,,,,,,,,107,A,1,2021_May_21_0928,GazeFlow,2020.1.2,59.89911455681229,
4,Block509.xls,A,9,1,34,34,12,congruent,Right,Right,Left,38,35,3,blue,2,5,/home/docky/apps/exp/images/38Bi.jpeg,/home/docky/apps/exp/images/35B.jpeg,0,3,3,3,0,0,0,0,528.205825262,None,528.205825262,None,1,5.867544280999937,528.205825262,None,534.107472701,None,534.107472701,None,536.6224841080002,None,536.6224841080002,None,0.6989005460000044,538.4259600710002,None,538.4259600710002,None,5,1,1.1517804169998271,539.1100549760004,None,539.1100549760004,None,539.1100549760004,None,540.2783022370004,None,1,15.681602021999424,540.2783022370004,None,26,555.9759805260001,None,107,A,1,2021_May_21_0928,GazeFlow,2020.1.2,59.89911455681229,
4,Block509.xls,A,9,2,7,7,11,congruent,Left,Left,Right,65,66,1,blue,2,6,/home/docky/apps/exp/images/35Yi.jpeg,/home/docky/apps/exp/images/66B.jpeg,0,3,3,3,0,1,1,1,556.9779427560006,None,556.9779427560006,None,1,1.5699996489993282,556.9779427560006,None,558.5815588109999,None,558.5815588109999,None,561.0842032200007,None,561.0842032200007,None,1.2841138929998124,562.8875452850007,None,562.8875452850007,None,6,1,0.9012297830004172,564.1587069450006,None,564.1587069450006,None,564.1587069450006,None,565.0763368260004,None,1,0.7527517210000951,565.0763368260004,None,28,565.845084132,None,107,A,1,2021_May_21_0928,GazeFlow,2020.1.2,59.89911455681229,
4,Block509.xls,A,9,3,74,14,21,incongruent,Right,Left,Right,80,83,3,blue,2,6,/home/docky/apps/exp/images/80B.jpeg,/home/docky/apps/exp/images/83Bi.jpeg,0,3,3,3,0,2,2,2,566.8465049860006,None,566.8465049860006,None,1,3.992377072999261,566.8465049860006,None,570.8723634710004,None,570.8723634710004,None,573.3771647550002,None,573.3771647550002,None,0.6995211640005436,575.17349784,None,575.17349784,None,5,0,1.185269886000242,575.8647103540006,None,575.8647103540006,None,575.8647103540006,None,577.0664634560007,None,1,0.7017690429993308,577.0664634560007,None,26,577.7852753950001,None,107,A,1,2021_May_21_0928,GazeFlow,2020.1.2,59.89911455681229,
4,Block509.xls,A,9,4,19,19,11,congruent,Left,Left,Right,65,66,1,yellow,2,6,/home/docky/apps/exp/images/35Bi.jpeg,/home/docky/apps/exp/images/66Y.jpeg,0,3,3,3,0,3,3,3,578.7864074590007,None,578.7864074590007,None,1,5.14458967399969,578.7864074590007,None,583.9642566070006,None,583.9642566070006,None,586.4670843160002,None,586.4670843160002,None,0.9833894849998615,588.2655029980006,None,588.2655029980006,None,5,0,1.1350545699997383,589.2408322410001,None,589.2408322410001,None,589.2408322410001,None,590.3922595000004,None,1,0.7189395320001495,590.3922595000004,None,24,591.1275061229999,None,107,A,1,2021_May_21_0928,GazeFlow,2020.1.2,59.89911455681229,
4,Block509.xls,A,9,5,60,60,12,congruent,Right,Right,Left,80,79,1,yellow,2,5,/home/docky/apps/exp/images/80Yi.jpeg,/home/docky/apps/exp/images/79Y.jpeg,0,3,3,3,0,4,4,4,592.1291370039999,None,592.1291370039999,None,1,4.643413944000713,592.1291370039999,None,596.8057535779999,None,596.8057535779999,None,599.3090257570002,None,599.3090257570002,None,0.9003952560005928,601.1123870290003,None,601.1123870290003,None,5,1,1.0850560520002546,601.9986348010007,None,601.9986348010007,None,601.9986348010007,None,603.1007002800006,None,1,0.7516415810005128,603.1007002800006,None,26,603.8686253060005,None,107,A,1,2021_May_21_0928,GazeFlow,2020.1.2,59.89911455681229,
4,Block509.xls,A,9,6,83,23,21,incongruent,Right,Left,Right,38,39,1,yellow,2,6,/home/docky/apps/exp/images/38Yi.jpeg,/home/docky/apps/exp/images/39Y.jpeg,0,3,3,3,0,5,5,5,604.8708512740004,None,604.8708512740004,None,1,5.4776897720003035,604.8708512740004,None,610.3824804010001,None,610.3824804010001,None,612.8870423880007,None,612.8870423880007,None,1.2175179599998955,614.6886270120003,None,614.6886270120003,None,5,0,1.034265009999217,615.89263132,None,615.89263132,None,615.89263132,None,616.9443545150007,None,1,0.834983247999844,616.9443545150007,None,24,617.7957163910005,None,107,A,1,2021_May_21_0928,GazeFlow,2020.1.2,59.89911455681229,
4,Block509.xls,A,9,7,4,4,11,congruent,Left,Left,Right,35,38,3,blue,2,6,/home/docky/apps/exp/images/35B.jpeg,/home/docky/apps/exp/images/38Bi.jpeg,0,3,3,3,0,6,6,6,618.7980372750008,None,618.7980372750008,None,1,5.59439592400031,618.7980372750008,None,624.4276323610002,None,624.4276323610002,None,626.9291456000001,None,626.9291456000001,None,0.6827683720002824,628.7345005470006,None,628.7345005470006,None,6,1,1.4857488219995503,629.4020107630004,None,629.4020107630004,None,629.4020107630004,None,630.9044587770004,None,1,1.3527350679996744,630.9044587770004,None,26,632.2735939610002,None,107,A,1,2021_May_21_0928,GazeFlow,2020.1.2,59.89911455681229,
4,Block509.xls,A,9,8,24,24,11,congruent,Left,Left,Right,38,39,1,yellow,2,6,/home/docky/apps/exp/images/38Y.jpeg,/home/docky/apps/exp/images/39Yi.jpeg,0,3,3,3,0,7,7,7,633.2760166220005,None,633.2760166220005,None,1,4.042039162000037,633.2760166220005,None,637.3515349660001,None,637.3515349660001,None,639.8542299320006,None,639.8542299320006,None,0.7662526180001805,641.6571145630005,None,641.6571145630005,None,6,1,1.3522169220004798,642.4108602050001,None,642.4108602050001,None,642.4108602050001,None,643.7795491390007,None,1,0.8187475969998559,643.7795491390007,None,28,644.6149084090002,None,107,A,1,2021_May_21_0928,GazeFlow,2020.1.2,59.89911455681229,
4,Block509.xls,A,,,,,,,,,,,,,,,,,,0,3,3,3,,,,,,,,,,,,,,,,,,,,,,,,,,,,,,,,,,,,,,,,,,,,107,A,1,2021_May_21_0928,GazeFlow,2020.1.2,59.89911455681229,
5,Block504.xls,A,4,1,11,11,11,congruent,Left,Left,Right,73,76,3,blue,2,6,/home/docky/apps/exp/images/73Bi.jpeg,/home/docky/apps/exp/images/76B.jpeg,0,4,4,4,0,0,0,0,663.5356797069999,None,663.5356797069999,None,1,6.787412280999888,663.5356797069999,None,670.3437972709999,None,670.3437972709999,None,672.8704712790004,None,672.8704712790004,None,0.865878299000542,674.6736566400004,None,674.6736566400004,None,6,1,1.051481380000041,675.5250301780006,None,675.5250301780006,None,675.5250301780006,None,676.5930225600005,None,1,0.7182234009997046,676.5930225600005,None,30,677.3278534730007,None,107,A,1,2021_May_21_0928,GazeFlow,2020.1.2,59.89911455681229,
5,Block504.xls,A,4,2,87,27,21,incongruent,Right,Left,Right,72,77,5,yellow,2,6,/home/docky/apps/exp/images/72Y.jpeg,/home/docky/apps/exp/images/77Yi.jpeg,0,4,4,4,0,1,1,1,678.3304310630001,None,678.3304310630001,None,1,3.623826150000241,678.3304310630001,None,681.9880928319999,None,681.9880928319999,None,684.4913636669999,None,684.4913636669999,None,0.9666835400003038,686.288608031,None,686.288608031,None,6,1,1.302373894000084,687.2476533550007,None,687.2476533550007,None,687.2476533550007,None,688.5671661830002,None,1,0.7673678700002711,688.5671661830002,None,32,689.3512860680003,None,107,A,1,2021_May_21_0928,GazeFlow,2020.1.2,59.89911455681229,
5,Block504.xls,A,4,3,48,48,12,congruent,Right,Right,Left,39,38,1,yellow,2,5,/home/docky/apps/exp/images/39Yi.jpeg,/home/docky/apps/exp/images/38Y.jpeg,0,4,4,4,0,2,2,2,690.3531963020005,None,690.3531963020005,None,1,3.925462621999941,690.3531963020005,None,694.309573343,None,694.309573343,None,696.8166577960001,None,696.8166577960001,None,0.6660702230001334,698.6181423730004,None,698.6181423730004,None,6,0,0.11610612499953277,699.2710645780007,None,699.2710645780007,None,699.2710645780007,None,699.4039614470003,None,1,1.7705299859999286,699.4039614470003,None,30,701.1907041980003,None,107,A,1,2021_May_21_0928,GazeFlow,2020.1.2,59.89911455681229,
5,Block504.xls,A,4,4,38,38,12,congruent,Right,Right,Left,79,73,6,blue,2,5,/home/docky/apps/exp/images/79B.jpeg,/home/docky/apps/exp/images/73Bi.jpeg,0,4,4,4,0,3,3,3,702.1928746970007,None,702.1928746970007,None,1,4.709860150000168,702.1928746970007,None,706.9363998550007,None,706.9363998550007,None,709.4413315040001,None,709.4413315040001,None,0.7158524050000779,711.2375941560003,None,711.2375941560003,None,5,1,1.1686033850000968,711.9457093480005,None,711.9457093480005,None,711.9457093480005,None,713.1308321490005,None,1,0.6848083819995736,713.1308321490005,None,32,713.8319948510007,None,107,A,1,2021_May_21_0928,GazeFlow,2020.1.2,59.89911455681229,
5,Block504.xls,A,4,5,2,2,11,congruent,Left,Left,Right,16,19,3,blue,2,6,/home/docky/apps/exp/images/16B.jpeg,/home/docky/apps/exp/images/19Bi.jpeg,0,4,4,4,0,4,4,4,714.8342827800006,None,714.8342827800006,None,1,4.543134241999724,714.8342827800006,None,719.4105883520006,None,719.4105883520006,None,721.9138079490003,None,721.9138079490003,None,0.8162289909996616,723.7176302590005,None,723.7176302590005,None,6,1,1.034795519999534,724.5201287460004,None,724.5201287460004,None,724.5201287460004,None,725.5714571300005,None,1,0.7021633610002027,725.5714571300005,None,34,726.2901190190005,None,107,A,1,2021_May_21_0928,GazeFlow,2020.1.2,59.89911455681229,
5,Block504.xls,A,4,6,73,13,21,incongruent,Right,Left,Right,80,83,3,blue,2,6,/home/docky/apps/exp/images/80Bi.jpeg,/home/docky/apps/exp/images/83B.jpeg,0,4,4,4,0,5,5,5,727.2915434610004,None,727.2915434610004,None,1,5.2275863790000585,727.2915434610004,None,732.5532907639999,None,732.5532907639999,None,735.0559249070002,None,735.0559249070002,None,0.8667253430003257,736.8589007030005,None,736.8589007030005,None,6,1,1.151707437999903,737.7125321190006,None,737.7125321190006,None,737.7125321190006,None,738.8809866709998,None,1,0.6176757759994871,738.8809866709998,None,36,739.515308211,None,107,A,1,2021_May_21_0928,GazeFlow,2020.1.2,59.89911455681229,
5,Block504.xls,A,4,7,63,3,21,incongruent,Right,Left,Right,35,38,3,blue,2,6,/home/docky/apps/exp/images/35B.jpeg,/home/docky/apps/exp/images/38Bi.jpeg,0,4,4,4,0,6,6,6,740.5176684080006,None,740.5176684080006,None,1,3.3736190019999412,740.5176684080006,None,743.9221592869999,None,743.9221592869999,None,746.4276041900002,None,746.4276041900002,None,0.8161914490001436,748.2259630010003,None,748.2259630010003,None,6,1,1.018079415000102,749.0343971500006,None,749.0343971500006,None,749.0343971500006,None,750.069314507,None,1,0.5849203600000692,750.069314507,None,38,750.6707665140002,None,107,A,1,2021_May_21_0928,GazeFlow,2020.1.2,59.89911455681229,
5,Block504.xls,A,4,8,86,26,21,incongruent,Right,Left,Right,72,77,5,yellow,2,6,/home/docky/apps/exp/images/72Yi.jpeg,/home/docky/apps/exp/images/77Y.jpeg,0,4,4,4,0,7,7,7,751.6720835080005,None,751.6720835080005,None,1,3.9587370959998225,751.6720835080005,None,755.6644139610007,None,755.6644139610007,None,758.1736899289999,None,758.1736899289999,None,0.7832105369998317,759.9708991930002,None,759.9708991930002,None,6,1,5.243597536999914,760.7404536040003,None,760.7404536040003,None,760.7404536040003,None,766.0005108490004,None,1,0.8685861390003993,766.0005108490004,None,40,766.8854775070004,None,107,A,1,2021_May_21_0928,GazeFlow,2020.1.2,59.89911455681229,
5,Block504.xls,A,,,,,,,,,,,,,,,,,,0,4,4,4,,,,,,,,,,,,,,,,,,,,,,,,,,,,,,,,,,,,,,,,,,,,107,A,1,2021_May_21_0928,GazeFlow,2020.1.2,59.89911455681229,
6,Block511.xls,A,11,1,15,15,11,congruent,Left,Left,Right,80,83,3,blue,2,6,/home/docky/apps/exp/images/80Bi.jpeg,/home/docky/apps/exp/images/83B.jpeg,0,5,5,5,0,0,0,0,790.9011279550004,None,790.9011279550004,None,1,5.732279371999539,790.9011279550004,None,796.6591918430004,None,796.6591918430004,None,799.1809268520001,None,799.1809268520001,None,0.715569953999875,800.985910374,None,800.985910374,None,5,0,1.218849056000181,801.6866049640003,None,801.6866049640003,None,801.6866049640003,None,802.9219087860001,None,1,0.6684831659995325,802.9219087860001,None,38,803.6067396650005,None,107,A,1,2021_May_21_0928,GazeFlow,2020.1.2,59.89911455681229,
6,Block511.xls,A,11,2,105,45,22,incongruent,Left,Right,Left,39,38,1,blue,2,5,/home/docky/apps/exp/images/39Bi.jpeg,/home/docky/apps/exp/images/38B.jpeg,0,5,5,5,0,1,1,1,804.6085295970006,None,804.6085295970006,None,1,4.309447349000038,804.6085295970006,None,808.9511017640007,None,808.9511017640007,None,811.4543833160005,None,811.4543833160005,None,0.682982477999758,813.2515483460002,None,813.2515483460002,None,6,0,1.0350639700000102,813.927030805,None,813.927030805,None,813.927030805,None,814.9784803640005,None,1,0.5845306090004669,814.9784803640005,None,36,815.5797743480007,None,107,A,1,2021_May_21_0928,GazeFlow,2020.1.2,59.89911455681229,
6,Block511.xls,A,11,3,68,8,21,incongruent,Right,Left,Right,38,39,1,blue,2,6,/home/docky/apps/exp/images/38B.jpeg,/home/docky/apps/exp/images/39Bi.jpeg,0,5,5,5,0,2,2,2,816.5817010830006,None,816.5817010830006,None,1,4.275645299000644,816.5817010830006,None,820.8912892050002,None,820.8912892050002,None,823.3941209310005,None,823.3941209310005,None,1.1836979179997797,825.192243556,None,825.192243556,None,6,1,1.0687603400001535,826.3676512870006,None,826.3676512870006,None,826.3676512870006,None,827.4526981340005,None,1,0.5178388329995869,827.4526981340005,None,38,827.9872358820003,None,107,A,1,2021_May_21_0928,GazeFlow,2020.1.2,59.89911455681229,
6,Block511.xls,A,11,4,80,20,21,incongruent,Right,Left,Right,62,65,3,yellow,2,6,/home/docky/apps/exp/images/38Bi.jpeg,/home/docky/apps/exp/images/35B.jpeg,0,5,5,5,0,3,3,3,828.9890774080004,None,828.9890774080004,None,1,3.540937759999906,828.9890774080004,None,832.563762752,None,832.563762752,None,835.0663276800005,None,835.0663276800005,None,0.649570593000135,836.8698022420003,None,836.8698022420003,None,6,1,0.9010851600005481,837.50622991,None,837.50622991,None,837.50622991,None,838.4239961220001,None,1,0.5679447079992315,838.4239961220001,None,40,839.0087002280006,None,107,A,1,2021_May_21_0928,GazeFlow,2020.1.2,59.89911455681229,
6,Block511.xls,A,11,5,5,5,11,congruent,Left,Left,Right,65,66,1,blue,2,6,/home/docky/apps/exp/images/35Yi.jpeg,/home/docky/apps/exp/images/66B.jpeg,0,5,5,5,0,4,4,4,840.0106467080004,None,840.0106467080004,None,1,3.574140079999779,840.0106467080004,None,843.6186486830002,None,843.6186486830002,None,846.1230671120002,None,846.1230671120002,None,0.7317833730003258,847.9272465780004,None,847.9272465780004,None,5,0,1.185401546000321,848.6442877790005,None,848.6442877790005,None,848.6442877790005,None,849.846224596,None,1,0.6018568600002254,849.846224596,None,38,850.4645457340002,None,107,A,1,2021_May_21_0928,GazeFlow,2020.1.2,59.89911455681229,
6,Block511.xls,A,11,6,18,18,11,congruent,Left,Left,Right,65,66,1,yellow,2,6,/home/docky/apps/exp/images/35B.jpeg,/home/docky/apps/exp/images/66Yi.jpeg,0,5,5,5,0,5,5,5,851.4661214110001,None,851.4661214110001,None,1,5.562045488999502,851.4661214110001,None,857.0675396320003,None,857.0675396320003,None,859.5643079790007,None,859.5643079790007,None,0.6326061549998485,861.3631413140001,None,861.3631413140001,None,6,1,1.0682576019999033,861.9872866760006,None,861.9872866760006,None,861.9872866760006,None,863.0717366570007,None,1,0.5685216870006116,863.0717366570007,None,40,863.6566157340003,None,107,A,1,2021_May_21_0928,GazeFlow,2020.1.2,59.89911455681229,
6,Block511.xls,A,11,7,25,25,11,congruent,Left,Left,Right,69,75,6,yellow,2,6,/home/docky/apps/exp/images/69Yi.jpeg,/home/docky/apps/exp/images/76Y.jpeg,0,5,5,5,0,6,6,6,864.6584081830006,None,864.6584081830006,None,1,3.3744917989997703,864.6584081830006,None,868.0680004690003,None,868.0680004690003,None,870.5685220290006,None,870.5685220290006,None,0.6837690839993229,872.357591078,None,872.357591078,None,6,1,1.3520860509997874,873.0419429250005,None,873.0419429250005,None,873.0419429250005,None,874.4107129889999,None,1,0.4012384799998472,874.4107129889999,None,42,874.8285718430006,None,107,A,1,2021_May_21_0928,GazeFlow,2020.1.2,59.89911455681229,
6,Block511.xls,A,11,8,3,3,11,congruent,Left,Left,Right,35,38,3,blue,2,6,/home/docky/apps/exp/images/35Bi.jpeg,/home/docky/apps/exp/images/38B.jpeg,0,5,5,5,0,7,7,7,875.8300775690004,None,875.8300775690004,None,1,3.1067550960005974,875.8300775690004,None,878.9704474590008,None,878.9704474590008,None,881.4736648590006,None,881.4736648590006,None,1.167391707999741,883.2715559420003,None,883.2715559420003,None,5,0,1.4863179909998507,884.4307746800005,None,884.4307746800005,None,884.4307746800005,None,885.9333079430007,None,1,0.5674812460001704,885.9333079430007,None,40,886.5176866270003,None,107,A,1,2021_May_21_0928,GazeFlow,2020.1.2,59.89911455681229,
6,Block511.xls,A,,,,,,,,,,,,,,,,,,0,5,5,5,,,,,,,,,,,,,,,,,,,,,,,,,,,,,,,,,,,,,,,,,,,,107,A,1,2021_May_21_0928,GazeFlow,2020.1.2,59.89911455681229,
7,Block508.xls,A,8,1,13,13,11,congruent,Left,Left,Right,76,79,3,blue,2,6,/home/docky/apps/exp/images/76Bi.jpeg,/home/docky/apps/exp/images/79B.jpeg,0,6,6,6,0,0,0,0,908.9789893940006,None,908.9789893940006,None,1,5.095530949000022,908.9789893940006,None,914.1001029010004,None,914.1001029010004,None,916.6256831930004,None,916.6256831930004,None,0.7657620560003124,918.4114596469999,None,918.4114596469999,None,6,1,0.9512670879994403,919.164957078,None,919.164957078,None,919.164957078,None,920.1331557829999,None,1,0.5006750540005669,920.1331557829999,None,42,920.6506143639999,None,107,A,1,2021_May_21_0928,GazeFlow,2020.1.2,59.89911455681229,
7,Block508.xls,A,8,2,21,21,11,congruent,Left,Left,Right,62,65,3,yellow,2,6,/home/docky/apps/exp/images/38B.jpeg,/home/docky/apps/exp/images/35Bi.jpeg,0,6,6,6,0,1,1,1,921.6523967720004,None,921.6523967720004,None,1,2.9732673929993325,921.6523967720004,None,924.6592637620006,None,924.6592637620006,None,927.161990347,None,927.161990347,None,0.6666039179999643,928.9659333480004,None,928.9659333480004,None,6,1,0.9850161710000975,929.6185572800005,None,929.6185572800005,None,929.6185572800005,None,930.6198265450003,None,1,0.5010047300002043,930.6198265450003,None,44,931.1374182099999,None,107,A,1,2021_May_21_0928,GazeFlow,2020.1.2,59.89911455681229,
7,Block508.xls,A,8,3,99,39,22,incongruent,Left,Right,Left,79,76,3,blue,2,5,/home/docky/apps/exp/images/79Bi.jpeg,/home/docky/apps/exp/images/76B.jpeg,0,6,6,6,0,2,2,2,932.1394204830003,None,932.1394204830003,None,1,2.9063190980004947,932.1394204830003,None,935.0764712939999,None,935.0764712939999,None,937.5840019730003,None,937.5840019730003,None,0.7331274819998725,939.3843786540001,None,939.3843786540001,None,5,1,1.0348810759996923,940.1057200590003,None,940.1057200590003,None,940.1057200590003,None,941.1569092540003,None,1,0.6016070249997938,941.1569092540003,None,46,941.7755019900005,None,107,A,1,2021_May_21_0928,GazeFlow,2020.1.2,59.89911455681229,
7,Block508.xls,A,8,4,37,37,12,congruent,Right,Right,Left,66,65,1,blue,2,5,/home/docky/apps/exp/images/66Bi.jpeg,/home/docky/apps/exp/images/35Y.jpeg,0,6,6,6,0,3,3,3,942.7768280910004,None,942.7768280910004,None,1,4.0591132509998715,942.7768280910004,None,946.8692275950007,None,946.8692275950007,None,949.3753774950001,None,949.3753774950001,None,0.6993181600000753,951.1697163810004,None,951.1697163810004,None,5,1,1.0513804809997964,951.8618047580003,None,951.8618047580003,None,951.8618047580003,None,952.9298924969999,None,1,0.5183118099994317,952.9298924969999,None,48,953.4645803910007,None,107,A,1,2021_May_21_0928,GazeFlow,2020.1.2,59.89911455681229,
7,Block508.xls,A,8,5,82,22,21,incongruent,Right,Left,Right,38,39,1,yellow,2,6,/home/docky/apps/exp/images/38Y.jpeg,/home/docky/apps/exp/images/39Yi.jpeg,0,6,6,6,0,4,4,4,954.4660698010002,None,954.4660698010002,None,1,5.36184435999985,954.4660698010002,None,959.8611003310007,None,959.8611003310007,None,962.3638698730001,None,962.3638698730001,None,0.8834266139992906,964.1675473320001,None,964.1675473320001,None,6,1,1.0015102770003068,965.0373718360006,None,965.0373718360006,None,965.0373718360006,None,966.0553082690003,None,1,0.4683282940004574,966.0553082690003,None,50,966.5400848039999,None,107,A,1,2021_May_21_0928,GazeFlow,2020.1.2,59.89911455681229,
7,Block508.xls,A,8,6,104,44,22,incongruent,Left,Right,Left,39,38,1,blue,2,5,/home/docky/apps/exp/images/39B.jpeg,/home/docky/apps/exp/images/38Bi.jpeg,0,6,6,6,0,5,5,5,967.5415475730006,None,967.5415475730006,None,1,3.123896457000228,967.5415475730006,None,970.69880268,None,970.69880268,None,973.2068783760005,None,973.2068783760005,None,0.6831178659995203,975.0045281490002,None,975.0045281490002,None,6,0,1.0014327709995996,975.6746563830002,None,975.6746563830002,None,975.6746563830002,None,976.6927714560006,None,1,0.46752954500061605,976.6927714560006,None,48,977.1772149150001,None,107,A,1,2021_May_21_0928,GazeFlow,2020.1.2,59.89911455681229,
7,Block508.xls,A,8,7,39,39,12,congruent,Right,Right,Left,79,73,6,blue,2,5,/home/docky/apps/exp/images/79B.jpeg,/home/docky/apps/exp/images/73Bi.jpeg,0,6,6,6,0,6,6,6,978.1790886520002,None,978.1790886520002,None,1,2.6394267440000476,978.1790886520002,None,980.8535349990007,None,980.8535349990007,None,983.3553235380004,None,983.3553235380004,None,0.7327082620004148,985.1580869050003,None,985.1580869050003,None,5,1,1.051682630999494,985.8777623370006,None,985.8777623370006,None,985.8777623370006,None,986.9458840180005,None,1,0.6519856799995978,986.9458840180005,None,50,987.6143739440004,None,107,A,1,2021_May_21_0928,GazeFlow,2020.1.2,59.89911455681229,
7,Block508.xls,A,8,8,36,36,12,congruent,Right,Right,Left,66,65,1,blue,2,5,/home/docky/apps/exp/images/66B.jpeg,/home/docky/apps/exp/images/35Yi.jpeg,0,6,6,6,0,7,7,7,988.6157024520007,None,988.6157024520007,None,1,5.228147955999702,988.6157024520007,None,993.8769467820002,None,993.8769467820002,None,996.3801689340007,None,996.3801689340007,None,0.6827924680001161,998.1781591360004,None,998.1781591360004,None,5,1,3.5405335590003233,998.853096543,None,998.853096543,None,998.853096543,None,1002.4098184750001,None,1,0.617833088000225,1002.4098184750001,None,52,1003.0444895640003,None,107,A,1,2021_May_21_0928,GazeFlow,2020.1.2,59.89911455681229,
7,Block508.xls,A,,,,,,,,,,,,,,,,,,0,6,6,6,,,,,,,,,,,,,,,,,,,,,,,,,,,,,,,,,,,,,,,,,,,,107,A,1,2021_May_21_0928,GazeFlow,2020.1.2,59.89911455681229,
8,Block510.xls,A,10,1,102,42,22,incongruent,Left,Right,Left,83,80,3,blue,2,5,/home/docky/apps/exp/images/83B.jpeg,/home/docky/apps/exp/images/80Bi.jpeg,0,7,7,7,0,0,0,0,1029.94666796,None,1029.94666796,None,1,4.117941215999963,1029.94666796,None,1034.0897142150006,None,1034.0897142150006,None,1036.608718296,None,1036.608718296,None,0.8328997540002092,1038.4111898760002,None,1038.4111898760002,None,5,1,2.838329053999587,1039.2314361200006,None,1039.2314361200006,None,1039.2314361200006,None,1042.0863952420004,None,1,1.0354913249993842,1042.0863952420004,None,54,1043.1385573390007,None,107,A,1,2021_May_21_0928,GazeFlow,2020.1.2,59.89911455681229,
8,Block510.xls,A,10,2,114,54,22,incongruent,Left,Right,Left,76,69,7,yellow,2,5,/home/docky/apps/exp/images/76Yi.jpeg,/home/docky/apps/exp/images/69Y.jpeg,0,7,7,7,0,1,1,1,1044.140965478,None,1044.140965478,None,1,4.608995880999828,1044.140965478,None,1048.7818597700007,None,1048.7818597700007,None,1051.286846735,None,1051.286846735,None,0.8161744449998878,1053.0904754560006,None,1053.0904754560006,None,5,1,1.151598730999467,1053.8933850060002,None,1053.8933850060002,None,1053.8933850060002,None,1055.0615439890007,None,1,0.9858556130002398,1055.0615439890007,None,56,1056.064021569,None,107,A,1,2021_May_21_0928,GazeFlow,2020.1.2,59.89911455681229,
8,Block510.xls,A,10,3,72,12,21,incongruent,Right,Left,Right,76,79,3,blue,2,6,/home/docky/apps/exp/images/76Bi.jpeg,/home/docky/apps/exp/images/79B.jpeg,0,7,7,7,0,2,2,2,1057.0655905210006,None,1057.0655905210006,None,1,3.9249863960003495,1057.0655905210006,None,1061.0280352620002,None,1061.0280352620002,None,1063.5291375200004,None,1063.5291375200004,None,0.6662859039997784,1065.3256600290006,None,1065.3256600290006,None,6,1,1.201925516999836,1065.9834931670002,None,1065.9834931670002,None,1065.9834931670002,None,1067.2017062710001,None,1,0.7685629309999058,1067.2017062710001,None,58,1067.9866988510003,None,107,A,1,2021_May_21_0928,GazeFlow,2020.1.2,59.89911455681229,
8,Block510.xls,A,10,4,112,52,22,incongruent,Left,Right,Left,75,69,6,yellow,2,5,/home/docky/apps/exp/images/76Y.jpeg,/home/docky/apps/exp/images/69Yi.jpeg,0,7,7,7,0,3,3,3,1068.989015176,None,1068.989015176,None,1,4.676176146000216,1068.989015176,None,1073.6987930940004,None,1073.6987930940004,None,1076.2014706549999,None,1076.2014706549999,None,1.0504421339992405,1078.005235529,None,1078.005235529,None,5,1,0.26680991000012,1079.042209315,None,1079.042209315,None,1079.042209315,None,1079.3255438800006,None,1,3.8584321819998877,1079.3255438800006,None,60,1083.2000827110005,None,107,A,1,2021_May_21_0928,GazeFlow,2020.1.2,59.89911455681229,
8,Block510.xls,A,10,5,17,17,11,congruent,Left,Left,Right,33,35,2,yellow,2,6,/home/docky/apps/exp/images/33Y.jpeg,/home/docky/apps/exp/images/35Yi.jpeg,0,7,7,7,0,4,4,4,1084.2020594120004,None,1084.2020594120004,None,1,4.392153345999759,1084.2020594120004,None,1088.628023444,None,1088.628023444,None,1091.1329118530002,None,1091.1329118530002,None,0.6829134209992844,1092.9362064770003,None,1092.9362064770003,None,6,1,1.0180348740004774,1093.6039079760003,None,1093.6039079760003,None,1093.6039079760003,None,1094.6386483940005,None,1,0.6177331890003188,1094.6386483940005,None,62,1095.2730488380002,None,107,A,1,2021_May_21_0928,GazeFlow,2020.1.2,59.89911455681229,
8,Block510.xls,A,10,6,31,31,12,congruent,Right,Right,Left,19,16,3,blue,2,5,/home/docky/apps/exp/images/19Bi.jpeg,/home/docky/apps/exp/images/16B.jpeg,0,7,7,7,0,5,5,5,1096.2748946270003,None,1096.2748946270003,None,1,2.539562016999298,1096.2748946270003,None,1098.8479626150001,None,1098.8479626150001,None,1101.3526122990006,None,1101.3526122990006,None,0.6496660200000406,1103.1545621280002,None,1103.1545621280002,None,5,1,1.101656754999567,1103.7902525790005,None,1103.7902525790005,None,1103.7902525790005,None,1104.908443792,None,1,0.651983151999957,1104.908443792,None,64,1105.5768852850006,None,107,A,1,2021_May_21_0928,GazeFlow,2020.1.2,59.89911455681229,
8,Block510.xls,A,10,7,61,1,21,incongruent,Right,Left,Right,16,19,3,blue,2,6,/home/docky/apps/exp/images/16Bi.jpeg,/home/docky/apps/exp/images/19B.jpeg,0,7,7,7,0,6,6,6,1106.5786504799999,None,1106.5786504799999,None,1,5.895293352000408,1106.5786504799999,None,1112.5078260680002,None,1112.5078260680002,None,1115.0125224190006,None,1115.0125224190006,None,0.7496203089995106,1116.8136631630005,None,1116.8136631630005,None,6,1,0.9347781329997815,1117.5502291560006,None,1117.5502291560006,None,1117.5502291560006,None,1118.5017147690005,None,1,0.517847969000286,1118.5017147690005,None,66,1119.0360072080002,None,107,A,1,2021_May_21_0928,GazeFlow,2020.1.2,59.89911455681229,
8,Block510.xls,A,10,8,94,34,22,incongruent,Left,Right,Left,38,35,3,blue,2,5,/home/docky/apps/exp/images/38Bi.jpeg,/home/docky/apps/exp/images/35B.jpeg,0,7,7,7,0,7,7,7,1120.037836935,None,1120.037836935,None,1,3.457958130999941,1120.037836935,None,1123.5291939170002,None,1123.5291939170002,None,1126.038563186,None,1126.038563186,None,0.6494993759997669,1127.8372165660003,None,1127.8372165660003,None,5,1,1.1351838509999652,1128.471489953,None,1128.471489953,None,1128.471489953,None,1129.6234270510004,None,1,0.6353728949998185,1129.6234270510004,None,68,1130.2748106590007,None,107,A,1,2021_May_21_0928,GazeFlow,2020.1.2,59.89911455681229,
8,Block510.xls,A,,,,,,,,,,,,,,,,,,0,7,7,7,,,,,,,,,,,,,,,,,,,,,,,,,,,,,,,,,,,,,,,,,,,,107,A,1,2021_May_21_0928,GazeFlow,2020.1.2,59.89911455681229,
9,Block507.xls,A,7,1,110,50,22,incongruent,Left,Right,Left,66,65,1,yellow,2,5,/home/docky/apps/exp/images/66Y.jpeg,/home/docky/apps/exp/images/35Bi.jpeg,0,8,8,8,0,0,0,0,1156.2944807580006,None,1156.2944807580006,None,1,5.418449492000036,1156.2944807580006,None,1161.7356803500006,None,1161.7356803500006,None,1164.2571968700004,None,1164.2571968700004,None,12.88981178799986,1166.0601313780007,None,1166.0601313780007,None,6,0,0.45033616599994275,1178.9536009009998,None,1178.9536009009998,None,1178.9536009009998,None,1179.4200906390006,None,1,3.9247767990000284,1179.4200906390006,None,66,1183.36126676,None,107,A,1,2021_May_21_0928,GazeFlow,2020.1.2,59.89911455681229,
9,Block507.xls,A,7,2,90,30,22,incongruent,Right,Left,Right,16,19,3,blue,2,6,/home/docky/apps/exp/images/16Bi.jpeg,/home/docky/apps/exp/images/19B.jpeg,0,8,8,8,0,1,1,1,1184.3632914190002,None,1184.3632914190002,None,1,4.9932958849994975,1184.3632914190002,None,1189.3903081560002,None,1189.3903081560002,None,1191.895074311,None,1191.895074311,None,1.0169427680002627,1193.6962920390006,None,1193.6962920390006,None,6,1,1.084624047000034,1194.7004083460006,None,1194.7004083460006,None,1194.7004083460006,None,1195.8018501770002,None,1,0.8186696129996562,1195.8018501770002,None,68,1196.6368065180004,None,107,A,1,2021_May_21_0928,GazeFlow,2020.1.2,59.89911455681229,
9,Block507.xls,A,7,3,16,16,11,congruent,Left,Left,Right,33,35,2,yellow,2,6,/home/docky/apps/exp/images/33Yi.jpeg,/home/docky/apps/exp/images/35Y.jpeg,0,8,8,8,0,2,2,2,1197.6386008079999,None,1197.6386008079999,None,1,5.010908293000284,1197.6386008079999,None,1202.682865621,None,1202.682865621,None,1205.1873820810006,None,1205.1873820810006,None,1.0671958120001364,1206.989083681,None,1206.989083681,None,6,1,1.06861549200039,1208.0428315670006,None,1208.0428315670006,None,1208.0428315670006,None,1209.1277295640002,None,1,0.6521875959997487,1209.1277295640002,None,70,1209.7960564570003,None,107,A,1,2021_May_21_0928,GazeFlow,2020.1.2,59.89911455681229,
9,Block507.xls,A,7,4,117,57,22,incongruent,Left,Right,Left,77,72,5,yellow,2,5,/home/docky/apps/exp/images/77Y.jpeg,/home/docky/apps/exp/images/72Yi.jpeg,0,8,8,8,0,3,3,3,1210.7977711990006,None,1210.7977711990006,None,1,3.64099092700053,1210.7977711990006,None,1214.471880094,None,1214.471880094,None,1216.978685086,None,1216.978685086,None,0.999988712999766,1218.779143281,None,1218.779143281,None,5,1,1.0180498529998658,1219.7656393910001,None,1219.7656393910001,None,1219.7656393910001,None,1220.800580651,None,1,0.650953051000215,1220.800580651,None,72,1221.4679430570004,None,107,A,1,2021_May_21_0928,GazeFlow,2020.1.2,59.89911455681229,
9,Block507.xls,A,7,5,53,53,12,congruent,Right,Right,Left,75,69,6,yellow,2,5,/home/docky/apps/exp/images/76Yi.jpeg,/home/docky/apps/exp/images/69Y.jpeg,0,8,8,8,0,4,4,4,1222.470695979,None,1222.470695979,None,1,4.8096069319999515,1222.470695979,None,1227.313956342,None,1227.313956342,None,1229.8172051000001,None,1229.8172051000001,None,0.9330760809998537,1231.6207034039999,None,1231.6207034039999,None,5,1,1.1851144950005619,1232.540399773,None,1232.540399773,None,1232.540399773,None,1233.7421644980004,None,1,0.6857086299996809,1233.7421644980004,None,74,1234.443930761,None,107,A,1,2021_May_21_0928,GazeFlow,2020.1.2,59.89911455681229,
9,Block507.xls,A,7,6,96,36,22,incongruent,Left,Right,Left,66,65,1,blue,2,5,/home/docky/apps/exp/images/66Bi.jpeg,/home/docky/apps/exp/images/35Y.jpeg,0,8,8,8,0,5,5,5,1235.4453346500004,None,1235.4453346500004,None,1,5.093973338000069,1235.4453346500004,None,1240.573340856,None,1240.573340856,None,1243.0779280780007,None,1243.0779280780007,None,1.0169182419995195,1244.8801197580005,None,1244.8801197580005,None,5,1,1.3188706490000186,1245.882909379,None,1245.882909379,None,1245.882909379,None,1247.2183049129999,None,1,0.6347664960003385,1247.2183049129999,None,76,1247.8697441590002,None,107,A,1,2021_May_21_0928,GazeFlow,2020.1.2,59.89911455681229,
9,Block507.xls,A,7,7,58,58,12,congruent,Right,Right,Left,77,72,5,yellow,2,5,/home/docky/apps/exp/images/77Yi.jpeg,/home/docky/apps/exp/images/72Y.jpeg,0,8,8,8,0,6,6,6,1248.8714883800003,None,1248.8714883800003,None,1,5.428459669999938,1248.8714883800003,None,1254.338347254,None,1254.338347254,None,1256.8359497990004,None,1256.8359497990004,None,1.0505599130001428,1258.64143177,None,1258.64143177,None,5,1,1.085185220999847,1259.6762227360005,None,1259.6762227360005,None,1259.6762227360005,None,1260.7779857120004,None,1,0.7187332519997653,1260.7779857120004,None,78,1261.5131380100001,None,107,A,1,2021_May_21_0928,GazeFlow,2020.1.2,59.89911455681229,
9,Block507.xls,A,7,8,41,41,12,congruent,Right,Right,Left,79,76,3,blue,2,5,/home/docky/apps/exp/images/79Bi.jpeg,/home/docky/apps/exp/images/76B.jpeg,0,8,8,8,0,7,7,7,1262.5146152410007,None,1262.5146152410007,None,1,4.576334039000358,1262.5146152410007,None,1267.124704209,None,1267.124704209,None,1269.6296248910003,None,1269.6296248910003,None,1.1172852560002866,1271.4330956070007,None,1271.4330956070007,None,5,1,1.168838532999871,1272.5350136060006,None,1272.5350136060006,None,1272.5350136060006,None,1273.7200386290006,None,1,0.8683373690000735,1273.7200386290006,None,80,1274.6048305410004,None,107,A,1,2021_May_21_0928,GazeFlow,2020.1.2,59.89911455681229,
9,Block507.xls,A,,,,,,,,,,,,,,,,,,0,8,8,8,,,,,,,,,,,,,,,,,,,,,,,,,,,,,,,,,,,,,,,,,,,,107,A,1,2021_May_21_0928,GazeFlow,2020.1.2,59.89911455681229,
10,Block515.xls,A,15,1,107,47,22,incongruent,Left,Right,Left,35,33,2,yellow,2,5,/home/docky/apps/exp/images/35Yi.jpeg,/home/docky/apps/exp/images/33Y.jpeg,0,9,9,9,0,0,0,0,1294.5616826160003,None,1294.5616826160003,None,1,4.331566663000558,1294.5616826160003,None,1298.9247813580005,None,1298.9247813580005,None,1301.4414121520003,None,1301.4414121520003,None,0.7995821869999418,1303.2394374900005,None,1303.2394374900005,None,6,0,1.1018444169994837,1304.0293736940002,None,1304.0293736940002,None,1304.0293736940002,None,1305.1473617190004,None,1,0.5522254920006162,1305.1473617190004,None,78,1305.7159447110007,None,107,A,1,2021_May_21_0928,GazeFlow,2020.1.2,59.89911455681229,
10,Block515.xls,A,15,2,55,55,12,congruent,Right,Right,Left,76,69,7,yellow,2,5,/home/docky/apps/exp/images/76Yi.jpeg,/home/docky/apps/exp/images/69Y.jpeg,0,9,9,9,0,1,1,1,1306.717316884,None,1306.717316884,None,1,3.875316298999678,1306.717316884,None,1310.626607534,None,1310.626607534,None,1313.1287291690005,None,1313.1287291690005,None,0.9165787570000248,1314.9313339589999,None,1314.9313339589999,None,5,1,1.2687279069996293,1315.8355752940006,None,1315.8355752940006,None,1315.8355752940006,None,1317.1206533720006,None,1,0.6189848559997699,1317.1206533720006,None,80,1317.7557804120006,None,107,A,1,2021_May_21_0928,GazeFlow,2020.1.2,59.89911455681229,
10,Block515.xls,A,15,3,75,15,21,incongruent,Right,Left,Right,33,35,2,yellow,2,6,/home/docky/apps/exp/images/33Yi.jpeg,/home/docky/apps/exp/images/35Y.jpeg,0,9,9,9,0,2,2,2,1318.7574812490002,None,1318.7574812490002,None,1,3.8744910360001086,1318.7574812490002,None,1322.6660340650005,None,1322.6660340650005,None,1325.170083084,None,1325.170083084,None,1.0003316349993838,1326.971822847,None,1326.971822847,None,5,0,1.1185287669995887,1327.9592102300003,None,1327.9592102300003,None,1327.9592102300003,None,1329.0939803350002,None,1,0.6186758339999869,1329.0939803350002,None,78,1329.728946327,None,107,A,1,2021_May_21_0928,GazeFlow,2020.1.2,59.89911455681229,
10,Block515.xls,A,15,4,62,2,21,incongruent,Right,Left,Right,35,38,3,blue,2,6,/home/docky/apps/exp/images/35Bi.jpeg,/home/docky/apps/exp/images/38B.jpeg,0,9,9,9,0,3,3,3,1330.7307523700001,None,1330.7307523700001,None,1,3.3236036359994614,1330.7307523700001,None,1334.088065641,None,1334.088065641,None,1336.5911091440003,None,1336.5911091440003,None,1.1840803909999522,1338.396493663,None,1338.396493663,None,5,0,1.0351204640001015,1339.5650932340004,None,1339.5650932340004,None,1339.5650932340004,None,1340.6162019530002,None,1,2.204835389999971,1340.6162019530002,None,76,1342.8375140790004,None,107,A,1,2021_May_21_0928,GazeFlow,2020.1.2,59.89911455681229,
10,Block515.xls,A,15,5,100,40,22,incongruent,Left,Right,Left,79,76,3,blue,2,5,/home/docky/apps/exp/images/79Bi.jpeg,/home/docky/apps/exp/images/76B.jpeg,0,9,9,9,0,4,4,4,1343.8398423980007,None,1343.8398423980007,None,1,4.108206007999797,1343.8398423980007,None,1347.9819055100006,None,1347.9819055100006,None,1350.4842103360006,None,1350.4842103360006,None,1.0002375249996476,1352.2830064560003,None,1352.2830064560003,None,5,1,1.1514696790000016,1353.275105789,None,1353.275105789,None,1353.275105789,None,1354.4433570330002,None,1,0.5512481199993999,1354.4433570330002,None,78,1355.0114293750003,None,107,A,1,2021_May_21_0928,GazeFlow,2020.1.2,59.89911455681229,
10,Block515.xls,A,15,6,108,48,22,incongruent,Left,Right,Left,39,38,1,yellow,2,5,/home/docky/apps/exp/images/39Y.jpeg,/home/docky/apps/exp/images/38Yi.jpeg,0,9,9,9,0,5,5,5,1356.0129252530005,None,1356.0129252530005,None,1,5.445078744000057,1356.0129252530005,None,1361.4914232930005,None,1361.4914232930005,None,1363.994333062,None,1363.994333062,None,1.2840939810002965,1365.7976256310003,None,1365.7976256310003,None,6,0,1.0515454440001122,1367.0684013119999,None,1367.0684013119999,None,1367.0684013119999,None,1368.1365313490005,None,1,0.5682201870004064,1368.1365313490005,None,76,1368.7213346910003,None,107,A,1,2021_May_21_0928,GazeFlow,2020.1.2,59.89911455681229,
10,Block515.xls,A,15,7,59,59,12,congruent,Right,Right,Left,80,79,1,yellow,2,5,/home/docky/apps/exp/images/80Y.jpeg,/home/docky/apps/exp/images/79Yi.jpeg,0,9,9,9,0,6,6,6,1369.7231509460007,None,1369.7231509460007,None,1,4.192499830999623,1369.7231509460007,None,1373.9488721850003,None,1373.9488721850003,None,1376.453953026,None,1376.453953026,None,0.9167360439996628,1378.2497881630006,None,1378.2497881630006,None,5,1,1.0185230630004298,1379.1583556530004,None,1379.1583556530004,None,1379.1583556530004,None,1380.1932434670007,None,1,0.5517866179998236,1380.1932434670007,None,78,1380.7614605850003,None,107,A,1,2021_May_21_0928,GazeFlow,2020.1.2,59.89911455681229,
10,Block515.xls,A,15,8,8,8,11,congruent,Left,Left,Right,38,39,1,blue,2,6,/home/docky/apps/exp/images/38B.jpeg,/home/docky/apps/exp/images/39Bi.jpeg,0,9,9,9,0,7,7,7,1381.7631636810002,None,1381.7631636810002,None,1,4.776306804000342,1381.7631636810002,None,1386.5733195440007,None,1386.5733195440007,None,1389.0763290210007,None,1389.0763290210007,None,0.9834698780005056,1390.8792732460006,None,1390.8792732460006,None,5,0,1.0849485499993534,1391.849727623,None,1391.849727623,None,1391.849727623,None,1392.95149365,None,1,0.4849221399999806,1392.95149365,None,76,1393.4528492570007,None,107,A,1,2021_May_21_0928,GazeFlow,2020.1.2,59.89911455681229,
10,Block515.xls,A,,,,,,,,,,,,,,,,,,0,9,9,9,,,,,,,,,,,,,,,,,,,,,,,,,,,,,,,,,,,,,,,,,,,,107,A,1,2021_May_21_0928,GazeFlow,2020.1.2,59.89911455681229,
11,Block512.xls,A,12,1,30,30,11,congruent,Left,Left,Right,79,82,3,yellow,2,6,/home/docky/apps/exp/images/79Yi.jpeg,/home/docky/apps/exp/images/80Y.jpeg,0,10,10,10,0,0,0,0,1415.5630883459999,None,1415.5630883459999,None,1,5.314107839999451,1415.5630883459999,None,1420.9029619080002,None,1420.9029619080002,None,1423.4282887170002,None,1423.4282887170002,None,0.7657465689999299,1425.2086534210002,None,1425.2086534210002,None,5,0,1.268841156000235,1425.9661287930003,None,1425.9661287930003,None,1425.9661287930003,None,1427.251640462,None,1,0.5517483350004113,1427.251640462,None,74,1427.819595854,None,107,A,1,2021_May_21_0928,GazeFlow,2020.1.2,59.89911455681229,
11,Block512.xls,A,12,2,115,55,22,incongruent,Left,Right,Left,76,69,7,yellow,2,5,/home/docky/apps/exp/images/76Yi.jpeg,/home/docky/apps/exp/images/69Y.jpeg,0,10,10,10,0,1,1,1,1428.8211871000003,None,1428.8211871000003,None,1,4.45930417100044,1428.8211871000003,None,1433.3142074800007,None,1433.3142074800007,None,1435.8169151010006,None,1435.8169151010006,None,1.0167257560005964,1437.622750601,None,1437.622750601,None,5,1,1.2186197180008094,1438.6241005470001,None,1438.6241005470001,None,1438.6241005470001,None,1439.8592659320002,None,1,0.4849524000001111,1439.8592659320002,None,76,1440.3605063800005,None,107,A,1,2021_May_21_0928,GazeFlow,2020.1.2,59.89911455681229,
11,Block512.xls,A,12,3,66,6,21,incongruent,Right,Left,Right,38,39,1,blue,2,6,/home/docky/apps/exp/images/38B.jpeg,/home/docky/apps/exp/images/39Bi.jpeg,0,10,10,10,0,2,2,2,1441.3623005150002,None,1441.3623005150002,None,1,4.459634952999295,1441.3623005150002,None,1445.8554241480006,None,1445.8554241480006,None,1448.359904211,None,1448.359904211,None,1.0002417859996058,1450.16136869,None,1450.16136869,None,6,1,1.0348148010007208,1451.1483969950004,None,1451.1483969950004,None,1451.1483969950004,None,1452.1997837970002,None,1,0.45198890100073186,1452.1997837970002,None,78,1452.6678130290002,None,107,A,1,2021_May_21_0928,GazeFlow,2020.1.2,59.89911455681229,
11,Block512.xls,A,12,4,35,35,12,congruent,Right,Right,Left,66,65,1,blue,2,5,/home/docky/apps/exp/images/66B.jpeg,/home/docky/apps/exp/images/35Yi.jpeg,0,10,10,10,0,3,3,3,1453.6694798940007,None,1453.6694798940007,None,1,3.1901576290001685,1453.6694798940007,None,1456.8968910100002,None,1456.8968910100002,None,1459.3965700810004,None,1459.3965700810004,None,0.9834891180007617,1461.1954179350005,None,1461.1954179350005,None,5,1,1.0350385350002398,1462.1697099980001,None,1462.1697099980001,None,1462.1697099980001,None,1463.2211541920005,None,1,0.5513271709996843,1463.2211541920005,None,80,1463.788863961,None,107,A,1,2021_May_21_0928,GazeFlow,2020.1.2,59.89911455681229,
11,Block512.xls,A,12,5,40,40,12,congruent,Right,Right,Left,79,76,3,blue,2,5,/home/docky/apps/exp/images/79Bi.jpeg,/home/docky/apps/exp/images/76B.jpeg,0,10,10,10,0,4,4,4,1464.7909559830005,None,1464.7909559830005,None,1,4.57678344300075,1464.7909559830005,None,1469.401139138,None,1469.401139138,None,1471.9039107180006,None,1471.9039107180006,None,1.0167968329997166,1473.707125068,None,1473.707125068,None,5,1,1.0351737589999175,1474.7108632770005,None,1474.7108632770005,None,1474.7108632770005,None,1475.7619401760003,None,1,0.5351627199997893,1475.7619401760003,None,82,1476.3140446520001,None,107,A,1,2021_May_21_0928,GazeFlow,2020.1.2,59.89911455681229,
11,Block512.xls,A,12,6,64,4,21,incongruent,Right,Left,Right,65,66,1,blue,2,6,/home/docky/apps/exp/images/35Yi.jpeg,/home/docky/apps/exp/images/66B.jpeg,0,10,10,10,0,5,5,5,1477.3151110930003,None,1477.3151110930003,None,1,4.827010019000227,1477.3151110930003,None,1482.1759083850002,None,1482.1759083850002,None,1484.6791512,None,1484.6791512,None,0.9834003579999262,1486.4824982590007,None,1486.4824982590007,None,5,0,1.118400907999785,1487.4523519160002,None,1487.4523519160002,None,1487.4523519160002,None,1488.5873223460003,None,1,0.48461654000038834,1488.5873223460003,None,80,1489.0886991300004,None,107,A,1,2021_May_21_0928,GazeFlow,2020.1.2,59.89911455681229,
11,Block512.xls,A,12,7,12,12,11,congruent,Left,Left,Right,76,79,3,blue,2,6,/home/docky/apps/exp/images/76B.jpeg,/home/docky/apps/exp/images/79Bi.jpeg,0,10,10,10,0,6,6,6,1490.0903709040003,None,1490.0903709040003,None,1,4.876601216999916,1490.0903709040003,None,1494.9991114370005,None,1494.9991114370005,None,1497.5040861220004,None,1497.5040861220004,None,0.7485048770004141,1499.3030023330002,None,1499.3030023330002,None,6,1,1.2686609000002136,1500.0433095360004,None,1500.0433095360004,None,1500.0433095360004,None,1501.328670629,None,1,0.4012534510002297,1501.328670629,None,82,1501.746050543,None,107,A,1,2021_May_21_0928,GazeFlow,2020.1.2,59.89911455681229,
11,Block512.xls,A,12,8,49,49,12,congruent,Right,Right,Left,39,38,1,yellow,2,5,/home/docky/apps/exp/images/39Y.jpeg,/home/docky/apps/exp/images/38Yi.jpeg,0,10,10,10,0,7,7,7,1502.748331703,None,1502.748331703,None,1,3.2232138979998126,1502.748331703,None,1506.0039629130006,None,1506.0039629130006,None,1508.5162242870001,None,1508.5162242870001,None,0.8833285979999346,1510.3067452620007,None,1510.3067452620007,None,5,1,1.0515569710005366,1511.1816266230007,None,1511.1816266230007,None,1511.1816266230007,None,1512.2499878360004,None,1,0.5520622550002372,1512.2499878360004,None,84,1512.8179824730005,None,107,A,1,2021_May_21_0928,GazeFlow,2020.1.2,59.89911455681229,
11,Block512.xls,A,,,,,,,,,,,,,,,,,,0,10,10,10,,,,,,,,,,,,,,,,,,,,,,,,,,,,,,,,,,,,,,,,,,,,107,A,1,2021_May_21_0928,GazeFlow,2020.1.2,59.89911455681229,
12,Block503.xls,A,3,1,22,22,11,congruent,Left,Left,Right,62,65,3,yellow,2,6,/home/docky/apps/exp/images/38Bi.jpeg,/home/docky/apps/exp/images/35B.jpeg,0,11,11,11,0,0,0,0,1532.957985342,None,1532.957985342,None,1,4.361356057999728,1532.957985342,None,1537.3475872970002,None,1537.3475872970002,None,1539.8713443280003,None,1539.8713443280003,None,0.93252769099945,1541.658256617,None,1541.658256617,None,6,1,1.0516124480000144,1542.5760166150003,None,1542.5760166150003,None,1542.5760166150003,None,1543.6441710200006,None,1,0.40173403899916593,1543.6441710200006,None,86,1544.061939229,None,107,A,1,2021_May_21_0928,GazeFlow,2020.1.2,59.89911455681229,
12,Block503.xls,A,3,2,65,5,21,incongruent,Right,Left,Right,65,66,1,blue,2,6,/home/docky/apps/exp/images/35Y.jpeg,/home/docky/apps/exp/images/66Bi.jpeg,0,11,11,11,0,1,1,1,1545.0636134450006,None,1545.0636134450006,None,1,4.477157626000007,1545.0636134450006,None,1549.5737916950002,None,1549.5737916950002,None,1552.0762016300005,None,1552.0762016300005,None,0.8496922109998195,1553.8796396980006,None,1553.8796396980006,None,5,0,1.0517111400004069,1554.7160151140006,None,1554.7160151140006,None,1554.7160151140006,None,1555.784287382,None,1,0.5183968849996745,1555.784287382,None,84,1556.3190880770007,None,107,A,1,2021_May_21_0928,GazeFlow,2020.1.2,59.89911455681229,
12,Block503.xls,A,3,3,76,16,21,incongruent,Right,Left,Right,33,35,2,yellow,2,6,/home/docky/apps/exp/images/33Y.jpeg,/home/docky/apps/exp/images/35Yi.jpeg,0,11,11,11,0,2,2,2,1557.320515382,None,1557.320515382,None,1,4.008683105000273,1557.320515382,None,1561.363162906,None,1561.363162906,None,1563.8654626650005,None,1563.8654626650005,None,0.9835148249994745,1565.6690674790007,None,1565.6690674790007,None,6,1,1.251989577999666,1566.6392837980002,None,1566.6392837980002,None,1566.6392837980002,None,1567.9078200040003,None,1,0.45175121600004786,1567.9078200040003,None,86,1568.3761579050006,None,107,A,1,2021_May_21_0928,GazeFlow,2020.1.2,59.89911455681229,
12,Block503.xls,A,3,4,29,29,11,congruent,Left,Left,Right,79,82,3,yellow,2,6,/home/docky/apps/exp/images/79Y.jpeg,/home/docky/apps/exp/images/80Yi.jpeg,0,11,11,11,0,3,3,3,1569.3776940280004,None,1569.3776940280004,None,1,3.8245422549998693,1569.3776940280004,None,1573.2360174340001,None,1573.2360174340001,None,1575.739256461,None,1575.739256461,None,0.8162634880000041,1577.5427536500001,None,1577.5427536500001,None,5,0,1.1853931360001297,1578.3454744800001,None,1578.3454744800001,None,1578.3454744800001,None,1579.547244298,None,1,0.4844806080000126,1579.547244298,None,84,1580.0482479130005,None,107,A,1,2021_May_21_0928,GazeFlow,2020.1.2,59.89911455681229,
12,Block503.xls,A,3,5,103,43,22,incongruent,Left,Right,Left,39,38,1,blue,2,5,/home/docky/apps/exp/images/39Bi.jpeg,/home/docky/apps/exp/images/38B.jpeg,0,11,11,11,0,4,4,4,1581.0501143210004,None,1581.0501143210004,None,1,4.292866460999903,1581.0501143210004,None,1585.3746071940004,None,1585.3746071940004,None,1587.8794401690002,None,1587.8794401690002,None,0.7831875789997866,1589.6827497230006,None,1589.6827497230006,None,5,1,1.1683679970001322,1590.4522987159999,None,1590.4522987159999,None,1590.4522987159999,None,1591.6372797930007,None,1,0.43487592000019504,1591.6372797930007,None,86,1592.0887953090005,None,107,A,1,2021_May_21_0928,GazeFlow,2020.1.2,59.89911455681229,
12,Block503.xls,A,3,6,47,47,12,congruent,Right,Right,Left,35,33,2,yellow,2,5,/home/docky/apps/exp/images/35Yi.jpeg,/home/docky/apps/exp/images/33Y.jpeg,0,11,11,11,0,5,5,5,1593.0903607670007,None,1593.0903607670007,None,1,3.8251055789996826,1593.0903607670007,None,1596.9488906940005,None,1596.9488906940005,None,1599.453643412,None,1599.453643412,None,0.7994430260005174,1601.2512058470002,None,1601.2512058470002,None,5,1,0.9515174190000835,1602.041485181,None,1602.041485181,None,1602.041485181,None,1603.0093960740005,None,1,0.4346295599998484,1603.0093960740005,None,88,1603.4602022850004,None,107,A,1,2021_May_21_0928,GazeFlow,2020.1.2,59.89911455681229,
12,Block503.xls,A,3,7,20,20,11,congruent,Left,Left,Right,65,66,1,yellow,2,6,/home/docky/apps/exp/images/35Bi.jpeg,/home/docky/apps/exp/images/66Y.jpeg,0,11,11,11,0,6,6,6,1604.462390965,None,1604.462390965,None,1,5.193826531999548,1604.462390965,None,1609.6883809760002,None,1609.6883809760002,None,1612.193142561,None,1612.193142561,None,1.0003630689998317,1613.996108077,None,1613.996108077,None,5,0,1.018337880999752,1614.9831531979999,None,1614.9831531979999,None,1614.9831531979999,None,1616.018197583,None,1,0.4851596319995224,1616.018197583,None,86,1616.5194876160003,None,107,A,1,2021_May_21_0928,GazeFlow,2020.1.2,59.89911455681229,
12,Block503.xls,A,3,8,27,27,11,congruent,Left,Left,Right,72,77,5,yellow,2,6,/home/docky/apps/exp/images/72Yi.jpeg,/home/docky/apps/exp/images/77Y.jpeg,0,11,11,11,0,7,7,7,1617.5209088270003,None,1617.5209088270003,None,1,3.9254874069993093,1617.5209088270003,None,1621.4798878310003,None,1621.4798878310003,None,1623.986104015,None,1623.986104015,None,0.6828564229999756,1625.7862893330002,None,1625.7862893330002,None,6,1,1.1017686839995804,1626.4553259350005,None,1626.4553259350005,None,1626.4553259350005,None,1627.573835276,None,1,0.43403147800017905,1627.573835276,None,88,1628.024791203,None,107,A,1,2021_May_21_0928,GazeFlow,2020.1.2,59.89911455681229,
12,Block503.xls,A,,,,,,,,,,,,,,,,,,0,11,11,11,,,,,,,,,,,,,,,,,,,,,,,,,,,,,,,,,,,,,,,,,,,,107,A,1,2021_May_21_0928,GazeFlow,2020.1.2,59.89911455681229,
13,Block501.xls,A,1,1,54,54,12,congruent,Right,Right,Left,75,69,6,yellow,2,5,/home/docky/apps/exp/images/76Y.jpeg,/home/docky/apps/exp/images/69Yi.jpeg,0,12,12,12,0,0,0,0,1646.6126207880006,None,1646.6126207880006,None,1,3.912802531000125,1646.6126207880006,None,1650.5572163920006,None,1650.5572163920006,None,1653.0745435180006,None,1653.0745435180006,None,0.7320574710001893,1654.8780725450006,None,1654.8780725450006,None,5,1,0.9347441789996083,1655.5955592540004,None,1655.5955592540004,None,1655.5955592540004,None,1656.546637906,None,1,0.5345209070001147,1656.546637906,None,90,1657.098007738,None,107,A,1,2021_May_21_0928,GazeFlow,2020.1.2,59.89911455681229,
13,Block501.xls,A,1,2,70,10,21,incongruent,Right,Left,Right,73,76,3,blue,2,6,/home/docky/apps/exp/images/73Bi.jpeg,/home/docky/apps/exp/images/76B.jpeg,0,12,12,12,0,1,1,1,1658.0997619990003,None,1658.0997619990003,None,1,3.5242784979991484,1658.0997619990003,None,1661.657947015,None,1661.657947015,None,1664.1603101609999,None,1664.1603101609999,None,0.833059915999911,1665.966100306,None,1665.966100306,None,5,0,1.0181238590002977,1666.7839627500007,None,1666.7839627500007,None,1666.7839627500007,None,1667.818851434,None,1,0.534333720000177,1667.818851434,None,88,1668.369677613,None,107,A,1,2021_May_21_0928,GazeFlow,2020.1.2,59.89911455681229,
13,Block501.xls,A,1,3,84,24,21,incongruent,Right,Left,Right,69,76,7,yellow,2,6,/home/docky/apps/exp/images/69Yi.jpeg,/home/docky/apps/exp/images/76Y.jpeg,0,12,12,12,0,2,2,2,1669.3716310730006,None,1669.3716310730006,None,1,3.6578264939998917,1669.3716310730006,None,1673.0632540430006,None,1673.0632540430006,None,1675.5663090530006,None,1675.5663090530006,None,0.98353943300026,1677.3659735230003,None,1677.3659735230003,None,6,1,1.268788633999975,1678.339717023,None,1678.339717023,None,1678.339717023,None,1679.625491357,None,1,0.5345128290000503,1679.625491357,None,90,1680.176229738,None,107,A,1,2021_May_21_0928,GazeFlow,2020.1.2,59.89911455681229,
13,Block501.xls,A,1,4,26,26,11,congruent,Left,Left,Right,69,75,6,yellow,2,6,/home/docky/apps/exp/images/69Y.jpeg,/home/docky/apps/exp/images/76Yi.jpeg,0,12,12,12,0,3,3,3,1681.1780056730004,None,1681.1780056730004,None,1,3.1571772120005335,1681.1780056730004,None,1684.3702189270007,None,1684.3702189270007,None,1686.8735519230004,None,1686.8735519230004,None,0.9335093999998207,1688.6751894380004,None,1688.6751894380004,None,6,1,1.1848438079996413,1689.5949506180004,None,1689.5949506180004,None,1689.5949506180004,None,1690.7966136650002,None,1,0.5681714420006756,1690.7966136650002,None,92,1691.38176295,None,107,A,1,2021_May_21_0928,GazeFlow,2020.1.2,59.89911455681229,
13,Block501.xls,A,1,5,97,37,22,incongruent,Left,Right,Left,79,73,6,blue,2,5,/home/docky/apps/exp/images/79B.jpeg,/home/docky/apps/exp/images/73Bi.jpeg,0,12,12,12,0,4,4,4,1692.3830135340004,None,1692.3830135340004,None,1,2.9235301640001126,1692.3830135340004,None,1695.3400007139999,None,1695.3400007139999,None,1697.8429906500005,None,1697.8429906500005,None,1.050271380000595,1699.646604443,None,1699.646604443,None,5,1,1.1850784180005576,1700.6829982919999,None,1700.6829982919999,None,1700.6829982919999,None,1701.884913113,None,1,0.5177697150002132,1701.884913113,None,94,1702.419409948,None,107,A,1,2021_May_21_0928,GazeFlow,2020.1.2,59.89911455681229,
13,Block501.xls,A,1,6,98,38,22,incongruent,Left,Right,Left,79,73,6,blue,2,5,/home/docky/apps/exp/images/79B.jpeg,/home/docky/apps/exp/images/73Bi.jpeg,0,12,12,12,0,5,5,5,1703.4210926730002,None,1703.4210926730002,None,1,2.6730702849999943,1703.4210926730002,None,1706.1276056900006,None,1706.1276056900006,None,1708.6309849150002,None,1708.6309849150002,None,0.7999074109993671,1710.4343147509999,None,1710.4343147509999,None,5,1,1.1685079239996412,1711.2201726350004,None,1711.2201726350004,None,1711.2201726350004,None,1712.4051396530003,None,1,0.5018269140000484,1712.4051396530003,None,96,1712.9233543569999,None,107,A,1,2021_May_21_0928,GazeFlow,2020.1.2,59.89911455681229,
13,Block501.xls,A,1,7,77,17,21,incongruent,Right,Left,Right,65,66,1,yellow,2,6,/home/docky/apps/exp/images/35B.jpeg,/home/docky/apps/exp/images/66Yi.jpeg,0,12,12,12,0,6,6,6,1713.924829859,None,1713.924829859,None,1,2.455787646999852,1713.924829859,None,1716.4124985890003,None,1716.4124985890003,None,1718.9169694749999,None,1718.9169694749999,None,1.3844624510002177,1720.7199543940005,None,1720.7199543940005,None,5,0,1.0857869210003628,1722.09151708,None,1722.09151708,None,1722.09151708,None,1723.1932052990005,None,1,0.5009811649997573,1723.1932052990005,None,94,1723.7104248060004,None,107,A,1,2021_May_21_0928,GazeFlow,2020.1.2,59.89911455681229,
13,Block501.xls,A,1,8,50,50,12,congruent,Right,Right,Left,66,65,1,yellow,2,5,/home/docky/apps/exp/images/66Y.jpeg,/home/docky/apps/exp/images/35Bi.jpeg,0,12,12,12,0,7,7,7,1724.712619332,None,1724.712619332,None,1,3.4239315290005834,1724.712619332,None,1728.1712488860003,None,1728.1712488860003,None,1730.673346945,None,1730.673346945,None,1.0167673450005168,1732.476677916,None,1732.476677916,None,5,1,1.0682869880001817,1733.48019973,None,1733.48019973,None,1733.48019973,None,1734.5648540270004,None,1,0.4020301419996031,1734.5648540270004,None,96,1734.982929103,None,107,A,1,2021_May_21_0928,GazeFlow,2020.1.2,59.89911455681229,
13,Block501.xls,A,,,,,,,,,,,,,,,,,,0,12,12,12,,,,,,,,,,,,,,,,,,,,,,,,,,,,,,,,,,,,,,,,,,,,107,A,1,2021_May_21_0928,GazeFlow,2020.1.2,59.89911455681229,
14,Block513.xls,A,13,1,32,32,12,congruent,Right,Right,Left,19,16,3,blue,2,5,/home/docky/apps/exp/images/19B.jpeg,/home/docky/apps/exp/images/16Bi.jpeg,0,13,13,13,0,0,0,0,1755.5570770580007,None,1755.5570770580007,None,1,4.412830825999663,1755.5570770580007,None,1759.9964516230002,None,1759.9964516230002,None,1762.5202333220004,None,1762.5202333220004,None,0.9327963369996723,1764.3179510630007,None,1764.3179510630007,None,6,0,1.0684932349995506,1765.241904249,None,1765.241904249,None,1765.241904249,None,1766.3268066770006,None,1,0.4340980970000601,1766.3268066770006,None,94,1766.7776491109998,None,107,A,1,2021_May_21_0928,GazeFlow,2020.1.2,59.89911455681229,
14,Block513.xls,A,13,2,81,21,21,incongruent,Right,Left,Right,38,39,1,yellow,2,6,/home/docky/apps/exp/images/38Yi.jpeg,/home/docky/apps/exp/images/39Y.jpeg,0,13,13,13,0,1,1,1,1767.779651752,None,1767.779651752,None,1,2.9396418799997264,1767.779651752,None,1770.7532349230005,None,1770.7532349230005,None,1773.256288556,None,1773.256288556,None,0.86603537100018,1775.0615929570004,None,1775.0615929570004,None,5,0,1.1515281439997125,1775.9128259180006,None,1775.9128259180006,None,1775.9128259180006,None,1777.0806465240003,None,1,0.5019886150003003,1777.0806465240003,None,92,1777.5989966300003,None,107,A,1,2021_May_21_0928,GazeFlow,2020.1.2,59.89911455681229,
14,Block513.xls,A,13,3,92,32,22,incongruent,Left,Right,Left,19,16,3,blue,2,5,/home/docky/apps/exp/images/19B.jpeg,/home/docky/apps/exp/images/16Bi.jpeg,0,13,13,13,0,2,2,2,1778.6007047050007,None,1778.6007047050007,None,1,2.539320955000221,1778.6007047050007,None,1781.1733218580002,None,1781.1733218580002,None,1783.6766014350005,None,1783.6766014350005,None,1.150512621999951,1785.4818221670002,None,1785.4818221670002,None,5,1,1.1354321299995718,1786.6167491900005,None,1786.6167491900005,None,1786.6167491900005,None,1787.7683305030005,None,1,0.4178958490001605,1787.7683305030005,None,94,1788.2028494940005,None,107,A,1,2021_May_21_0928,GazeFlow,2020.1.2,59.89911455681229,
14,Block513.xls,A,13,4,6,6,11,congruent,Left,Left,Right,65,66,1,blue,2,6,/home/docky/apps/exp/images/35Y.jpeg,/home/docky/apps/exp/images/66Bi.jpeg,0,13,13,13,0,3,3,3,1789.2045767070003,None,1789.2045767070003,None,1,2.4390086620005604,1789.2045767070003,None,1791.6780346570004,None,1791.6780346570004,None,1794.186410059,None,1794.186410059,None,1.0003195549998054,1795.9824702700007,None,1795.9824702700007,None,5,0,1.2351892039996528,1796.970226509,None,1796.970226509,None,1796.970226509,None,1798.2220628680006,None,1,0.5014405529991564,1798.2220628680006,None,92,1798.73992877,None,107,A,1,2021_May_21_0928,GazeFlow,2020.1.2,59.89911455681229,
14,Block513.xls,A,13,5,67,7,21,incongruent,Right,Left,Right,38,39,1,blue,2,6,/home/docky/apps/exp/images/38Bi.jpeg,/home/docky/apps/exp/images/39B.jpeg,0,13,13,13,0,4,4,4,1799.7415392510002,None,1799.7415392510002,None,1,1.9879039390007165,1799.7415392510002,None,1801.7615718760007,None,1801.7615718760007,None,1804.2680932530002,None,1804.2680932530002,None,0.9833682190001127,1806.0698549750005,None,1806.0698549750005,None,5,0,1.3025911270005963,1807.0398452100007,None,1807.0398452100007,None,1807.0398452100007,None,1808.358802181,None,1,0.4515589880002153,1808.358802181,None,90,1808.8263783860002,None,107,A,1,2021_May_21_0928,GazeFlow,2020.1.2,59.89911455681229,
14,Block513.xls,A,13,6,111,51,22,incongruent,Left,Right,Left,66,65,1,yellow,2,5,/home/docky/apps/exp/images/66Yi.jpeg,/home/docky/apps/exp/images/35B.jpeg,0,13,13,13,0,5,5,5,1809.8277533159999,None,1809.8277533159999,None,1,2.4722547479996138,1809.8277533159999,None,1812.3335803740001,None,1812.3335803740001,None,1814.8424519240007,None,1814.8424519240007,None,1.2007096180004737,1816.640626677,None,1816.640626677,None,6,0,1.0683650139999372,1817.8273018340005,None,1817.8273018340005,None,1817.8273018340005,None,1818.9121317710005,None,1,0.3846525479993943,1818.9121317710005,None,88,1819.3128157170004,None,107,A,1,2021_May_21_0928,GazeFlow,2020.1.2,59.89911455681229,
14,Block513.xls,A,13,7,88,28,21,incongruent,Right,Left,Right,79,82,3,yellow,2,6,/home/docky/apps/exp/images/79Y.jpeg,/home/docky/apps/exp/images/80Yi.jpeg,0,13,13,13,0,6,6,6,1820.3149499810006,None,1820.3149499810006,None,1,2.121438725999724,1820.3149499810006,None,1822.470086378,None,1822.470086378,None,1824.9734602409999,None,1824.9734602409999,None,0.7997884839996914,1826.7763280520003,None,1826.7763280520003,None,5,0,1.1349793220006177,1827.562899511,None,1827.562899511,None,1827.562899511,None,1828.714737116,None,1,0.5185545199992703,1828.714737116,None,86,1829.2492998890002,None,107,A,1,2021_May_21_0928,GazeFlow,2020.1.2,59.89911455681229,
14,Block513.xls,A,13,8,14,14,11,congruent,Left,Left,Right,80,83,3,blue,2,6,/home/docky/apps/exp/images/80B.jpeg,/home/docky/apps/exp/images/83Bi.jpeg,0,13,13,13,0,7,7,7,1830.2508646120004,None,1830.2508646120004,None,1,3.073410361000242,1830.2508646120004,None,1833.3581532930002,None,1833.3581532930002,None,1835.8663349560002,None,1835.8663349560002,None,0.9671932080000261,1837.664267043,None,1837.664267043,None,5,0,1.2018073529998219,1838.6176890400002,None,1838.6176890400002,None,1838.6176890400002,None,1839.8363384180002,None,1,0.5175834940000641,1839.8363384180002,None,84,1840.370559287,None,107,A,1,2021_May_21_0928,GazeFlow,2020.1.2,59.89911455681229,
14,Block513.xls,A,,,,,,,,,,,,,,,,,,0,13,13,13,,,,,,,,,,,,,,,,,,,,,,,,,,,,,,,,,,,,,,,,,,,,107,A,1,2021_May_21_0928,GazeFlow,2020.1.2,59.89911455681229,
15,Block514.xls,A,14,1,113,53,22,incongruent,Left,Right,Left,75,69,6,yellow,2,5,/home/docky/apps/exp/images/76Y.jpeg,/home/docky/apps/exp/images/69Yi.jpeg,0,14,14,14,0,0,0,0,1861.2784812400005,None,1861.2784812400005,None,1,3.4463543480005683,1861.2784812400005,None,1864.7583822280003,None,1864.7583822280003,None,1867.2739387259999,None,1867.2739387259999,None,0.6320464880000145,1869.0757600390007,None,1869.0757600390007,None,5,1,0.9683187559994622,1869.6946765740004,None,1869.6946765740004,None,1869.6946765740004,None,1870.6795511990003,None,1,0.46793618599986075,1870.6795511990003,None,86,1871.1636991720006,None,107,A,1,2021_May_21_0928,GazeFlow,2020.1.2,59.89911455681229,
15,Block514.xls,A,14,2,45,45,12,congruent,Right,Right,Left,39,38,1,blue,2,5,/home/docky/apps/exp/images/39B.jpeg,/home/docky/apps/exp/images/38Bi.jpeg,0,14,14,14,0,1,1,1,1872.1657920510006,None,1872.1657920510006,None,1,3.0062427379998553,1872.1657920510006,None,1875.205963429,None,1875.205963429,None,1877.7109896210004,None,1877.7109896210004,None,0.7664168680003058,1879.5126087970002,None,1879.5126087970002,None,5,1,1.1852021710001281,1880.265242028,None,1880.265242028,None,1880.265242028,None,1881.4668122930007,None,1,0.535206494000704,1881.4668122930007,None,88,1882.0184969330003,None,107,A,1,2021_May_21_0928,GazeFlow,2020.1.2,59.89911455681229,
15,Block514.xls,A,14,3,52,52,12,congruent,Right,Right,Left,75,69,6,yellow,2,5,/home/docky/apps/exp/images/76Y.jpeg,/home/docky/apps/exp/images/69Yi.jpeg,0,14,14,14,0,2,2,2,1883.0198245740003,None,1883.0198245740003,None,1,2.055302318000031,1883.0198245740003,None,1885.1083140210003,None,1885.1083140210003,None,1887.6119730610008,None,1887.6119730610008,None,0.8829555820002497,1889.415534324,None,1889.415534324,None,5,1,1.0683171990003757,1890.2846609140006,None,1890.2846609140006,None,1890.2846609140006,None,1891.3697866880002,None,1,0.46803549000014755,1891.3697866880002,None,90,1891.8543017900001,None,107,A,1,2021_May_21_0928,GazeFlow,2020.1.2,59.89911455681229,
15,Block514.xls,A,14,4,106,46,22,incongruent,Left,Right,Left,35,33,2,yellow,2,5,/home/docky/apps/exp/images/35Yi.jpeg,/home/docky/apps/exp/images/33Y.jpeg,0,14,14,14,0,3,3,3,1892.8559443900003,None,1892.8559443900003,None,1,2.238258348999807,1892.8559443900003,None,1895.1278311400001,None,1895.1278311400001,None,1897.6309754630001,None,1897.6309754630001,None,0.9835356160001538,1899.4345282080003,None,1899.4345282080003,None,5,1,1.2184440450000693,1900.4043833270007,None,1900.4043833270007,None,1900.4043833270007,None,1901.639771266,None,1,0.41833825199955754,1901.639771266,None,92,1902.0741368540002,None,107,A,1,2021_May_21_0928,GazeFlow,2020.1.2,59.89911455681229,
15,Block514.xls,A,14,5,109,49,22,incongruent,Left,Right,Left,39,38,1,yellow,2,5,/home/docky/apps/exp/images/39Yi.jpeg,/home/docky/apps/exp/images/38Y.jpeg,0,14,14,14,0,4,4,4,1903.0756635380003,None,1903.0756635380003,None,1,2.1549323179997373,1903.0756635380003,None,1905.2640628540003,None,1905.2640628540003,None,1907.7691174350002,None,1907.7691174350002,None,0.9336357490001319,1909.5710917740007,None,1909.5710917740007,None,5,1,1.2019695499993759,1910.4906695160007,None,1910.4906695160007,None,1910.4906695160007,None,1911.709199672,None,1,0.45141122400036693,1911.709199672,None,94,1912.1769861080002,None,107,A,1,2021_May_21_0928,GazeFlow,2020.1.2,59.89911455681229,
15,Block514.xls,A,14,6,89,29,21,incongruent,Right,Left,Right,79,82,3,yellow,2,6,/home/docky/apps/exp/images/79Yi.jpeg,/home/docky/apps/exp/images/80Y.jpeg,0,14,14,14,0,5,5,5,1913.1786877089999,None,1913.1786877089999,None,1,1.7538393869999709,1913.1786877089999,None,1914.9653009419999,None,1914.9653009419999,None,1917.473917149,None,1917.473917149,None,1.0669527469999593,1919.2675922480003,None,1919.2675922480003,None,5,0,1.0516519510001672,1920.3264194070007,None,1920.3264194070007,None,1920.3264194070007,None,1921.394461119,None,1,0.4349785750000592,1921.394461119,None,92,1921.845663522,None,107,A,1,2021_May_21_0928,GazeFlow,2020.1.2,59.89911455681229,
15,Block514.xls,A,14,7,91,31,22,incongruent,Left,Right,Left,19,16,3,blue,2,5,/home/docky/apps/exp/images/19Bi.jpeg,/home/docky/apps/exp/images/16B.jpeg,0,14,14,14,0,6,6,6,1922.8474834570006,None,1922.8474834570006,None,1,1.7873830970002018,1922.8474834570006,None,1924.6684242649999,None,1924.6684242649999,None,1927.171463402,None,1927.171463402,None,1.0001620640005058,1928.9755332580007,None,1928.9755332580007,None,5,1,1.084915161999561,1929.9617966590004,None,1929.9617966590004,None,1929.9617966590004,None,1931.0633412510006,None,1,0.43535945100029494,1931.0633412510006,None,94,1931.5147304110005,None,107,A,1,2021_May_21_0928,GazeFlow,2020.1.2,59.89911455681229,
15,Block514.xls,A,14,8,79,19,21,incongruent,Right,Left,Right,62,65,3,yellow,2,6,/home/docky/apps/exp/images/38B.jpeg,/home/docky/apps/exp/images/35Bi.jpeg,0,14,14,14,0,7,7,7,1932.516116412,None,1932.516116412,None,1,1.6376839289996497,1932.516116412,None,1934.1871214850007,None,1934.1871214850007,None,1936.692001556,None,1936.692001556,None,0.9834674849998919,1938.4942054379999,None,1938.4942054379999,None,6,1,0.9514712119998876,1939.4636204340004,None,1939.4636204340004,None,1939.4636204340004,None,1940.4313525790003,None,1,0.45210089000011067,1940.4313525790003,None,96,1940.8995830530002,None,107,A,1,2021_May_21_0928,GazeFlow,2020.1.2,59.89911455681229,
15,Block514.xls,A,,,,,,,,,,,,,,,,,,0,14,14,14,,,,,,,,,,,,,,,,,,,,,,,,,,,,,,,,,,,,,,,,,,,,107,A,1,2021_May_21_0928,GazeFlow,2020.1.2,59.89911455681229,
