Nblock,condsFile,grouping,Block,TrialBlock,N,trialN,trialCond,gazeCon,gazedirR,corrBinR,corrBinP,valLBY,valRBY,diff,colorCube,feedbacktext,corrAns,imageL,imageR,SelBlocks.thisRepN,SelBlocks.thisTrialN,SelBlocks.thisN,SelBlocks.thisIndex,Trials.thisRepN,Trials.thisTrialN,Trials.thisN,Trials.thisIndex,waitCube.started,waitCube.stopped,text_3.started,text_3.stopped,StartKeyPress.keys,StartKeyPress.rt,StartKeyPress.started,StartKeyPress.stopped,StimL.started,StimL.stopped,StimR.started,StimR.stopped,imageStim2L.started,imageStim2L.stopped,imageStim2R.started,imageStim2R.stopped,RTkeyRelease,imageStim3L.started,imageStim3L.stopped,imageStim3R.started,imageStim3R.stopped,dropResp.keys,dropResp.corr,dropResp.rt,dropResp.started,dropResp.stopped,imageStim5L.started,imageStim5L.stopped,imageStim5R.started,imageStim5R.stopped,text_2.started,text_2.stopped,ReturnSpace.keys,ReturnSpace.rt,ReturnSpace.started,ReturnSpace.stopped,totalpoints,textFeedback.started,textFeedback.stopped,participant,group,session,date,expName,psychopyVersion,frameRate,
1,Block809.xls,B,9,1,93,93,None,congruent,Right,Right,Left,80,79,1,yellow,2,5,/home/docky/apps/exp/images/80Y.jpeg,/home/docky/apps/exp/images/79Yi.jpeg,0,0,0,0,0,0,0,0,36.991985435999595,None,36.991985435999595,None,1,4.148413667000568,36.991985435999595,None,41.169649319999735,None,41.169649319999735,None,43.68793017099961,None,43.68793017099961,None,1.8845397469995078,45.491793273999065,None,45.491793273999065,None,6,0,1.4355393669993646,47.359403147000194,None,47.359403147000194,None,47.359403147000194,None,48.81190406600035,None,1,0.6014379389998794,48.81190406600035,None,-2,49.43070532300044,None,108,B,1,2021_May_21_1053,GazeFlow,2020.1.2,59.93882236195383,
1,Block809.xls,B,9,2,15,15,None,congruent,Left,Left,Right,38,39,1,blue,2,6,/home/docky/apps/exp/images/38B.jpeg,/home/docky/apps/exp/images/39Bi.jpeg,0,0,0,0,0,1,1,1,50.4319680410008,None,50.4319680410008,None,1,5.210833181999988,50.4319680410008,None,55.67626750199997,None,55.67626750199997,None,58.18075520899947,None,58.18075520899947,None,1.8851839689996268,59.98279975399964,None,59.98279975399964,None,6,1,1.251900580000438,61.854400565000105,None,61.854400565000105,None,61.854400565000105,None,63.12268450999909,None,1,0.401084641000125,63.12268450999909,None,0,63.54052486599903,None,108,B,1,2021_May_21_1053,GazeFlow,2020.1.2,59.93882236195383,
1,Block809.xls,B,9,3,117,21,None,incongruent,Left,Right,Left,39,38,1,yellow,2,5,/home/docky/apps/exp/images/39Yi.jpeg,/home/docky/apps/exp/images/38Y.jpeg,0,0,0,0,0,2,2,2,64.54224148600042,None,64.54224148600042,None,1,4.325780899000165,64.54224148600042,None,68.90174111899978,None,68.90174111899978,None,71.40487445200051,None,71.40487445200051,None,2.0021576840008493,73.20289252899966,None,73.20289252899966,None,6,0,1.2514970550000726,75.19693673599977,None,75.19693673599977,None,75.19693673599977,None,76.46509637099916,None,1,0.33439648500097974,76.46509637099916,None,-2,76.81586755900025,None,108,B,1,2021_May_21_1053,GazeFlow,2020.1.2,59.93882236195383,
1,Block809.xls,B,9,4,94,94,None,congruent,Right,Right,Left,80,79,1,yellow,2,5,/home/docky/apps/exp/images/80Y.jpeg,/home/docky/apps/exp/images/79Yi.jpeg,0,0,0,0,0,3,3,3,77.81825376699999,None,77.81825376699999,None,1,4.392240993000087,77.81825376699999,None,82.24447041200074,None,82.24447041200074,None,84.7528153660005,None,84.7528153660005,None,2.2191839949991845,86.55277585399926,None,86.55277585399926,None,6,0,5.995267870001044,88.7563937369996,None,88.7563937369996,None,88.7563937369996,None,94.76785022399963,None,1,0.7851878860001307,94.76785022399963,None,-4,95.56950363800024,None,108,B,1,2021_May_21_1053,GazeFlow,2020.1.2,59.93882236195383,
1,Block809.xls,B,9,5,41,41,None,congruent,Right,Right,Left,79,76,3,blue,2,5,/home/docky/apps/exp/images/79Bi.jpeg,/home/docky/apps/exp/images/76B.jpeg,0,0,0,0,0,4,4,4,96.57157678899966,None,96.57157678899966,None,1,4.726568697000403,96.57157678899966,None,101.33207645900075,None,101.33207645900075,None,103.83466145999955,None,103.83466145999955,None,1.4508914279995224,105.63755580699944,None,105.63755580699944,None,5,1,1.285871584999768,107.07549752600062,None,107.07549752600062,None,107.07549752600062,None,108.3776522650005,None,1,0.8015390759992442,108.3776522650005,None,-2,109.19547151500046,None,108,B,1,2021_May_21_1053,GazeFlow,2020.1.2,59.93882236195383,
1,Block809.xls,B,9,6,36,36,None,congruent,Right,Right,Left,79,73,6,blue,2,5,/home/docky/apps/exp/images/79Bi.jpeg,/home/docky/apps/exp/images/73B.jpeg,0,0,0,0,0,5,5,5,110.1976427690006,None,110.1976427690006,None,1,4.676336013999389,110.1976427690006,None,114.90771210799903,None,114.90771210799903,None,117.4123986809991,None,117.4123986809991,None,1.6847291220001352,119.20991318599954,None,119.20991318599954,None,5,1,1.0688878309993015,120.88575557299919,None,120.88575557299919,None,120.88575557299919,None,121.97074392200011,None,1,0.6340856420010823,121.97074392200011,None,0,122.62169622799956,None,108,B,1,2021_May_21_1053,GazeFlow,2020.1.2,59.93882236195383,
1,Block809.xls,B,9,7,78,78,None,congruent,Right,Right,Left,39,38,1,yellow,2,5,/home/docky/apps/exp/images/39Yi.jpeg,/home/docky/apps/exp/images/38Y.jpeg,0,0,0,0,0,6,6,6,123.62368392899953,None,123.62368392899953,None,1,4.1587313519994495,123.62368392899953,None,127.81622306399913,None,127.81622306399913,None,130.31941588299924,None,130.31941588299924,None,2.252611338999486,132.11795688600068,None,132.11795688600068,None,5,1,1.0348588500000915,134.3618000030001,None,134.3618000030001,None,134.3618000030001,None,135.41322415499963,None,1,0.46748701599972264,135.41322415499963,None,2,135.89761616299984,None,108,B,1,2021_May_21_1053,GazeFlow,2020.1.2,59.93882236195383,
1,Block809.xls,B,9,8,29,29,None,congruent,Right,Right,Left,38,35,3,blue,2,5,/home/docky/apps/exp/images/38B.jpeg,/home/docky/apps/exp/images/35Bi.jpeg,0,0,0,0,0,7,7,7,136.89983805699922,None,136.89983805699922,None,1,4.192219954000393,136.89983805699922,None,141.12553925700013,None,141.12553925700013,None,143.62814917099968,None,143.62814917099968,None,1.9190986650010018,145.43165719399985,None,145.43165719399985,None,5,1,0.9852902539987554,147.3369867750007,None,147.3369867750007,None,147.3369867750007,None,148.33864026300034,None,1,0.4006158720003441,148.33864026300034,None,4,148.75567874300032,None,108,B,1,2021_May_21_1053,GazeFlow,2020.1.2,59.93882236195383,
1,Block809.xls,B,,,,,,,,,,,,,,,,,,0,0,0,0,,,,,,,,,,,,,,,,,,,,,,,,,,,,,,,,,,,,,,,,,,,,108,B,1,2021_May_21_1053,GazeFlow,2020.1.2,59.93882236195383,
2,Block805.xls,B,5,1,16,16,None,congruent,Left,Left,Right,73,76,3,blue,2,6,/home/docky/apps/exp/images/73B.jpeg,/home/docky/apps/exp/images/76Bi.jpeg,0,1,1,1,0,0,0,0,175.64274239400038,None,175.64274239400038,None,1,4.299697603999448,175.64274239400038,None,179.97021996799958,None,179.97021996799958,None,182.4889779690002,None,182.4889779690002,None,1.3500707349994627,184.29092328499974,None,184.29092328499974,None,6,1,6.395859344998826,185.62799947200074,None,185.62799947200074,None,185.62799947200074,None,192.04010433199983,None,1,0.7354862160009361,192.04010433199983,None,6,192.79166428799908,None,108,B,1,2021_May_21_1053,GazeFlow,2020.1.2,59.93882236195383,
2,Block805.xls,B,5,2,2,2,None,congruent,Left,Left,Right,16,19,3,blue,2,6,/home/docky/apps/exp/images/16B.jpeg,/home/docky/apps/exp/images/19Bi.jpeg,0,1,1,1,0,1,1,1,193.79343127299944,None,193.79343127299944,None,1,4.358950380001261,193.79343127299944,None,198.1859994789993,None,198.1859994789993,None,200.6908766739998,None,200.6908766739998,None,1.834855940000125,202.49465995699939,None,202.49465995699939,None,6,1,4.358975638000629,204.314295786,None,204.314295786,None,204.314295786,None,208.68916459299908,None,1,0.7516376930016122,208.68916459299908,None,8,209.45737882100002,None,108,B,1,2021_May_21_1053,GazeFlow,2020.1.2,59.93882236195383,
2,Block805.xls,B,5,3,64,64,None,congruent,Left,Left,Right,69,76,7,yellow,2,6,/home/docky/apps/exp/images/69Y.jpeg,/home/docky/apps/exp/images/76Yi.jpeg,0,1,1,1,0,2,2,2,210.45940508499916,None,210.45940508499916,None,1,3.7073805859999993,210.45940508499916,None,214.2006599010001,None,214.2006599010001,None,216.70382399700065,None,216.70382399700065,None,2.7208402149990434,218.50689927299936,None,218.50689927299936,None,6,1,6.846234983000613,221.23103217000062,None,221.23103217000062,None,221.23103217000062,None,228.0935556250006,None,1,0.5847082899999805,228.0935556250006,None,10,228.69468028099982,None,108,B,1,2021_May_21_1053,GazeFlow,2020.1.2,59.93882236195383,
2,Block805.xls,B,5,4,61,61,None,congruent,Left,Left,Right,38,39,1,yellow,2,6,/home/docky/apps/exp/images/38Yi.jpeg,/home/docky/apps/exp/images/39Y.jpeg,0,1,1,1,0,3,3,3,229.6966457540002,None,229.6966457540002,None,1,3.991522361000534,229.6966457540002,None,233.7217262159993,None,233.7217262159993,None,236.22542607499963,None,236.22542607499963,None,3.087991622000118,238.02834558699942,None,238.02834558699942,None,6,1,0.9856868630013196,241.1179390670004,None,241.1179390670004,None,241.1179390670004,None,242.12034992900044,None,1,0.5678437740007212,242.12034992900044,None,12,242.70509337799922,None,108,B,1,2021_May_21_1053,GazeFlow,2020.1.2,59.93882236195383,
2,Block805.xls,B,5,5,23,23,None,congruent,Left,Left,Right,80,83,3,blue,2,6,/home/docky/apps/exp/images/80B.jpeg,/home/docky/apps/exp/images/83Bi.jpeg,0,1,1,1,0,4,4,4,243.70716227499906,None,243.70716227499906,None,1,4.075360623000961,243.70716227499906,None,247.8193348629993,None,247.8193348629993,None,250.3186413250005,None,250.3186413250005,None,2.3024605230002635,252.11800620599934,None,252.11800620599934,None,6,1,3.239689599000485,254.41149788300027,None,254.41149788300027,None,254.41149788300027,None,257.6676445510002,None,1,0.5178842050008825,257.6676445510002,None,14,258.20193228599965,None,108,B,1,2021_May_21_1053,GazeFlow,2020.1.2,59.93882236195383,
2,Block805.xls,B,5,6,87,87,None,congruent,Right,Right,Left,76,69,7,yellow,2,5,/home/docky/apps/exp/images/76Yi.jpeg,/home/docky/apps/exp/images/69Y.jpeg,0,1,1,1,0,5,5,5,259.20398730799934,None,259.20398730799934,None,1,3.8077042780005286,259.20398730799934,None,263.0454370940006,None,263.0454370940006,None,265.5487325129998,None,265.5487325129998,None,2.3023998080007004,267.3515730020008,None,267.3515730020008,None,5,1,0.8840365960004419,269.641218236,None,269.641218236,None,269.641218236,None,270.5423486849995,None,1,0.5675638339998841,270.5423486849995,None,16,271.1267684760005,None,108,B,1,2021_May_21_1053,GazeFlow,2020.1.2,59.93882236195383,
2,Block805.xls,B,5,7,4,4,None,congruent,Left,Left,Right,35,38,3,blue,2,6,/home/docky/apps/exp/images/35B.jpeg,/home/docky/apps/exp/images/38Bi.jpeg,0,1,1,1,0,6,6,6,272.1288542679995,None,272.1288542679995,None,1,3.741239039998618,272.1288542679995,None,275.90381743299986,None,275.90381743299986,None,278.4064133159991,None,278.4064133159991,None,2.570481626000401,280.20414204699955,None,280.20414204699955,None,6,1,0.986189088998799,282.78158875699955,None,282.78158875699955,None,282.78158875699955,None,283.78439564700057,None,1,0.5186743710000883,283.78439564700057,None,18,284.318939879,None,108,B,1,2021_May_21_1053,GazeFlow,2020.1.2,59.93882236195383,
2,Block805.xls,B,5,8,114,18,None,incongruent,Right,Left,Right,79,82,3,yellow,2,6,/home/docky/apps/exp/images/79Y.jpeg,/home/docky/apps/exp/images/80Yi.jpeg,0,1,1,1,0,7,7,7,285.3209679110005,None,285.3209679110005,None,1,4.67644258799919,285.3209679110005,None,290.0310843160005,None,290.0310843160005,None,292.5361943179996,None,292.5361943179996,None,1.918604297999991,294.3375461830001,None,294.3375461830001,None,5,0,0.9186801440009731,296.24277855000037,None,296.24277855000037,None,296.24277855000037,None,297.17771635700046,None,1,0.45056809699963196,297.17771635700046,None,16,297.64485129700006,None,108,B,1,2021_May_21_1053,GazeFlow,2020.1.2,59.93882236195383,
2,Block805.xls,B,,,,,,,,,,,,,,,,,,0,1,1,1,,,,,,,,,,,,,,,,,,,,,,,,,,,,,,,,,,,,,,,,,,,,108,B,1,2021_May_21_1053,GazeFlow,2020.1.2,59.93882236195383,
3,Block804.xls,B,4,1,95,95,None,congruent,Right,Right,Left,80,79,1,yellow,2,5,/home/docky/apps/exp/images/80Yi.jpeg,/home/docky/apps/exp/images/79Y.jpeg,0,2,2,2,0,0,0,0,322.14358935900054,None,322.14358935900054,None,1,3.531651032000809,322.14358935900054,None,325.69760413199947,None,325.69760413199947,None,328.2217424240007,None,328.2217424240007,None,1.4501756969984854,330.0254808289992,None,330.0254808289992,None,5,1,0.8353490329991473,331.4608069700007,None,331.4608069700007,None,331.4608069700007,None,332.3126968029992,None,1,0.5177757569999812,332.3126968029992,None,18,332.84697764299926,None,108,B,1,2021_May_21_1053,GazeFlow,2020.1.2,59.93882236195383,
3,Block804.xls,B,4,2,107,11,None,incongruent,Left,Right,Left,83,80,3,blue,2,5,/home/docky/apps/exp/images/83Bi.jpeg,/home/docky/apps/exp/images/80B.jpeg,0,2,2,2,0,1,1,1,333.84876019500007,None,333.84876019500007,None,1,3.5077070820007066,333.84876019500007,None,337.38981122400037,None,337.38981122400037,None,339.8946410789995,None,339.8946410789995,None,1.8677340449994517,341.6980790100006,None,341.6980790100006,None,5,1,0.885467920001247,343.55127036200065,None,343.55127036200065,None,343.55127036200065,None,344.45282392400077,None,1,0.5339190930008044,344.45282392400077,None,20,345.0035839789998,None,108,B,1,2021_May_21_1053,GazeFlow,2020.1.2,59.93882236195383,
3,Block804.xls,B,4,3,27,27,None,congruent,Right,Right,Left,19,16,3,blue,2,5,/home/docky/apps/exp/images/19Bi.jpeg,/home/docky/apps/exp/images/16B.jpeg,0,2,2,2,0,2,2,2,346.00560461699934,None,346.00560461699934,None,1,4.342981464998957,346.00560461699934,None,350.382053759,None,350.382053759,None,352.8846869650006,None,352.8846869650006,None,1.4512870179987658,354.687797184999,None,354.687797184999,None,5,1,0.8844986269996298,356.1259001689996,None,356.1259001689996,None,356.1259001689996,None,357.02713458700055,None,1,0.4514812230008829,357.02713458700055,None,22,357.49482616800015,None,108,B,1,2021_May_21_1053,GazeFlow,2020.1.2,59.93882236195383,
3,Block804.xls,B,4,4,101,5,None,incongruent,Right,Left,Right,76,79,3,blue,2,6,/home/docky/apps/exp/images/76B.jpeg,/home/docky/apps/exp/images/79Bi.jpeg,0,2,2,2,0,3,3,3,358.4963402989997,None,358.4963402989997,None,1,3.6408450859998993,358.4963402989997,None,362.17150343899993,None,362.17150343899993,None,364.6788300289991,None,364.6788300289991,None,1.3344076680004946,366.4780215970004,None,366.4780215970004,None,6,1,0.9180525350002426,367.7982578560004,None,367.7982578560004,None,367.7982578560004,None,368.73301119700045,None,1,0.3510331959987525,368.73301119700045,None,24,369.10042490699925,None,108,B,1,2021_May_21_1053,GazeFlow,2020.1.2,59.93882236195383,
3,Block804.xls,B,4,5,47,47,None,congruent,Right,Right,Left,39,38,1,blue,2,5,/home/docky/apps/exp/images/39Bi.jpeg,/home/docky/apps/exp/images/38B.jpeg,0,2,2,2,0,4,4,4,370.10245297000074,None,370.10245297000074,None,1,4.192411476000416,370.10245297000074,None,374.32825313399917,None,374.32825313399917,None,376.8330555520006,None,376.8330555520006,None,1.8016905820004467,378.63520616700043,None,378.63520616700043,None,5,1,1.018721012000242,380.42278650200024,None,380.42278650200024,None,380.42278650200024,None,381.45796003599935,None,1,0.3506788009999582,381.45796003599935,None,26,381.8251201460007,None,108,B,1,2021_May_21_1053,GazeFlow,2020.1.2,59.93882236195383,
3,Block804.xls,B,4,6,90,90,None,congruent,Right,Right,Left,77,72,5,yellow,2,5,/home/docky/apps/exp/images/77Yi.jpeg,/home/docky/apps/exp/images/72Y.jpeg,0,2,2,2,0,5,5,5,382.82696952100014,None,382.82696952100014,None,1,4.091878463999819,382.82696952100014,None,386.951106601,None,386.951106601,None,389.4573548520002,None,389.4573548520002,None,1.3009166320007353,391.25930793000043,None,391.25930793000043,None,5,1,0.8848248740014242,392.54612522000025,None,392.54612522000025,None,392.54612522000025,None,393.4477770579997,None,1,0.41728530500040506,393.4477770579997,None,28,393.88223956799993,None,108,B,1,2021_May_21_1053,GazeFlow,2020.1.2,59.93882236195383,
3,Block804.xls,B,4,7,12,12,None,congruent,Left,Left,Right,38,39,1,blue,2,6,/home/docky/apps/exp/images/38B.jpeg,/home/docky/apps/exp/images/39Bi.jpeg,0,2,2,2,0,6,6,6,394.88389714000004,None,394.88389714000004,None,1,4.509729442999742,394.88389714000004,None,399.4274934139994,None,399.4274934139994,None,401.9302685469993,None,401.9302685469993,None,1.818332766999447,403.7334307130004,None,403.7334307130004,None,6,1,1.4855368209991866,405.538370925,None,405.538370925,None,405.538370925,None,407.04038577999927,None,1,0.3510064190013509,407.04038577999927,None,30,407.40768074399966,None,108,B,1,2021_May_21_1053,GazeFlow,2020.1.2,59.93882236195383,
3,Block804.xls,B,4,8,20,20,None,congruent,Left,Left,Right,76,79,3,blue,2,6,/home/docky/apps/exp/images/76Bi.jpeg,/home/docky/apps/exp/images/79B.jpeg,0,2,2,2,0,7,7,7,408.4102036740005,None,408.4102036740005,None,1,3.357019539000248,408.4102036740005,None,411.80523579500004,None,411.80523579500004,None,414.30431372599924,None,414.30431372599924,None,1.5842612079995888,416.10281089899945,None,416.10281089899945,None,6,1,0.9524223070002336,417.6785673279992,None,417.6785673279992,None,417.6785673279992,None,418.64693016399906,None,1,0.28405721399940376,418.64693016399906,None,32,418.9475022579991,None,108,B,1,2021_May_21_1053,GazeFlow,2020.1.2,59.93882236195383,
3,Block804.xls,B,,,,,,,,,,,,,,,,,,0,2,2,2,,,,,,,,,,,,,,,,,,,,,,,,,,,,,,,,,,,,,,,,,,,,108,B,1,2021_May_21_1053,GazeFlow,2020.1.2,59.93882236195383,
4,Block814.xls,B,14,1,99,3,None,incongruent,Right,Left,Right,65,66,1,blue,2,6,/home/docky/apps/exp/images/35Yi.jpeg,/home/docky/apps/exp/images/66B.jpeg,0,3,3,3,0,0,0,0,437.65254657699916,None,437.65254657699916,None,1,4.933252532000552,437.65254657699916,None,442.6137025000007,None,442.6137025000007,None,445.1323872089997,None,445.1323872089997,None,1.8679156549987965,446.93545026600077,None,446.93545026600077,None,5,0,0.9355956500003231,448.788941675999,None,448.788941675999,None,448.788941675999,None,449.7405651930003,None,1,0.3504568209991703,449.7405651930003,None,30,450.10750763599935,None,108,B,1,2021_May_21_1053,GazeFlow,2020.1.2,59.93882236195383,
4,Block814.xls,B,14,2,34,34,None,congruent,Right,Right,Left,66,65,1,blue,2,5,/home/docky/apps/exp/images/66B.jpeg,/home/docky/apps/exp/images/35Yi.jpeg,0,3,3,3,0,1,1,1,451.1097156119995,None,451.1097156119995,None,1,3.9582704450003803,451.1097156119995,None,455.1002110900008,None,455.1002110900008,None,457.6124543490005,None,457.6124543490005,None,2.586895842001468,459.40828536499976,None,459.40828536499976,None,6,0,2.971949950000635,461.9983889849991,None,461.9983889849991,None,461.9983889849991,None,464.98685801600004,None,1,0.9858309539995389,464.98685801600004,None,28,465.98883823899996,None,108,B,1,2021_May_21_1053,GazeFlow,2020.1.2,59.93882236195383,
4,Block814.xls,B,14,3,91,91,None,congruent,Right,Right,Left,77,72,5,yellow,2,5,/home/docky/apps/exp/images/77Yi.jpeg,/home/docky/apps/exp/images/72Y.jpeg,0,3,3,3,0,2,2,2,466.99079053199966,None,466.99079053199966,None,1,2.972794827999678,466.99079053199966,None,469.9974042489994,None,469.9974042489994,None,472.50672014299926,None,472.50672014299926,None,1.3676474299991241,474.30399741399924,None,474.30399741399924,None,5,1,1.2022666399989248,475.6579055479997,None,475.6579055479997,None,475.6579055479997,None,476.8765924239997,None,1,0.4170392879987048,476.8765924239997,None,30,477.3104349109999,None,108,B,1,2021_May_21_1053,GazeFlow,2020.1.2,59.93882236195383,
4,Block814.xls,B,14,4,68,68,None,congruent,Left,Left,Right,72,77,5,yellow,2,6,/home/docky/apps/exp/images/72Yi.jpeg,/home/docky/apps/exp/images/77Y.jpeg,0,3,3,3,0,3,3,3,478.3125034320001,None,478.3125034320001,None,1,4.058371620001708,478.3125034320001,None,482.40459560399904,None,482.40459560399904,None,484.90784750400053,None,484.90784750400053,None,1.6845137410000461,486.7130860800007,None,486.7130860800007,None,6,1,1.10193175600034,488.38259217999985,None,488.38259217999985,None,488.38259217999985,None,489.50114641099935,None,1,0.40046200700089685,489.50114641099935,None,32,489.9178560630007,None,108,B,1,2021_May_21_1053,GazeFlow,2020.1.2,59.93882236195383,
4,Block814.xls,B,14,5,66,66,None,congruent,Left,Left,Right,69,76,7,yellow,2,6,/home/docky/apps/exp/images/69Yi.jpeg,/home/docky/apps/exp/images/76Y.jpeg,0,3,3,3,0,4,4,4,490.9199594919992,None,490.9199594919992,None,1,4.860891742000604,490.9199594919992,None,495.8143751280004,None,495.8143751280004,None,498.3189481469999,None,498.3189481469999,None,1.3507838759996957,500.1162642920008,None,500.1162642920008,None,6,1,1.0016670309996698,501.4577670060007,None,501.4577670060007,None,501.4577670060007,None,502.4757641689994,None,1,0.35176871300063794,502.4757641689994,None,34,502.84371087,None,108,B,1,2021_May_21_1053,GazeFlow,2020.1.2,59.93882236195383,
4,Block814.xls,B,14,6,115,19,None,incongruent,Left,Right,Left,80,79,1,yellow,2,5,/home/docky/apps/exp/images/80Yi.jpeg,/home/docky/apps/exp/images/79Y.jpeg,0,3,3,3,0,5,5,5,503.845183342999,None,503.845183342999,None,1,3.5408919799992873,503.845183342999,None,507.4198333280001,None,507.4198333280001,None,509.92336403400077,None,509.92336403400077,None,1.518118735999451,511.72844133999934,None,511.72844133999934,None,5,1,0.9344673619998503,513.2308792959993,None,513.2308792959993,None,513.2308792959993,None,514.1818961530007,None,1,0.40124820100027137,514.1818961530007,None,36,514.5992816609996,None,108,B,1,2021_May_21_1053,GazeFlow,2020.1.2,59.93882236195383,
4,Block814.xls,B,14,7,9,9,None,congruent,Left,Left,Right,65,66,1,blue,2,6,/home/docky/apps/exp/images/35Yi.jpeg,/home/docky/apps/exp/images/66B.jpeg,0,3,3,3,0,6,6,6,515.6017224980005,None,515.6017224980005,None,1,4.793220470000961,515.6017224980005,None,520.4286052000007,None,520.4286052000007,None,522.9320879759998,None,522.9320879759998,None,2.0856111600005534,524.7353007500005,None,524.7353007500005,None,6,1,2.520790398999452,526.8073738790008,None,526.8073738790008,None,526.8073738790008,None,529.3448323909997,None,1,0.30169994499919994,529.3448323909997,None,38,529.6624600310006,None,108,B,1,2021_May_21_1053,GazeFlow,2020.1.2,59.93882236195383,
4,Block814.xls,B,14,8,14,14,None,congruent,Left,Left,Right,38,39,1,blue,2,6,/home/docky/apps/exp/images/38Bi.jpeg,/home/docky/apps/exp/images/39B.jpeg,0,3,3,3,0,7,7,7,530.6644980340006,None,530.6644980340006,None,1,4.525577554000847,530.6644980340006,None,535.2282137870006,None,535.2282137870006,None,537.7265335960001,None,537.7265335960001,None,2.135951489000945,539.5300899720005,None,539.5300899720005,None,6,1,1.2188256819990784,541.6523071779993,None,541.6523071779993,None,541.6523071779993,None,542.8874237199998,None,1,0.2841211810009554,542.8874237199998,None,40,543.1881035869992,None,108,B,1,2021_May_21_1053,GazeFlow,2020.1.2,59.93882236195383,
4,Block814.xls,B,,,,,,,,,,,,,,,,,,0,3,3,3,,,,,,,,,,,,,,,,,,,,,,,,,,,,,,,,,,,,,,,,,,,,108,B,1,2021_May_21_1053,GazeFlow,2020.1.2,59.93882236195383,
5,Block812.xls,B,12,1,18,18,None,congruent,Left,Left,Right,73,76,3,blue,2,6,/home/docky/apps/exp/images/73B.jpeg,/home/docky/apps/exp/images/76Bi.jpeg,0,4,4,4,0,0,0,0,566.8854486809996,None,566.8854486809996,None,1,4.012232074999702,566.8854486809996,None,570.9275492830002,None,570.9275492830002,None,573.4481529290006,None,573.4481529290006,None,2.1683244929990906,575.2486673029998,None,575.2486673029998,None,6,1,1.017929281000761,577.4054914009994,None,577.4054914009994,None,577.4054914009994,None,578.440126943,None,1,0.31728091100012534,578.440126943,None,42,578.7741401799994,None,108,B,1,2021_May_21_1053,GazeFlow,2020.1.2,59.93882236195383,
5,Block812.xls,B,12,2,3,3,None,congruent,Left,Left,Right,16,19,3,blue,2,6,/home/docky/apps/exp/images/16Bi.jpeg,/home/docky/apps/exp/images/19B.jpeg,0,4,4,4,0,1,1,1,579.7760512519999,None,579.7760512519999,None,1,3.707967007001571,579.7760512519999,None,583.5178565719998,None,583.5178565719998,None,586.020919474,None,586.020919474,None,1.417549247000352,587.8240592130005,None,587.8240592130005,None,6,1,0.9344362589999946,589.2284018619994,None,589.2284018619994,None,589.2284018619994,None,590.1796647989995,None,1,0.31774196100013796,590.1796647989995,None,44,590.5133857000001,None,108,B,1,2021_May_21_1053,GazeFlow,2020.1.2,59.93882236195383,
5,Block812.xls,B,12,3,56,56,None,congruent,Left,Left,Right,62,65,3,yellow,2,6,/home/docky/apps/exp/images/38Bi.jpeg,/home/docky/apps/exp/images/35B.jpeg,0,4,4,4,0,2,2,2,591.5157451939995,None,591.5157451939995,None,1,3.5077253469989955,591.5157451939995,None,595.0568620459999,None,595.0568620459999,None,597.5617712639996,None,597.5617712639996,None,2.3191447770004743,599.3637620610007,None,599.3637620610007,None,5,0,0.9679137660004926,601.6692474310003,None,601.6692474310003,None,601.6692474310003,None,602.6536129319993,None,1,0.3674985050001851,602.6536129319993,None,42,603.0379259019992,None,108,B,1,2021_May_21_1053,GazeFlow,2020.1.2,59.93882236195383,
5,Block812.xls,B,12,4,11,11,None,congruent,Left,Left,Right,38,39,1,blue,2,6,/home/docky/apps/exp/images/38B.jpeg,/home/docky/apps/exp/images/39Bi.jpeg,0,4,4,4,0,3,3,3,604.0402404840006,None,604.0402404840006,None,1,4.342566327000895,604.0402404840006,None,608.4160207540008,None,608.4160207540008,None,610.919441607999,None,610.919441607999,None,1.9520216370001435,612.7229686390001,None,612.7229686390001,None,5,0,1.2022269110002526,614.6607326560006,None,614.6607326560006,None,614.6607326560006,None,615.8794304099993,None,1,0.36734638000052655,615.8794304099993,None,40,616.2637426149995,None,108,B,1,2021_May_21_1053,GazeFlow,2020.1.2,59.93882236195383,
5,Block812.xls,B,12,5,116,20,None,incongruent,Left,Right,Left,35,33,2,yellow,2,5,/home/docky/apps/exp/images/35Yi.jpeg,/home/docky/apps/exp/images/33Y.jpeg,0,4,4,4,0,4,4,4,617.2656929509994,None,617.2656929509994,None,1,3.9920800649997545,617.2656929509994,None,621.291024963999,None,621.291024963999,None,623.794144251,None,623.794144251,None,1.9851285400000052,625.5967995989995,None,625.5967995989995,None,6,0,1.2687507639984688,627.5693830879991,None,627.5693830879991,None,627.5693830879991,None,628.8545710670005,None,1,0.317374584999925,628.8545710670005,None,38,629.1884036859992,None,108,B,1,2021_May_21_1053,GazeFlow,2020.1.2,59.93882236195383,
5,Block812.xls,B,12,6,40,40,None,congruent,Right,Right,Left,79,76,3,blue,2,5,/home/docky/apps/exp/images/79Bi.jpeg,/home/docky/apps/exp/images/76B.jpeg,0,4,4,4,0,5,5,5,630.1908779820005,None,630.1908779820005,None,1,4.676278340999488,630.1908779820005,None,634.9006139550002,None,634.9006139550002,None,637.4043054699996,None,637.4043054699996,None,1.284016724999674,639.2024578380006,None,639.2024578380006,None,5,1,0.8508463060006761,640.4777839569997,None,640.4777839569997,None,640.4777839569997,None,641.3454804049998,None,1,0.40114370199989935,641.3454804049998,None,40,641.7630091760002,None,108,B,1,2021_May_21_1053,GazeFlow,2020.1.2,59.93882236195383,
5,Block812.xls,B,12,7,76,76,None,congruent,Right,Right,Left,39,38,1,yellow,2,5,/home/docky/apps/exp/images/39Yi.jpeg,/home/docky/apps/exp/images/38Y.jpeg,0,4,4,4,0,6,6,6,642.7650123519998,None,642.7650123519998,None,1,4.225560273000156,642.7650123519998,None,647.0254884410006,None,647.0254884410006,None,649.527521082,None,649.527521082,None,2.018924125999547,651.3312619789995,None,651.3312619789995,None,5,1,1.4859904539989657,653.3359233970004,None,653.3359233970004,None,653.3359233970004,None,654.8384919309992,None,1,0.46833763900031045,654.8384919309992,None,42,655.3227726389996,None,108,B,1,2021_May_21_1053,GazeFlow,2020.1.2,59.93882236195383,
5,Block812.xls,B,12,8,77,77,None,congruent,Right,Right,Left,39,38,1,yellow,2,5,/home/docky/apps/exp/images/39Y.jpeg,/home/docky/apps/exp/images/38Yi.jpeg,0,4,4,4,0,7,7,7,656.3251343989996,None,656.3251343989996,None,1,4.4588862040000095,656.3251343989996,None,660.8178722449993,None,660.8178722449993,None,663.3226447609995,None,663.3226447609995,None,2.1191989489998377,665.1185951339994,None,665.1185951339994,None,5,1,1.001375725998514,667.2298217049993,None,667.2298217049993,None,667.2298217049993,None,668.2475441070001,None,1,0.4847720189991378,668.2475441070001,None,44,668.7488537400004,None,108,B,1,2021_May_21_1053,GazeFlow,2020.1.2,59.93882236195383,
5,Block812.xls,B,,,,,,,,,,,,,,,,,,0,4,4,4,,,,,,,,,,,,,,,,,,,,,,,,,,,,,,,,,,,,,,,,,,,,108,B,1,2021_May_21_1053,GazeFlow,2020.1.2,59.93882236195383,
6,Block803.xls,B,3,1,84,84,None,congruent,Right,Right,Left,75,69,6,yellow,2,5,/home/docky/apps/exp/images/76Yi.jpeg,/home/docky/apps/exp/images/69Y.jpeg,0,5,5,5,0,0,0,0,696.4360305139999,None,696.4360305139999,None,1,3.5832166119998874,696.4360305139999,None,700.0410566400005,None,700.0410566400005,None,702.5639600350005,None,702.5639600350005,None,1.21675133700046,704.3676040240007,None,704.3676040240007,None,5,1,0.9014316079992568,705.5710241319994,None,705.5710241319994,None,705.5710241319994,None,706.4887379749998,None,1,0.5183992990005208,706.4887379749998,None,46,707.023565214,None,108,B,1,2021_May_21_1053,GazeFlow,2020.1.2,59.93882236195383,
6,Block803.xls,B,3,2,82,82,None,congruent,Right,Right,Left,66,65,1,yellow,2,5,/home/docky/apps/exp/images/66Y.jpeg,/home/docky/apps/exp/images/35Bi.jpeg,0,5,5,5,0,1,1,1,708.025249672999,None,708.025249672999,None,1,4.943341127000167,708.025249672999,None,713.0026049749995,None,713.0026049749995,None,715.5110604500005,None,715.5110604500005,None,2.5202632479995373,717.3092897930001,None,717.3092897930001,None,6,0,1.4684170730015467,719.8326240219994,None,719.8326240219994,None,719.8326240219994,None,721.3179182490003,None,1,0.3338877170008345,721.3179182490003,None,44,721.6685102280007,None,108,B,1,2021_May_21_1053,GazeFlow,2020.1.2,59.93882236195383,
6,Block803.xls,B,3,3,80,80,None,congruent,Right,Right,Left,66,65,1,yellow,2,5,/home/docky/apps/exp/images/66Yi.jpeg,/home/docky/apps/exp/images/35B.jpeg,0,5,5,5,0,2,2,2,722.6706450769998,None,722.6706450769998,None,1,3.707935136000742,722.6706450769998,None,726.4119571409992,None,726.4119571409992,None,728.9163869700005,None,728.9163869700005,None,1.50115830499999,730.7183006840005,None,730.7183006840005,None,5,1,0.8520223880004778,732.2060711070008,None,732.2060711070008,None,732.2060711070008,None,733.0742054790007,None,1,0.38468852400001197,733.0742054790007,None,46,733.474958371,None,108,B,1,2021_May_21_1053,GazeFlow,2020.1.2,59.93882236195383,
6,Block803.xls,B,3,4,79,79,None,congruent,Right,Right,Left,66,65,1,yellow,2,5,/home/docky/apps/exp/images/66Y.jpeg,/home/docky/apps/exp/images/35Bi.jpeg,0,5,5,5,0,3,3,3,734.4764180519996,None,734.4764180519996,None,1,4.025735800001712,734.4764180519996,None,738.535126322,None,738.535126322,None,741.038662858,None,741.038662858,None,1.9018880620005802,742.8437689950006,None,742.8437689950006,None,6,0,2.3708843140011595,744.7302951170004,None,744.7302951170004,None,744.7302951170004,None,747.1179440289998,None,1,0.3342005809990951,747.1179440289998,None,44,747.4688752179991,None,108,B,1,2021_May_21_1053,GazeFlow,2020.1.2,59.93882236195383,
6,Block803.xls,B,3,5,92,92,None,congruent,Right,Right,Left,77,72,5,yellow,2,5,/home/docky/apps/exp/images/77Y.jpeg,/home/docky/apps/exp/images/72Yi.jpeg,0,5,5,5,0,4,4,4,748.4708271380005,None,748.4708271380005,None,1,3.974415716000294,748.4708271380005,None,752.4791337890001,None,752.4791337890001,None,754.9824110760001,None,754.9824110760001,None,1.2338598080004886,756.7858908199996,None,756.7858908199996,None,5,1,0.90126958700057,758.006001800999,None,758.006001800999,None,758.006001800999,None,758.9239056440001,None,1,0.4179213499992329,758.9239056440001,None,46,759.3580085459998,None,108,B,1,2021_May_21_1053,GazeFlow,2020.1.2,59.93882236195383,
6,Block803.xls,B,3,6,106,10,None,incongruent,Left,Right,Left,79,76,3,blue,2,5,/home/docky/apps/exp/images/79Bi.jpeg,/home/docky/apps/exp/images/76B.jpeg,0,5,5,5,0,5,5,5,760.3603243289999,None,760.3603243289999,None,1,4.209131669000271,760.3603243289999,None,764.6030354939994,None,764.6030354939994,None,767.1060442029993,None,767.1060442029993,None,1.351010940001288,768.9090640819995,None,768.9090640819995,None,5,1,0.8848527930003911,770.246440244,None,770.246440244,None,770.246440244,None,771.1477164539992,None,1,0.3680608359991311,771.1477164539992,None,48,771.5322216200002,None,108,B,1,2021_May_21_1053,GazeFlow,2020.1.2,59.93882236195383,
6,Block803.xls,B,3,7,25,25,None,congruent,Right,Right,Left,19,16,3,blue,2,5,/home/docky/apps/exp/images/19Bi.jpeg,/home/docky/apps/exp/images/16B.jpeg,0,5,5,5,0,6,6,6,772.5339230629997,None,772.5339230629997,None,1,4.509746129999257,772.5339230629997,None,777.077012542999,None,777.077012542999,None,779.5796857969999,None,779.5796857969999,None,1.5845094579999568,781.3832321110003,None,781.3832321110003,None,5,1,0.8509653829987656,782.9546747759996,None,782.9546747759996,None,782.9546747759996,None,783.822532524,None,1,0.30158235000089917,783.822532524,None,50,784.1398578120006,None,108,B,1,2021_May_21_1053,GazeFlow,2020.1.2,59.93882236195383,
6,Block803.xls,B,3,8,46,46,None,congruent,Right,Right,Left,39,38,1,blue,2,5,/home/docky/apps/exp/images/39B.jpeg,/home/docky/apps/exp/images/38Bi.jpeg,0,5,5,5,0,7,7,7,785.1417750729997,None,785.1417750729997,None,1,4.860397843998726,785.1417750729997,None,790.0354781850001,None,790.0354781850001,None,792.5398942299998,None,792.5398942299998,None,1.9355152680000174,794.3437935370002,None,794.3437935370002,None,5,1,1.7530885340001987,796.2637303499996,None,796.2637303499996,None,796.2637303499996,None,798.0333242260003,None,1,0.5010753170008684,798.0333242260003,None,52,798.5510284949996,None,108,B,1,2021_May_21_1053,GazeFlow,2020.1.2,59.93882236195383,
6,Block803.xls,B,,,,,,,,,,,,,,,,,,0,5,5,5,,,,,,,,,,,,,,,,,,,,,,,,,,,,,,,,,,,,,,,,,,,,108,B,1,2021_May_21_1053,GazeFlow,2020.1.2,59.93882236195383,
7,Block810.xls,B,10,1,119,23,None,incongruent,Left,Right,Left,76,69,7,yellow,2,5,/home/docky/apps/exp/images/76Yi.jpeg,/home/docky/apps/exp/images/69Y.jpeg,0,6,6,6,0,0,0,0,821.9634235600006,None,821.9634235600006,None,1,4.3155733730000065,821.9634235600006,None,826.3072155730006,None,826.3072155730006,None,828.8274491669999,None,828.8274491669999,None,1.3178575000001729,830.6310312170008,None,830.6310312170008,None,5,1,0.9848107850011729,831.9330040339992,None,831.9330040339992,None,831.9330040339992,None,832.9354050839993,None,1,0.3669888690001244,832.9354050839993,None,54,833.3187992099993,None,108,B,1,2021_May_21_1053,GazeFlow,2020.1.2,59.93882236195383,
7,Block810.xls,B,10,2,43,43,None,congruent,Right,Right,Left,83,80,3,blue,2,5,/home/docky/apps/exp/images/83B.jpeg,/home/docky/apps/exp/images/80Bi.jpeg,0,6,6,6,0,1,1,1,834.3203259239999,None,834.3203259239999,None,1,4.126318847998846,834.3203259239999,None,838.4814261789998,None,838.4814261789998,None,840.9845492170007,None,840.9845492170007,None,1.250605462000749,842.7878846069998,None,842.7878846069998,None,5,1,0.8340212129987776,844.0233301190001,None,844.0233301190001,None,844.0233301190001,None,844.8743016669996,None,1,0.48428764500022226,844.8743016669996,None,56,845.3750401750003,None,108,B,1,2021_May_21_1053,GazeFlow,2020.1.2,59.93882236195383,
7,Block810.xls,B,10,3,53,53,None,congruent,Left,Left,Right,65,66,1,yellow,2,6,/home/docky/apps/exp/images/35Bi.jpeg,/home/docky/apps/exp/images/66Y.jpeg,0,6,6,6,0,2,2,2,846.3772390279992,None,846.3772390279992,None,1,3.8246479939989513,846.3772390279992,None,850.2340926720008,None,850.2340926720008,None,852.7405709899995,None,852.7405709899995,None,1.9853003789994546,854.5424384039998,None,854.5424384039998,None,6,1,1.0681367630004388,856.5140696889994,None,856.5140696889994,None,856.5140696889994,None,857.5989016269996,None,1,0.36750971999936155,857.5989016269996,None,58,857.9828829369999,None,108,B,1,2021_May_21_1053,GazeFlow,2020.1.2,59.93882236195383,
7,Block810.xls,B,10,4,74,74,None,congruent,Right,Right,Left,35,33,2,yellow,2,5,/home/docky/apps/exp/images/35Y.jpeg,/home/docky/apps/exp/images/33Yi.jpeg,0,6,6,6,0,3,3,3,858.9851001080006,None,858.9851001080006,None,1,4.309382937000919,858.9851001080006,None,863.3278169130008,None,863.3278169130008,None,865.8310713249994,None,865.8310713249994,None,1.6014591959992686,867.6357871799992,None,867.6357871799992,None,5,1,1.1857120719996601,869.2221105469998,None,869.2221105469998,None,869.2221105469998,None,870.424035824999,None,1,0.38386121400071715,870.424035824999,None,60,870.8247526510004,None,108,B,1,2021_May_21_1053,GazeFlow,2020.1.2,59.93882236195383,
7,Block810.xls,B,10,5,21,21,None,congruent,Left,Left,Right,76,79,3,blue,2,6,/home/docky/apps/exp/images/76B.jpeg,/home/docky/apps/exp/images/79Bi.jpeg,0,6,6,6,0,4,4,4,871.8265624590003,None,871.8265624590003,None,1,4.409289121000256,871.8265624590003,None,876.2695352459996,None,876.2695352459996,None,878.7742383479999,None,878.7742383479999,None,1.8684376469991548,880.5761465449996,None,880.5761465449996,None,6,1,0.9852916969994112,882.4310970490005,None,882.4310970490005,None,882.4310970490005,None,883.4327006759995,None,1,0.3505097300003399,883.4327006759995,None,62,883.7997359340006,None,108,B,1,2021_May_21_1053,GazeFlow,2020.1.2,59.93882236195383,
7,Block810.xls,B,10,6,85,85,None,congruent,Right,Right,Left,75,69,6,yellow,2,5,/home/docky/apps/exp/images/76Y.jpeg,/home/docky/apps/exp/images/69Yi.jpeg,0,6,6,6,0,5,5,5,884.801661939,None,884.801661939,None,1,3.6078648030015756,884.801661939,None,888.4434123030005,None,888.4434123030005,None,890.9480879170005,None,890.9480879170005,None,1.6513855239991244,892.7493550470008,None,892.7493550470008,None,5,1,0.9344092400006048,894.3877684309991,None,894.3877684309991,None,894.3877684309991,None,895.338942544,None,1,0.43396060899976874,895.338942544,None,64,895.7896929620001,None,108,B,1,2021_May_21_1053,GazeFlow,2020.1.2,59.93882236195383,
7,Block810.xls,B,10,7,49,49,None,congruent,Left,Left,Right,33,35,2,yellow,2,6,/home/docky/apps/exp/images/33Yi.jpeg,/home/docky/apps/exp/images/35Y.jpeg,0,6,6,6,0,6,6,6,896.7916484710004,None,896.7916484710004,None,1,4.275745914001163,896.7916484710004,None,901.0993162630002,None,901.0993162630002,None,903.6044013520004,None,903.6044013520004,None,2.887762174999807,905.407271516,None,905.407271516,None,6,1,1.2347502470001928,908.2985476630001,None,908.2985476630001,None,908.2985476630001,None,909.5497933869992,None,1,0.3674566150002647,909.5497933869992,None,66,909.9340166860002,None,108,B,1,2021_May_21_1053,GazeFlow,2020.1.2,59.93882236195383,
7,Block810.xls,B,10,8,63,63,None,congruent,Left,Left,Right,38,39,1,yellow,2,6,/home/docky/apps/exp/images/38Y.jpeg,/home/docky/apps/exp/images/39Yi.jpeg,0,6,6,6,0,7,7,7,910.9363123460007,None,910.9363123460007,None,1,3.65713450200019,910.9363123460007,None,914.6259175230007,None,914.6259175230007,None,917.1302542279991,None,917.1302542279991,None,1.9520838759999606,918.9338175619996,None,918.9338175619996,None,5,0,1.5862730640001246,920.8723350029995,None,920.8723350029995,None,920.8723350029995,None,922.4747753829997,None,1,0.3842327380007191,922.4747753829997,None,64,922.8757011840007,None,108,B,1,2021_May_21_1053,GazeFlow,2020.1.2,59.93882236195383,
7,Block810.xls,B,,,,,,,,,,,,,,,,,,0,6,6,6,,,,,,,,,,,,,,,,,,,,,,,,,,,,,,,,,,,,,,,,,,,,108,B,1,2021_May_21_1053,GazeFlow,2020.1.2,59.93882236195383,
8,Block801.xls,B,1,1,1,1,None,congruent,Left,Left,Right,16,19,3,blue,2,6,/home/docky/apps/exp/images/16Bi.jpeg,/home/docky/apps/exp/images/19B.jpeg,0,7,7,7,0,0,0,0,945.5701471030006,None,945.5701471030006,None,1,3.2149804809996567,945.5701471030006,None,948.8120472400005,None,948.8120472400005,None,951.332060019,None,951.332060019,None,1.4173805190002895,953.1294516269991,None,953.1294516269991,None,6,1,1.1024125419990014,954.5379249550006,None,954.5379249550006,None,954.5379249550006,None,955.6567016770005,None,1,0.3504045509998832,955.6567016770005,None,66,956.0233060690007,None,108,B,1,2021_May_21_1053,GazeFlow,2020.1.2,59.93882236195383,
8,Block801.xls,B,1,2,105,9,None,incongruent,Left,Right,Left,79,73,6,blue,2,5,/home/docky/apps/exp/images/79B.jpeg,/home/docky/apps/exp/images/73Bi.jpeg,0,7,7,7,0,1,1,1,957.0254405800006,None,957.0254405800006,None,1,3.3571090330005973,957.0254405800006,None,960.4167075250007,None,960.4167075250007,None,962.9209767430002,None,962.9209767430002,None,1.7350913310001488,964.7232605999998,None,964.7232605999998,None,5,1,1.1860860159995354,966.4442789149998,None,966.4442789149998,None,966.4442789149998,None,967.6463026290003,None,1,0.4007702460003202,967.6463026290003,None,68,968.0633487150008,None,108,B,1,2021_May_21_1053,GazeFlow,2020.1.2,59.93882236195383,
8,Block801.xls,B,1,3,62,62,None,congruent,Left,Left,Right,38,39,1,yellow,2,6,/home/docky/apps/exp/images/38Y.jpeg,/home/docky/apps/exp/images/39Yi.jpeg,0,7,7,7,0,2,2,2,969.0654298320005,None,969.0654298320005,None,1,3.7913042590007535,969.0654298320005,None,972.8890086899992,None,972.8890086899992,None,975.3956520569991,None,975.3956520569991,None,1.9352968580005836,977.1922186909997,None,977.1922186909997,None,6,1,0.9184836730000825,979.1188941330001,None,979.1188941330001,None,979.1188941330001,None,980.0537402179998,None,1,0.25056994300030055,980.0537402179998,None,70,980.3205580890008,None,108,B,1,2021_May_21_1053,GazeFlow,2020.1.2,59.93882236195383,
8,Block801.xls,B,1,4,38,38,None,congruent,Right,Right,Left,79,73,6,blue,2,5,/home/docky/apps/exp/images/79B.jpeg,/home/docky/apps/exp/images/73Bi.jpeg,0,7,7,7,0,3,3,3,981.322948777999,None,981.322948777999,None,1,3.6080464650003705,981.322948777999,None,984.9638407380007,None,984.9638407380007,None,987.4669652810007,None,987.4669652810007,None,1.4011871620004968,989.2701590039997,None,989.2701590039997,None,5,1,0.9518238749988086,990.6580470909994,None,990.6580470909994,None,990.6580470909994,None,991.6262340499998,None,1,0.36802093999904173,991.6262340499998,None,72,992.0103695960006,None,108,B,1,2021_May_21_1053,GazeFlow,2020.1.2,59.93882236195383,
8,Block801.xls,B,1,5,6,6,None,congruent,Left,Left,Right,35,38,3,blue,2,6,/home/docky/apps/exp/images/35Bi.jpeg,/home/docky/apps/exp/images/38B.jpeg,0,7,7,7,0,4,4,4,993.0121639169993,None,993.0121639169993,None,1,5.09347392699965,993.0121639169993,None,998.1403685059995,None,998.1403685059995,None,1000.6442500360008,None,1000.6442500360008,None,1.6515737120007543,1002.4461775870004,None,1002.4461775870004,None,6,1,0.8685958149999351,1004.084277467,None,1004.084277467,None,1004.084277467,None,1004.9688981109994,None,1,0.28387237200149684,1004.9688981109994,None,74,1005.2694938509994,None,108,B,1,2021_May_21_1053,GazeFlow,2020.1.2,59.93882236195383,
8,Block801.xls,B,1,6,51,51,None,congruent,Left,Left,Right,33,35,2,yellow,2,6,/home/docky/apps/exp/images/33Yi.jpeg,/home/docky/apps/exp/images/35Y.jpeg,0,7,7,7,0,5,5,5,1006.2710926679993,None,1006.2710926679993,None,1,3.825064641001518,1006.2710926679993,None,1010.129529496,None,1010.129529496,None,1012.6325869640004,None,1012.6325869640004,None,1.7515632059985364,1014.4363162819991,None,1014.4363162819991,None,6,1,0.8354817689996707,1016.1739199200001,None,1016.1739199200001,None,1016.1739199200001,None,1017.0256649910007,None,1,0.2841392400005134,1017.0256649910007,None,76,1017.3262935660005,None,108,B,1,2021_May_21_1053,GazeFlow,2020.1.2,59.93882236195383,
8,Block801.xls,B,1,7,73,73,None,congruent,Right,Right,Left,35,33,2,yellow,2,5,/home/docky/apps/exp/images/35Yi.jpeg,/home/docky/apps/exp/images/33Y.jpeg,0,7,7,7,0,6,6,6,1018.3275413289994,None,1018.3275413289994,None,1,3.2574036859987245,1018.3275413289994,None,1021.6186562359999,None,1021.6186562359999,None,1024.1217586139992,None,1024.1217586139992,None,2.302878149999742,1025.9252222369996,None,1025.9252222369996,None,6,0,2.152720218000468,1028.2150623319994,None,1028.2150623319994,None,1028.2150623319994,None,1030.3846445479994,None,1,0.30143031300031,1030.3846445479994,None,74,1030.7021480090007,None,108,B,1,2021_May_21_1053,GazeFlow,2020.1.2,59.93882236195383,
8,Block801.xls,B,1,8,96,96,None,congruent,Right,Right,Left,80,79,1,yellow,2,5,/home/docky/apps/exp/images/80Yi.jpeg,/home/docky/apps/exp/images/79Y.jpeg,0,7,7,7,0,7,7,7,1031.704207888999,None,1031.704207888999,None,1,3.4736632040003315,1031.704207888999,None,1035.2113868420001,None,1035.2113868420001,None,1037.7163684530005,None,1037.7163684530005,None,1.451205381001273,1039.5177409509997,None,1039.5177409509997,None,5,1,0.8348210510011995,1040.9556561549998,None,1040.9556561549998,None,1040.9556561549998,None,1041.8072932129999,None,1,0.35047789400050533,1041.8072932129999,None,76,1042.1743408900002,None,108,B,1,2021_May_21_1053,GazeFlow,2020.1.2,59.93882236195383,
8,Block801.xls,B,,,,,,,,,,,,,,,,,,0,7,7,7,,,,,,,,,,,,,,,,,,,,,,,,,,,,,,,,,,,,,,,,,,,,108,B,1,2021_May_21_1053,GazeFlow,2020.1.2,59.93882236195383,
9,Block802.xls,B,2,1,30,30,None,congruent,Right,Right,Left,38,35,3,blue,2,5,/home/docky/apps/exp/images/38B.jpeg,/home/docky/apps/exp/images/35Bi.jpeg,0,8,8,8,0,0,0,0,1069.6302500099991,None,1069.6302500099991,None,1,4.265103489000467,1069.6302500099991,None,1073.9256576330008,None,1073.9256576330008,None,1076.4417543960008,None,1076.4417543960008,None,0.982849198000622,1078.2425791620008,None,1078.2425791620008,None,5,1,0.8677645520001533,1079.2133335830003,None,1079.2133335830003,None,1079.2133335830003,None,1080.0978397340004,None,1,0.38421120200109726,1080.0978397340004,None,78,1080.4983404659997,None,108,B,1,2021_May_21_1053,GazeFlow,2020.1.2,59.93882236195383,
9,Block802.xls,B,2,2,5,5,None,congruent,Left,Left,Right,35,38,3,blue,2,6,/home/docky/apps/exp/images/35B.jpeg,/home/docky/apps/exp/images/38Bi.jpeg,0,8,8,8,0,1,1,1,1081.500496707,None,1081.500496707,None,1,4.1592695190011,1081.500496707,None,1085.6929509879992,None,1085.6929509879992,None,1088.1963488580004,None,1088.1963488580004,None,2.5704379309991054,1089.9998249399996,None,1089.9998249399996,None,6,1,2.405177933998857,1092.571605351999,None,1092.571605351999,None,1092.571605351999,None,1094.9933702950002,None,1,0.2844499020011426,1094.9933702950002,None,80,1095.2942429239993,None,108,B,1,2021_May_21_1053,GazeFlow,2020.1.2,59.93882236195383,
9,Block802.xls,B,2,3,103,7,None,incongruent,Left,Right,Left,19,16,3,blue,2,5,/home/docky/apps/exp/images/19Bi.jpeg,/home/docky/apps/exp/images/16B.jpeg,0,8,8,8,0,2,2,2,1096.2963109079992,None,1096.2963109079992,None,1,3.3736573139995016,1096.2963109079992,None,1099.7033622529998,None,1099.7033622529998,None,1102.2132284309992,None,1102.2132284309992,None,2.118999960999645,1104.0098449479992,None,1104.0098449479992,None,5,1,1.034905450000224,1106.1154857450001,None,1106.1154857450001,None,1106.1154857450001,None,1107.1669999040005,None,1,0.3841774489992531,1107.1669999040005,None,82,1107.567615172,None,108,B,1,2021_May_21_1053,GazeFlow,2020.1.2,59.93882236195383,
9,Block802.xls,B,2,4,35,35,None,congruent,Right,Right,Left,66,65,1,blue,2,5,/home/docky/apps/exp/images/66B.jpeg,/home/docky/apps/exp/images/35Yi.jpeg,0,8,8,8,0,3,3,3,1108.5697269449993,None,1108.5697269449993,None,1,3.9922549599996273,1108.5697269449993,None,1112.5949329199993,None,1112.5949329199993,None,1115.0978714030007,None,1115.0978714030007,None,1.9686552260009194,1116.901102369,None,1116.901102369,None,6,0,1.0852605310010404,1118.8567856869995,None,1118.8567856869995,None,1118.8567856869995,None,1119.9584604880001,None,1,0.31734392100042896,1119.9584604880001,None,80,1120.2921820779993,None,108,B,1,2021_May_21_1053,GazeFlow,2020.1.2,59.93882236195383,
9,Block802.xls,B,2,5,42,42,None,congruent,Right,Right,Left,83,80,3,blue,2,5,/home/docky/apps/exp/images/83Bi.jpeg,/home/docky/apps/exp/images/80B.jpeg,0,8,8,8,0,4,4,4,1121.2947123569993,None,1121.2947123569993,None,1,3.239990267000394,1121.2947123569993,None,1124.5685889069991,None,1124.5685889069991,None,1127.071859792999,None,1127.071859792999,None,1.4343604290006624,1128.8766995810001,None,1128.8766995810001,None,5,1,0.8010729110010288,1130.2958938890006,None,1130.2958938890006,None,1130.2958938890006,None,1131.1134202449994,None,1,0.3847740679993876,1131.1134202449994,None,82,1131.5146388560006,None,108,B,1,2021_May_21_1053,GazeFlow,2020.1.2,59.93882236195383,
9,Block802.xls,B,2,6,104,8,None,incongruent,Left,Right,Left,38,35,3,blue,2,5,/home/docky/apps/exp/images/38B.jpeg,/home/docky/apps/exp/images/35Bi.jpeg,0,8,8,8,0,5,5,5,1132.5164331409997,None,1132.5164331409997,None,1,5.577888473000712,1132.5164331409997,None,1138.1281819439992,None,1138.1281819439992,None,1140.6313639590007,None,1140.6313639590007,None,1.5850475580009515,1142.4351981420004,None,1142.4351981420004,None,5,1,0.9518788149998727,1144.0058286149997,None,1144.0058286149997,None,1144.0058286149997,None,1144.974063190999,None,1,0.40098897099960595,1144.974063190999,None,84,1145.391133362,None,108,B,1,2021_May_21_1053,GazeFlow,2020.1.2,59.93882236195383,
9,Block802.xls,B,2,7,22,22,None,congruent,Left,Left,Right,80,83,3,blue,2,6,/home/docky/apps/exp/images/80Bi.jpeg,/home/docky/apps/exp/images/83B.jpeg,0,8,8,8,0,6,6,6,1146.3931585669998,None,1146.3931585669998,None,1,3.59099139799946,1146.3931585669998,None,1150.017831531999,None,1150.017831531999,None,1152.5211919049998,None,1152.5211919049998,None,1.3173698230002628,1154.326171614999,None,1154.326171614999,None,6,1,0.8510613730013574,1155.628322175,None,1155.628322175,None,1155.628322175,None,1156.4959626569998,None,1,0.3181396849995508,1156.4959626569998,None,86,1156.8306278029995,None,108,B,1,2021_May_21_1053,GazeFlow,2020.1.2,59.93882236195383,
9,Block802.xls,B,2,8,54,54,None,congruent,Left,Left,Right,65,66,1,yellow,2,6,/home/docky/apps/exp/images/35Bi.jpeg,/home/docky/apps/exp/images/66Y.jpeg,0,8,8,8,0,7,7,7,1157.831872061999,None,1157.831872061999,None,1,3.642140465999546,1157.831872061999,None,1161.507013122,None,1161.507013122,None,1164.0100371999997,None,1164.0100371999997,None,2.3029054409998935,1165.8127170349999,None,1165.8127170349999,None,5,0,2.0871479790002923,1168.102688130999,None,1168.102688130999,None,1168.102688130999,None,1170.2061868269993,None,1,0.31775095499870076,1170.2061868269993,None,84,1170.5404410379997,None,108,B,1,2021_May_21_1053,GazeFlow,2020.1.2,59.93882236195383,
9,Block802.xls,B,,,,,,,,,,,,,,,,,,0,8,8,8,,,,,,,,,,,,,,,,,,,,,,,,,,,,,,,,,,,,,,,,,,,,108,B,1,2021_May_21_1053,GazeFlow,2020.1.2,59.93882236195383,
10,Block813.xls,B,13,1,70,70,None,congruent,Left,Left,Right,79,82,3,yellow,2,6,/home/docky/apps/exp/images/79Yi.jpeg,/home/docky/apps/exp/images/80Y.jpeg,0,9,9,9,0,0,0,0,1189.8624677869993,None,1189.8624677869993,None,1,2.9594706160005444,1189.8624677869993,None,1192.8524720709993,None,1192.8524720709993,None,1195.3727770450005,None,1195.3727770450005,None,2.4197623410000233,1197.1709374380007,None,1197.1709374380007,None,6,1,4.073981766001452,1199.5810387450001,None,1199.5810387450001,None,1199.5810387450001,None,1203.6714762310003,None,1,0.3508785970007011,1203.6714762310003,None,86,1204.0388357409993,None,108,B,1,2021_May_21_1053,GazeFlow,2020.1.2,59.93882236195383,
10,Block813.xls,B,13,2,60,60,None,congruent,Left,Left,Right,38,39,1,yellow,2,6,/home/docky/apps/exp/images/38Yi.jpeg,/home/docky/apps/exp/images/39Y.jpeg,0,9,9,9,0,1,1,1,1205.0408237329993,None,1205.0408237329993,None,1,3.3902003720013454,1205.0408237329993,None,1208.4643675169991,None,1208.4643675169991,None,1210.9697318809995,None,1210.9697318809995,None,2.0189170059984463,1212.7709910819995,None,1212.7709910819995,None,6,1,2.9230037779998383,1214.7763474679996,None,1214.7763474679996,None,1214.7763474679996,None,1217.7152820419997,None,1,0.43483661899881554,1217.7152820419997,None,88,1218.1661948630008,None,108,B,1,2021_May_21_1053,GazeFlow,2020.1.2,59.93882236195383,
10,Block813.xls,B,13,3,81,81,None,congruent,Right,Right,Left,66,65,1,yellow,2,5,/home/docky/apps/exp/images/66Y.jpeg,/home/docky/apps/exp/images/35Bi.jpeg,0,9,9,9,0,2,2,2,1219.168249196,None,1219.168249196,None,1,3.356808729999102,1219.168249196,None,1222.5587603109998,None,1222.5587603109998,None,1225.0620474520001,None,1225.0620474520001,None,2.353302135999911,1226.8643324570003,None,1226.8643324570003,None,6,0,2.153646030001255,1229.2049289419992,None,1229.2049289419992,None,1229.2049289419992,None,1231.3751126459993,None,1,0.40128061399991566,1231.3751126459993,None,86,1231.7927450459993,None,108,B,1,2021_May_21_1053,GazeFlow,2020.1.2,59.93882236195383,
10,Block813.xls,B,13,4,110,14,None,incongruent,Right,Left,Right,65,66,1,yellow,2,6,/home/docky/apps/exp/images/35B.jpeg,/home/docky/apps/exp/images/66Yi.jpeg,0,9,9,9,0,3,3,3,1232.7946829310004,None,1232.7946829310004,None,1,3.4069732439984364,1232.7946829310004,None,1236.2354469820002,None,1236.2354469820002,None,1238.7449993200007,None,1238.7449993200007,None,2.2524210619994847,1240.5416615590002,None,1240.5416615590002,None,6,1,3.2065773040012573,1242.7807256529995,None,1242.7807256529995,None,1242.7807256529995,None,1246.0037997220006,None,1,0.3177496739990602,1246.0037997220006,None,88,1246.3376915219997,None,108,B,1,2021_May_21_1053,GazeFlow,2020.1.2,59.93882236195383,
10,Block813.xls,B,13,5,17,17,None,congruent,Left,Left,Right,73,76,3,blue,2,6,/home/docky/apps/exp/images/73Bi.jpeg,/home/docky/apps/exp/images/76B.jpeg,0,9,9,9,0,4,4,4,1247.3397745809998,None,1247.3397745809998,None,1,3.5069012259991723,1247.3397745809998,None,1250.8806105149997,None,1250.8806105149997,None,1253.3884591919996,None,1253.3884591919996,None,2.4031195799998386,1255.182517612,None,1255.182517612,None,6,1,2.0527129450001667,1257.576991423999,None,1257.576991423999,None,1257.576991423999,None,1259.646293533,None,1,0.3012642949997826,1259.646293533,None,90,1259.9641780740003,None,108,B,1,2021_May_21_1053,GazeFlow,2020.1.2,59.93882236195383,
10,Block813.xls,B,13,6,111,15,None,incongruent,Right,Left,Right,62,65,3,yellow,2,6,/home/docky/apps/exp/images/38B.jpeg,/home/docky/apps/exp/images/35Bi.jpeg,0,9,9,9,0,5,5,5,1260.966061437999,None,1260.966061437999,None,1,3.4740730130015436,1260.966061437999,None,1264.4736909000003,None,1264.4736909000003,None,1266.9765291599997,None,1266.9765291599997,None,2.252531973999794,1268.7799873109998,None,1268.7799873109998,None,6,1,2.121026870998321,1271.0191109070001,None,1271.0191109070001,None,1271.0191109070001,None,1273.1565277440004,None,1,0.33441037199918355,1273.1565277440004,None,92,1273.5071807879995,None,108,B,1,2021_May_21_1053,GazeFlow,2020.1.2,59.93882236195383,
10,Block813.xls,B,13,7,55,55,None,congruent,Left,Left,Right,65,66,1,yellow,2,6,/home/docky/apps/exp/images/35B.jpeg,/home/docky/apps/exp/images/66Yi.jpeg,0,9,9,9,0,6,6,6,1274.5091129480006,None,1274.5091129480006,None,1,3.991701937999096,1274.5091129480006,None,1278.5356590840001,None,1278.5356590840001,None,1281.0391844570004,None,1281.0391844570004,None,1.534550139998828,1282.840930069,None,1282.840930069,None,6,1,0.9182562109999708,1284.3618203229998,None,1284.3618203229998,None,1284.3618203229998,None,1285.2966636639994,None,1,0.28415363500062085,1285.2966636639994,None,94,1285.597340057,None,108,B,1,2021_May_21_1053,GazeFlow,2020.1.2,59.93882236195383,
10,Block813.xls,B,13,8,26,26,None,congruent,Right,Right,Left,19,16,3,blue,2,5,/home/docky/apps/exp/images/19B.jpeg,/home/docky/apps/exp/images/16Bi.jpeg,0,9,9,9,0,7,7,7,1286.5987858570006,None,1286.5987858570006,None,1,3.5246249240008183,1286.5987858570006,None,1290.1568586169997,None,1290.1568586169997,None,1292.6648852359995,None,1292.6648852359995,None,1.3508866239990311,1294.4634428440004,None,1294.4634428440004,None,5,1,0.8676680759999726,1295.8008514859994,None,1295.8008514859994,None,1295.8008514859994,None,1296.6851539790005,None,1,0.43470788600097876,1296.6851539790005,None,96,1297.1363788319995,None,108,B,1,2021_May_21_1053,GazeFlow,2020.1.2,59.93882236195383,
10,Block813.xls,B,,,,,,,,,,,,,,,,,,0,9,9,9,,,,,,,,,,,,,,,,,,,,,,,,,,,,,,,,,,,,,,,,,,,,108,B,1,2021_May_21_1053,GazeFlow,2020.1.2,59.93882236195383,
11,Block806.xls,B,6,1,10,10,None,congruent,Left,Left,Right,65,66,1,blue,2,6,/home/docky/apps/exp/images/35Y.jpeg,/home/docky/apps/exp/images/66Bi.jpeg,0,10,10,10,0,0,0,0,1315.957251975,None,1315.957251975,None,1,3.0764593219992094,1315.957251975,None,1319.0649306640007,None,1319.0649306640007,None,1321.5843137810007,None,1321.5843137810007,None,1.3000319999991916,1323.3684980079997,None,1323.3684980079997,None,6,1,0.8843780659990443,1324.6565526520008,None,1324.6565526520008,None,1324.6565526520008,None,1325.5576917229992,None,1,0.30138097500093863,1325.5576917229992,None,98,1325.8754827449993,None,108,B,1,2021_May_21_1053,GazeFlow,2020.1.2,59.93882236195383,
11,Block806.xls,B,6,2,89,89,None,congruent,Right,Right,Left,76,69,7,yellow,2,5,/home/docky/apps/exp/images/76Yi.jpeg,/home/docky/apps/exp/images/69Y.jpeg,0,10,10,10,0,1,1,1,1326.8768141479995,None,1326.8768141479995,None,1,3.6245985579989792,1326.8768141479995,None,1330.5353362490005,None,1330.5353362490005,None,1333.0402228359999,None,1333.0402228359999,None,1.167251494998709,1334.8417994739993,None,1334.8417994739993,None,5,1,0.9013342239995836,1335.9951850779998,None,1335.9951850779998,None,1335.9951850779998,None,1336.913104194,None,1,0.3852073849993758,1336.913104194,None,100,1337.3143134849997,None,108,B,1,2021_May_21_1053,GazeFlow,2020.1.2,59.93882236195383,
11,Block806.xls,B,6,3,88,88,None,congruent,Right,Right,Left,76,69,7,yellow,2,5,/home/docky/apps/exp/images/76Y.jpeg,/home/docky/apps/exp/images/69Yi.jpeg,0,10,10,10,0,2,2,2,1338.3159425350004,None,1338.3159425350004,None,1,3.307646145000035,1338.3159425350004,None,1341.6567261159998,None,1341.6567261159998,None,1344.1593971660004,None,1344.1593971660004,None,0.8666149229993607,1345.9630170750006,None,1345.9630170750006,None,5,1,0.9516314080010488,1346.8162225209999,None,1346.8162225209999,None,1346.8162225209999,None,1347.7843463789995,None,1,0.4679144490000908,1347.7843463789995,None,102,1348.2690110410003,None,108,B,1,2021_May_21_1053,GazeFlow,2020.1.2,59.93882236195383,
11,Block806.xls,B,6,4,109,13,None,incongruent,Right,Left,Right,33,35,2,yellow,2,6,/home/docky/apps/exp/images/33Yi.jpeg,/home/docky/apps/exp/images/35Y.jpeg,0,10,10,10,0,3,3,3,1349.2706347820003,None,1349.2706347820003,None,1,3.2073622070001875,1349.2706347820003,None,1352.5112046060003,None,1352.5112046060003,None,1355.0141098040003,None,1355.0141098040003,None,2.135704761998568,1356.8166147020002,None,1356.8166147020002,None,6,1,3.0225160330010112,1358.9399298000008,None,1358.9399298000008,None,1358.9399298000008,None,1361.9789614679994,None,1,0.8852664099995309,1361.9789614679994,None,104,1362.880687277,None,108,B,1,2021_May_21_1053,GazeFlow,2020.1.2,59.93882236195383,
11,Block806.xls,B,6,5,37,37,None,congruent,Right,Right,Left,79,73,6,blue,2,5,/home/docky/apps/exp/images/79Bi.jpeg,/home/docky/apps/exp/images/73B.jpeg,0,10,10,10,0,4,4,4,1363.8827179979999,None,1363.8827179979999,None,1,3.7241326160001336,1363.8827179979999,None,1367.640661682999,None,1367.640661682999,None,1370.145226105,None,1370.145226105,None,1.2006816239991167,1371.9472204590002,None,1371.9472204590002,None,5,1,0.9014003390002472,1373.134035616,None,1373.134035616,None,1373.134035616,None,1374.051830544,None,1,0.43534912199902465,1374.051830544,None,106,1374.5033000420008,None,108,B,1,2021_May_21_1053,GazeFlow,2020.1.2,59.93882236195383,
11,Block806.xls,B,6,6,108,12,None,incongruent,Left,Right,Left,39,38,1,blue,2,5,/home/docky/apps/exp/images/39Bi.jpeg,/home/docky/apps/exp/images/38B.jpeg,0,10,10,10,0,5,5,5,1375.5047061189998,None,1375.5047061189998,None,1,4.342653216999679,1375.5047061189998,None,1379.8809134719995,None,1379.8809134719995,None,1382.384176784999,None,1382.384176784999,None,1.5011478750002425,1384.1824130549994,None,1384.1824130549994,None,6,0,0.9351547049991495,1385.6752742949993,None,1385.6752742949993,None,1385.6752742949993,None,1386.6268352290008,None,1,0.35121364000042377,1386.6268352290008,None,104,1386.9941466279997,None,108,B,1,2021_May_21_1053,GazeFlow,2020.1.2,59.93882236195383,
11,Block806.xls,B,6,7,52,52,None,congruent,Left,Left,Right,65,66,1,yellow,2,6,/home/docky/apps/exp/images/35B.jpeg,/home/docky/apps/exp/images/66Yi.jpeg,0,10,10,10,0,6,6,6,1387.9957455250005,None,1387.9957455250005,None,1,3.373694145000627,1387.9957455250005,None,1391.4033068730005,None,1391.4033068730005,None,1393.9080243949993,None,1393.9080243949993,None,2.102388773999337,1395.7096292309998,None,1395.7096292309998,None,6,1,1.1354263779994653,1397.7986765179994,None,1397.7986765179994,None,1397.7986765179994,None,1398.9503871969991,None,1,0.4173972069984302,1398.9503871969991,None,106,1399.3846487219998,None,108,B,1,2021_May_21_1053,GazeFlow,2020.1.2,59.93882236195383,
11,Block806.xls,B,6,8,75,75,None,congruent,Right,Right,Left,35,33,2,yellow,2,5,/home/docky/apps/exp/images/35Yi.jpeg,/home/docky/apps/exp/images/33Y.jpeg,0,10,10,10,0,7,7,7,1400.3868920839996,None,1400.3868920839996,None,1,3.5571497830005683,1400.3868920839996,None,1403.9778375530004,None,1403.9778375530004,None,1406.4826028980006,None,1406.4826028980006,None,1.7015393910005514,1408.2860662519997,None,1408.2860662519997,None,5,1,1.1191965640009585,1409.97206371,None,1409.97206371,None,1409.97206371,None,1411.1076634990004,None,1,0.35055550500146637,1411.1076634990004,None,108,1411.4746407519997,None,108,B,1,2021_May_21_1053,GazeFlow,2020.1.2,59.93882236195383,
11,Block806.xls,B,,,,,,,,,,,,,,,,,,0,10,10,10,,,,,,,,,,,,,,,,,,,,,,,,,,,,,,,,,,,,,,,,,,,,108,B,1,2021_May_21_1053,GazeFlow,2020.1.2,59.93882236195383,
12,Block811.xls,B,11,1,86,86,None,congruent,Right,Right,Left,75,69,6,yellow,2,5,/home/docky/apps/exp/images/76Y.jpeg,/home/docky/apps/exp/images/69Yi.jpeg,0,11,11,11,0,0,0,0,1435.3221953699995,None,1435.3221953699995,None,1,3.363957924000715,1435.3221953699995,None,1438.7082486609997,None,1438.7082486609997,None,1441.233252042999,None,1441.233252042999,None,1.21632185999988,1443.0312987340003,None,1443.0312987340003,None,5,1,0.884450100000322,1444.2388763880008,None,1444.2388763880008,None,1444.2388763880008,None,1445.1399249360002,None,1,0.41812701700109756,1445.1399249360002,None,110,1445.5747004200002,None,108,B,1,2021_May_21_1053,GazeFlow,2020.1.2,59.93882236195383,
12,Block811.xls,B,11,2,83,83,None,congruent,Right,Right,Left,75,69,6,yellow,2,5,/home/docky/apps/exp/images/76Yi.jpeg,/home/docky/apps/exp/images/69Y.jpeg,0,11,11,11,0,1,1,1,1446.576094565,None,1446.576094565,None,1,3.257593418000397,1446.576094565,None,1449.8671859740007,None,1449.8671859740007,None,1452.3701717050008,None,1452.3701717050008,None,1.100437986999168,1454.1675690339998,None,1454.1675690339998,None,5,1,0.8848874029990839,1455.2602618,None,1455.2602618,None,1455.2602618,None,1456.1614703979994,None,1,0.48493071400116605,1456.1614703979994,None,112,1456.663010025999,None,108,B,1,2021_May_21_1053,GazeFlow,2020.1.2,59.93882236195383,
12,Block811.xls,B,11,3,28,28,None,congruent,Right,Right,Left,38,35,3,blue,2,5,/home/docky/apps/exp/images/38Bi.jpeg,/home/docky/apps/exp/images/35B.jpeg,0,11,11,11,0,2,2,2,1457.6644074239994,None,1457.6644074239994,None,1,3.6411022219999722,1457.6644074239994,None,1461.3392628250003,None,1461.3392628250003,None,1463.8422475480002,None,1463.8422475480002,None,1.9859860550004669,1465.6455366150003,None,1465.6455366150003,None,6,0,1.6027014159990358,1467.6178155649995,None,1467.6178155649995,None,1467.6178155649995,None,1469.2367235860002,None,1,0.36750780799957283,1469.2367235860002,None,110,1469.620956142,None,108,B,1,2021_May_21_1053,GazeFlow,2020.1.2,59.93882236195383,
12,Block811.xls,B,11,4,58,58,None,congruent,Left,Left,Right,62,65,3,yellow,2,6,/home/docky/apps/exp/images/38B.jpeg,/home/docky/apps/exp/images/35Bi.jpeg,0,11,11,11,0,3,3,3,1470.6233242849994,None,1470.6233242849994,None,1,3.6579153399998177,1470.6233242849994,None,1474.3153625119994,None,1474.3153625119994,None,1476.817857086,None,1476.817857086,None,1.2343287600015174,1478.6213465340006,None,1478.6213465340006,None,6,1,2.4541559360004612,1479.8414688979992,None,1479.8414688979992,None,1479.8414688979992,None,1482.312153285,None,1,1.0691686709997157,1482.312153285,None,112,1483.3978203900006,None,108,B,1,2021_May_21_1053,GazeFlow,2020.1.2,59.93882236195383,
12,Block811.xls,B,11,5,32,32,None,congruent,Right,Right,Left,66,65,1,blue,2,5,/home/docky/apps/exp/images/66Bi.jpeg,/home/docky/apps/exp/images/35Y.jpeg,0,11,11,11,0,4,4,4,1484.4000906250003,None,1484.4000906250003,None,1,2.822981115999937,1484.4000906250003,None,1487.2541741829991,None,1487.2541741829991,None,1489.7608072019993,None,1489.7608072019993,None,1.7851133039985143,1491.561852113,None,1491.561852113,None,5,1,0.5675318549983785,1493.3342913390006,None,1493.3342913390006,None,1493.3342913390006,None,1493.9184636049995,None,1,0.3510187070005486,1493.9184636049995,None,114,1494.2858278029998,None,108,B,1,2021_May_21_1053,GazeFlow,2020.1.2,59.93882236195383,
12,Block811.xls,B,11,6,67,67,None,congruent,Left,Left,Right,72,77,5,yellow,2,6,/home/docky/apps/exp/images/72Y.jpeg,/home/docky/apps/exp/images/77Yi.jpeg,0,11,11,11,0,5,5,5,1495.2875112540005,None,1495.2875112540005,None,1,3.3242147700002533,1495.2875112540005,None,1498.6447655850006,None,1498.6447655850006,None,1501.1484586469996,None,1501.1484586469996,None,1.2172306880001997,1502.9513345819996,None,1502.9513345819996,None,6,1,0.901093940001374,1504.1552313470002,None,1504.1552313470002,None,1504.1552313470002,None,1505.0729920899994,None,1,0.4520086459997401,1505.0729920899994,None,116,1505.5411190630002,None,108,B,1,2021_May_21_1053,GazeFlow,2020.1.2,59.93882236195383,
12,Block811.xls,B,11,7,120,24,None,incongruent,Left,Right,Left,77,72,5,yellow,2,5,/home/docky/apps/exp/images/77Y.jpeg,/home/docky/apps/exp/images/72Yi.jpeg,0,11,11,11,0,6,6,6,1506.542594180999,None,1506.542594180999,None,1,3.2743330049997894,1506.542594180999,None,1509.8501913479995,None,1509.8501913479995,None,1512.3527949,None,1512.3527949,None,1.083290141001271,1514.1519471419997,None,1514.1519471419997,None,5,1,0.8342110399989906,1515.2269139010004,None,1515.2269139010004,None,1515.2269139010004,None,1516.0777494230006,None,1,0.36753501199927996,1516.0777494230006,None,118,1516.4617856580007,None,108,B,1,2021_May_21_1053,GazeFlow,2020.1.2,59.93882236195383,
12,Block811.xls,B,11,8,57,57,None,congruent,Left,Left,Right,62,65,3,yellow,2,6,/home/docky/apps/exp/images/38Bi.jpeg,/home/docky/apps/exp/images/35B.jpeg,0,11,11,11,0,7,7,7,1517.4639278129998,None,1517.4639278129998,None,1,3.8081542489999265,1517.4639278129998,None,1521.3058485580004,None,1521.3058485580004,None,1523.8105075929998,None,1523.8105075929998,None,1.200462447000973,1525.6143774350003,None,1525.6143774350003,None,6,1,0.9348495140002342,1526.799217234,None,1526.799217234,None,1526.799217234,None,1527.750522036,None,1,0.3177773139996134,1527.750522036,None,120,1528.0847043689992,None,108,B,1,2021_May_21_1053,GazeFlow,2020.1.2,59.93882236195383,
12,Block811.xls,B,,,,,,,,,,,,,,,,,,0,11,11,11,,,,,,,,,,,,,,,,,,,,,,,,,,,,,,,,,,,,,,,,,,,,108,B,1,2021_May_21_1053,GazeFlow,2020.1.2,59.93882236195383,
13,Block808.xls,B,8,1,118,22,None,incongruent,Left,Right,Left,75,69,6,yellow,2,5,/home/docky/apps/exp/images/76Y.jpeg,/home/docky/apps/exp/images/69Yi.jpeg,0,12,12,12,0,0,0,0,1555.2722556560002,None,1555.2722556560002,None,1,3.547117960999458,1555.2722556560002,None,1558.8422512689995,None,1558.8422512689995,None,1561.3667951949992,None,1561.3667951949992,None,1.734248987000683,1563.1644482430002,None,1563.1644482430002,None,5,1,0.902470674000142,1564.8899058429997,None,1564.8899058429997,None,1564.8899058429997,None,1565.8082284800003,None,1,0.4003130479995889,1565.8082284800003,None,122,1566.2251803580002,None,108,B,1,2021_May_21_1053,GazeFlow,2020.1.2,59.93882236195383,
13,Block808.xls,B,8,2,7,7,None,congruent,Left,Left,Right,65,66,1,blue,2,6,/home/docky/apps/exp/images/35Yi.jpeg,/home/docky/apps/exp/images/66B.jpeg,0,12,12,12,0,1,1,1,1567.227859392,None,1567.227859392,None,1,3.774006759000258,1567.227859392,None,1571.035677156,None,1571.035677156,None,1573.5380429689994,None,1573.5380429689994,None,1.4681207129997347,1575.3420096720001,None,1575.3420096720001,None,6,1,0.9345595430004323,1576.796461033,None,1576.796461033,None,1576.796461033,None,1577.7479345449992,None,1,0.300282268999581,1577.7479345449992,None,124,1578.0647108810008,None,108,B,1,2021_May_21_1053,GazeFlow,2020.1.2,59.93882236195383,
13,Block808.xls,B,8,3,112,16,None,incongruent,Right,Left,Right,69,76,7,yellow,2,6,/home/docky/apps/exp/images/69Yi.jpeg,/home/docky/apps/exp/images/76Y.jpeg,0,12,12,12,0,2,2,2,1579.0667927499999,None,1579.0667927499999,None,1,3.474621280000065,1579.0667927499999,None,1582.5786762780008,None,1582.5786762780008,None,1585.0778455710006,None,1585.0778455710006,None,1.6010626869992848,1586.8831072510002,None,1586.8831072510002,None,6,1,0.9192049160010356,1588.4687277619996,None,1588.4687277619996,None,1588.4687277619996,None,1589.403905568999,None,1,0.3009988539997721,1589.403905568999,None,126,1589.7212369209992,None,108,B,1,2021_May_21_1053,GazeFlow,2020.1.2,59.93882236195383,
13,Block808.xls,B,8,4,97,1,None,incongruent,Right,Left,Right,16,19,3,blue,2,6,/home/docky/apps/exp/images/16Bi.jpeg,/home/docky/apps/exp/images/19B.jpeg,0,12,12,12,0,3,3,3,1590.7231514880004,None,1590.7231514880004,None,1,3.4240909869986353,1590.7231514880004,None,1594.1805409360004,None,1594.1805409360004,None,1596.6835463330008,None,1596.6835463330008,None,1.300673462001214,1598.4863427950004,None,1598.4863427950004,None,6,1,0.8512163289997261,1599.7742974779994,None,1599.7742974779994,None,1599.7742974779994,None,1600.6420188049997,None,1,0.3013273760006996,1600.6420188049997,None,128,1600.9598004119998,None,108,B,1,2021_May_21_1053,GazeFlow,2020.1.2,59.93882236195383,
13,Block808.xls,B,8,5,24,24,None,congruent,Left,Left,Right,80,83,3,blue,2,6,/home/docky/apps/exp/images/80Bi.jpeg,/home/docky/apps/exp/images/83B.jpeg,0,12,12,12,0,4,4,4,1601.9615183370006,None,1601.9615183370006,None,1,3.507691958000578,1601.9615183370006,None,1605.502708176,None,1605.502708176,None,1608.0060641359996,None,1608.0060641359996,None,1.3838650840007176,1609.8109528620007,None,1609.8109528620007,None,6,1,0.968613467999603,1611.179705045999,None,1611.179705045999,None,1611.179705045999,None,1612.1646027629995,None,1,0.36778072899869585,1612.1646027629995,None,130,1612.548904968,None,108,B,1,2021_May_21_1053,GazeFlow,2020.1.2,59.93882236195383,
13,Block808.xls,B,8,6,13,13,None,congruent,Left,Left,Right,38,39,1,blue,2,6,/home/docky/apps/exp/images/38Bi.jpeg,/home/docky/apps/exp/images/39B.jpeg,0,12,12,12,0,5,5,5,1613.5504814960004,None,1613.5504814960004,None,1,3.44083163599862,1613.5504814960004,None,1617.0249442839995,None,1617.0249442839995,None,1619.5282492959996,None,1619.5282492959996,None,1.1171260270002676,1621.3311243890003,None,1621.3311243890003,None,6,1,0.9176930869998614,1622.4353004709992,None,1622.4353004709992,None,1622.4353004709992,None,1623.3696900720006,None,1,0.31761112000094727,1623.3696900720006,None,132,1623.7039493369994,None,108,B,1,2021_May_21_1053,GazeFlow,2020.1.2,59.93882236195383,
13,Block808.xls,B,8,7,8,8,None,congruent,Left,Left,Right,65,66,1,blue,2,6,/home/docky/apps/exp/images/35Y.jpeg,/home/docky/apps/exp/images/66Bi.jpeg,0,12,12,12,0,6,6,6,1624.7055328959996,None,1624.7055328959996,None,1,3.3743982350006263,1624.7055328959996,None,1628.1134394689998,None,1628.1134394689998,None,1630.6179251009999,None,1630.6179251009999,None,2.0186826560002373,1632.4199556349995,None,1632.4199556349995,None,6,1,1.4856355190004251,1634.4250100480003,None,1634.4250100480003,None,1634.4250100480003,None,1635.9271317250004,None,1,0.6180602779986657,1635.9271317250004,None,134,1636.5616403460008,None,108,B,1,2021_May_21_1053,GazeFlow,2020.1.2,59.93882236195383,
13,Block808.xls,B,8,8,31,31,None,congruent,Right,Right,Left,66,65,1,blue,2,5,/home/docky/apps/exp/images/66B.jpeg,/home/docky/apps/exp/images/35Yi.jpeg,0,12,12,12,0,7,7,7,1637.5640381409994,None,1637.5640381409994,None,1,3.6578158880001865,1637.5640381409994,None,1641.2554615919998,None,1641.2554615919998,None,1643.7586625450003,None,1643.7586625450003,None,1.8352262819989846,1645.5616226500006,None,1645.5616226500006,None,5,1,1.0022888559997227,1647.3835118850002,None,1647.3835118850002,None,1647.3835118850002,None,1648.4019074320004,None,1,0.31688528599988786,1648.4019074320004,None,136,1648.7354395900002,None,108,B,1,2021_May_21_1053,GazeFlow,2020.1.2,59.93882236195383,
13,Block808.xls,B,,,,,,,,,,,,,,,,,,0,12,12,12,,,,,,,,,,,,,,,,,,,,,,,,,,,,,,,,,,,,,,,,,,,,108,B,1,2021_May_21_1053,GazeFlow,2020.1.2,59.93882236195383,
14,Block815.xls,B,15,1,65,65,None,congruent,Left,Left,Right,69,76,7,yellow,2,6,/home/docky/apps/exp/images/69Yi.jpeg,/home/docky/apps/exp/images/76Y.jpeg,0,13,13,13,0,0,0,0,1677.8450763019991,None,1677.8450763019991,None,1,3.1278298729994276,1677.8450763019991,None,1680.999486281,None,1680.999486281,None,1683.5191854290006,None,1683.5191854290006,None,1.216707273000793,1685.3243014119998,None,1685.3243014119998,None,6,1,0.9015210729994578,1686.5260957209994,None,1686.5260957209994,None,1686.5260957209994,None,1687.443875555,None,1,0.3682034899993596,1687.443875555,None,138,1687.8285512420007,None,108,B,1,2021_May_21_1053,GazeFlow,2020.1.2,59.93882236195383,
14,Block815.xls,B,15,2,102,6,None,incongruent,Right,Left,Right,80,83,3,blue,2,6,/home/docky/apps/exp/images/80B.jpeg,/home/docky/apps/exp/images/83Bi.jpeg,0,13,13,13,0,1,1,1,1688.8299026349996,None,1688.8299026349996,None,1,3.3240112849998695,1688.8299026349996,None,1692.1902498510008,None,1692.1902498510008,None,1694.6925061519996,None,1694.6925061519996,None,1.3675918210010423,1696.4943832629997,None,1696.4943832629997,None,6,1,0.8847597109997878,1697.847872335,None,1697.847872335,None,1697.847872335,None,1698.7494801970006,None,1,0.2847759500000393,1698.7494801970006,None,140,1699.0497999380004,None,108,B,1,2021_May_21_1053,GazeFlow,2020.1.2,59.93882236195383,
14,Block815.xls,B,15,3,33,33,None,congruent,Right,Right,Left,66,65,1,blue,2,5,/home/docky/apps/exp/images/66Bi.jpeg,/home/docky/apps/exp/images/35Y.jpeg,0,13,13,13,0,2,2,2,1700.051747817999,None,1700.051747817999,None,1,4.259005583000544,1700.051747817999,None,1704.3443591359992,None,1704.3443591359992,None,1706.8493584349999,None,1706.8493584349999,None,1.2171397449983488,1708.6512494889994,None,1708.6512494889994,None,5,1,0.9845516799996403,1709.8548004519998,None,1709.8548004519998,None,1709.8548004519998,None,1710.8557238390003,None,1,0.41852408300110255,1710.8557238390003,None,142,1711.2906996450001,None,108,B,1,2021_May_21_1053,GazeFlow,2020.1.2,59.93882236195383,
14,Block815.xls,B,15,4,72,72,None,congruent,Left,Left,Right,79,82,3,yellow,2,6,/home/docky/apps/exp/images/79Yi.jpeg,/home/docky/apps/exp/images/80Y.jpeg,0,13,13,13,0,3,3,3,1712.2921336689997,None,1712.2921336689997,None,1,4.025733713999216,1712.2921336689997,None,1716.3511281110004,None,1716.3511281110004,None,1718.8541711449998,None,1718.8541711449998,None,1.7854994509998505,1720.6598251060004,None,1720.6598251060004,None,5,0,1.2016880520004634,1722.4292261190003,None,1722.4292261190003,None,1722.4292261190003,None,1723.6476562259995,None,1,0.3506961860002775,1723.6476562259995,None,140,1724.015029794,None,108,B,1,2021_May_21_1053,GazeFlow,2020.1.2,59.93882236195383,
14,Block815.xls,B,15,5,100,4,None,incongruent,Right,Left,Right,73,76,3,blue,2,6,/home/docky/apps/exp/images/73B.jpeg,/home/docky/apps/exp/images/76Bi.jpeg,0,13,13,13,0,4,4,4,1725.0169616179992,None,1725.0169616179992,None,1,3.758423851999396,1725.0169616179992,None,1728.8087893930006,None,1728.8087893930006,None,1731.3116409510003,None,1731.3116409510003,None,1.6513200070003222,1733.1097856350007,None,1733.1097856350007,None,6,1,1.2855025179997028,1734.7532116830007,None,1734.7532116830007,None,1734.7532116830007,None,1736.0548969939991,None,1,0.31796374400073546,1736.0548969939991,None,142,1736.3891291090004,None,108,B,1,2021_May_21_1053,GazeFlow,2020.1.2,59.93882236195383,
14,Block815.xls,B,15,6,45,45,None,congruent,Right,Right,Left,39,38,1,blue,2,5,/home/docky/apps/exp/images/39B.jpeg,/home/docky/apps/exp/images/38Bi.jpeg,0,13,13,13,0,5,5,5,1737.391182722,None,1737.391182722,None,1,3.724485177999668,1737.391182722,None,1741.1494495610004,None,1741.1494495610004,None,1743.6514808859993,None,1743.6514808859993,None,1.2006181849992572,1745.4562565159995,None,1745.4562565159995,None,5,1,0.867864539999573,1746.6428955779993,None,1746.6428955779993,None,1746.6428955779993,None,1747.5273058519997,None,1,0.35140098500050954,1747.5273058519997,None,144,1747.8952004860002,None,108,B,1,2021_May_21_1053,GazeFlow,2020.1.2,59.93882236195383,
14,Block815.xls,B,15,7,98,2,None,incongruent,Right,Left,Right,35,38,3,blue,2,6,/home/docky/apps/exp/images/35Bi.jpeg,/home/docky/apps/exp/images/38B.jpeg,0,13,13,13,0,6,6,6,1748.8969370260002,None,1748.8969370260002,None,1,4.00833388799947,1748.8969370260002,None,1752.9390327010005,None,1752.9390327010005,None,1755.4420963030007,None,1755.4420963030007,None,1.9530272949996288,1757.2305453219997,None,1757.2305453219997,None,6,1,2.1703139940000256,1759.1839050359995,None,1759.1839050359995,None,1759.1839050359995,None,1761.3709810279997,None,1,0.3008694039999682,1761.3709810279997,None,146,1761.6887235239992,None,108,B,1,2021_May_21_1053,GazeFlow,2020.1.2,59.93882236195383,
14,Block815.xls,B,15,8,59,59,None,congruent,Left,Left,Right,38,39,1,yellow,2,6,/home/docky/apps/exp/images/38Yi.jpeg,/home/docky/apps/exp/images/39Y.jpeg,0,13,13,13,0,7,7,7,1762.6906340189998,None,1762.6906340189998,None,1,3.4073610010000266,1762.6906340189998,None,1766.132214784,None,1766.132214784,None,1768.6389635100004,None,1768.6389635100004,None,1.0839002989996516,1770.437850537999,None,1770.437850537999,None,6,1,0.8677349570007209,1771.5078923679994,None,1771.5078923679994,None,1771.5078923679994,None,1772.3920909339995,None,1,0.28395434899903194,1772.3920909339995,None,148,1772.6928317549991,None,108,B,1,2021_May_21_1053,GazeFlow,2020.1.2,59.93882236195383,
14,Block815.xls,B,,,,,,,,,,,,,,,,,,0,13,13,13,,,,,,,,,,,,,,,,,,,,,,,,,,,,,,,,,,,,,,,,,,,,108,B,1,2021_May_21_1053,GazeFlow,2020.1.2,59.93882236195383,
15,Block807.xls,B,7,1,71,71,None,congruent,Left,Left,Right,79,82,3,yellow,2,6,/home/docky/apps/exp/images/79Y.jpeg,/home/docky/apps/exp/images/80Yi.jpeg,0,14,14,14,0,0,0,0,1793.0424826130002,None,1793.0424826130002,None,1,4.022599349998927,1793.0424826130002,None,1797.0902794470003,None,1797.0902794470003,None,1799.6133131949991,None,1799.6133131949991,None,1.233538641999985,1801.414405865,None,1801.414405865,None,6,1,0.9346395669999765,1802.635074710999,None,1802.635074710999,None,1802.635074710999,None,1803.5862502670007,None,1,0.2845370129998628,1803.5862502670007,None,150,1803.8873460899995,None,108,B,1,2021_May_21_1053,GazeFlow,2020.1.2,59.93882236195383,
15,Block807.xls,B,7,2,44,44,None,congruent,Right,Right,Left,83,80,3,blue,2,5,/home/docky/apps/exp/images/83Bi.jpeg,/home/docky/apps/exp/images/80B.jpeg,0,14,14,14,0,1,1,1,1804.88874176,None,1804.88874176,None,1,3.2074268169999414,1804.88874176,None,1808.1294774319995,None,1808.1294774319995,None,1810.6342059960007,None,1810.6342059960007,None,1.1001486700006353,1812.4361706060008,None,1812.4361706060008,None,5,1,0.8845208390011976,1813.5227438040001,None,1813.5227438040001,None,1813.5227438040001,None,1814.4239675490007,None,1,0.3851916280000296,1814.4239675490007,None,152,1814.8251824130002,None,108,B,1,2021_May_21_1053,GazeFlow,2020.1.2,59.93882236195383,
15,Block807.xls,B,7,3,48,48,None,congruent,Right,Right,Left,39,38,1,blue,2,5,/home/docky/apps/exp/images/39Bi.jpeg,/home/docky/apps/exp/images/38B.jpeg,0,14,14,14,0,2,2,2,1815.8268497890003,None,1815.8268497890003,None,1,3.8749586699996144,1815.8268497890003,None,1819.7351009129998,None,1819.7351009129998,None,1822.2384358620002,None,1822.2384358620002,None,0.9667068709986779,1824.0375209529993,None,1824.0375209529993,None,5,1,1.0514240779993997,1824.9953552719999,None,1824.9953552719999,None,1824.9953552719999,None,1826.0633308020006,None,1,0.38489147200016305,1826.0633308020006,None,154,1826.4644165190002,None,108,B,1,2021_May_21_1053,GazeFlow,2020.1.2,59.93882236195383,
15,Block807.xls,B,7,4,113,17,None,incongruent,Right,Left,Right,72,77,5,yellow,2,6,/home/docky/apps/exp/images/72Yi.jpeg,/home/docky/apps/exp/images/77Y.jpeg,0,14,14,14,0,3,3,3,1827.4659767199992,None,1827.4659767199992,None,1,4.642934899999091,1827.4659767199992,None,1832.1450957920006,None,1832.1450957920006,None,1834.6477216139992,None,1834.6477216139992,None,1.8354713690005156,1836.4507978399997,None,1836.4507978399997,None,6,1,1.2014678979994642,1838.2708449799993,None,1838.2708449799993,None,1838.2708449799993,None,1839.4892697729993,None,1,0.28447656400021515,1839.4892697729993,None,156,1839.7897778900006,None,108,B,1,2021_May_21_1053,GazeFlow,2020.1.2,59.93882236195383,
15,Block807.xls,B,7,5,69,69,None,congruent,Left,Left,Right,72,77,5,yellow,2,6,/home/docky/apps/exp/images/72Y.jpeg,/home/docky/apps/exp/images/77Yi.jpeg,0,14,14,14,0,4,4,4,1840.7922198260003,None,1840.7922198260003,None,1,3.624360125999374,1840.7922198260003,None,1844.4498917780002,None,1844.4498917780002,None,1846.9528227749997,None,1846.9528227749997,None,1.1337862359996507,1848.7562708879996,None,1848.7562708879996,None,6,1,0.8180951270005608,1849.8766413510002,None,1849.8766413510002,None,1849.8766413510002,None,1850.7110726200008,None,1,0.2674346619987773,1850.7110726200008,None,158,1850.9948025819995,None,108,B,1,2021_May_21_1053,GazeFlow,2020.1.2,59.93882236195383,
15,Block807.xls,B,7,6,39,39,None,congruent,Right,Right,Left,79,76,3,blue,2,5,/home/docky/apps/exp/images/79B.jpeg,/home/docky/apps/exp/images/76Bi.jpeg,0,14,14,14,0,5,5,5,1851.9969096660006,None,1851.9969096660006,None,1,2.840099736000411,1851.9969096660006,None,1854.870281387999,None,1854.870281387999,None,1857.3750236340002,None,1857.3750236340002,None,0.9501182029998745,1859.1722172289992,None,1859.1722172289992,None,5,1,0.8510229069997877,1860.1134429209997,None,1860.1134429209997,None,1860.1134429209997,None,1860.9809516900004,None,1,0.28405453899904387,1860.9809516900004,None,160,1861.2815419559993,None,108,B,1,2021_May_21_1053,GazeFlow,2020.1.2,59.93882236195383,
15,Block807.xls,B,7,7,50,50,None,congruent,Left,Left,Right,33,35,2,yellow,2,6,/home/docky/apps/exp/images/33Y.jpeg,/home/docky/apps/exp/images/35Yi.jpeg,0,14,14,14,0,6,6,6,1862.2835398259995,None,1862.2835398259995,None,1,3.2911447220012633,1862.2835398259995,None,1865.6078742089994,None,1865.6078742089994,None,1868.1103438980008,None,1868.1103438980008,None,0.8667652879994421,1869.9138631379992,None,1869.9138631379992,None,6,1,0.8513069799992081,1870.7672727900008,None,1870.7672727900008,None,1870.7672727900008,None,1871.6350550770003,None,1,0.23375941500125919,1871.6350550770003,None,162,1871.885604957999,None,108,B,1,2021_May_21_1053,GazeFlow,2020.1.2,59.93882236195383,
15,Block807.xls,B,7,8,19,19,None,congruent,Left,Left,Right,76,79,3,blue,2,6,/home/docky/apps/exp/images/76B.jpeg,/home/docky/apps/exp/images/79Bi.jpeg,0,14,14,14,0,7,7,7,1872.8874298629999,None,1872.8874298629999,None,1,3.2909692869998253,1872.8874298629999,None,1876.2113652820008,None,1876.2113652820008,None,1878.7166580199992,None,1878.7166580199992,None,1.0670784320009261,1880.5200038490002,None,1880.5200038490002,None,6,1,0.8844404810006381,1881.5717508979997,None,1881.5717508979997,None,1881.5717508979997,None,1882.4727078249998,None,1,0.250770921998992,1882.4727078249998,None,164,1882.7398607710002,None,108,B,1,2021_May_21_1053,GazeFlow,2020.1.2,59.93882236195383,
15,Block807.xls,B,,,,,,,,,,,,,,,,,,0,14,14,14,,,,,,,,,,,,,,,,,,,,,,,,,,,,,,,,,,,,,,,,,,,,108,B,1,2021_May_21_1053,GazeFlow,2020.1.2,59.93882236195383,
