Nblock,condsFile,grouping,Block,TrialBlock,N,trialN,trialCond,gazeCon,gazedirR,corrBinR,corrBinP,valLBY,valRBY,diff,colorCube,feedbacktext,corrAns,imageL,imageR,SelBlocks.thisRepN,SelBlocks.thisTrialN,SelBlocks.thisN,SelBlocks.thisIndex,Trials.thisRepN,Trials.thisTrialN,Trials.thisN,Trials.thisIndex,waitCube.started,waitCube.stopped,text_3.started,text_3.stopped,StartKeyPress.keys,StartKeyPress.rt,StartKeyPress.started,StartKeyPress.stopped,StimL.started,StimL.stopped,StimR.started,StimR.stopped,imageStim2L.started,imageStim2L.stopped,imageStim2R.started,imageStim2R.stopped,RTkeyRelease,imageStim3L.started,imageStim3L.stopped,imageStim3R.started,imageStim3R.stopped,dropResp.keys,dropResp.corr,dropResp.rt,dropResp.started,dropResp.stopped,imageStim5L.started,imageStim5L.stopped,imageStim5R.started,imageStim5R.stopped,text_2.started,text_2.stopped,ReturnSpace.keys,ReturnSpace.rt,ReturnSpace.started,ReturnSpace.stopped,totalpoints,textFeedback.started,textFeedback.stopped,participant,group,session,date,expName,psychopyVersion,frameRate,
4,Block509.xls,A,9,1,34,34,12,congruent,Right,Right,Left,38,35,3,blue,2,5,/home/docky/apps/exp/images/38Bi.jpeg,/home/docky/apps/exp/images/35B.jpeg,0,0,0,0,0,0,0,0,70.94491056699917,None,70.94491056699917,None,1,6.14687277000121,70.94491056699917,None,77.126578186002,None,77.126578186002,None,79.64120633499988,None,79.64120633499988,None,1.5671608459997515,81.44595966500128,None,81.44595966500128,None,5,1,1.5359566749975784,82.99536108599932,None,82.99536108599932,None,82.99536108599932,None,84.54791578200093,None,1,0.9017656889991486,84.54791578200093,None,2,85.46617928600244,None,1092,A,1,2021_May_21_1353,GazeFlow,2020.1.2,59.86853181772707,
4,Block509.xls,A,9,2,7,7,11,congruent,Left,Left,Right,65,66,1,blue,2,6,/home/docky/apps/exp/images/35Yi.jpeg,/home/docky/apps/exp/images/66B.jpeg,0,0,0,0,0,1,1,1,86.46873652499926,None,86.46873652499926,None,1,6.479439136997826,86.46873652499926,None,92.98182345399982,None,92.98182345399982,None,95.48708534199977,None,95.48708534199977,None,1.785112071000185,97.28909851100252,None,97.28909851100252,None,6,1,1.5357477450015722,99.06006786199941,None,99.06006786199941,None,99.06006786199941,None,100.61247215299954,None,1,0.668367088001105,100.61247215299954,None,4,101.29712194600143,None,1092,A,1,2021_May_21_1353,GazeFlow,2020.1.2,59.86853181772707,
4,Block509.xls,A,9,3,74,14,21,incongruent,Right,Left,Right,80,83,3,blue,2,6,/home/docky/apps/exp/images/80B.jpeg,/home/docky/apps/exp/images/83Bi.jpeg,0,0,0,0,0,2,2,2,102.2997148659997,None,102.2997148659997,None,1,8.082286332999502,102.2997148659997,None,110.41591375899952,None,110.41591375899952,None,112.92095437000171,None,112.92095437000171,None,6.578177116000006,114.72299784500137,None,114.72299784500137,None,6,1,1.5539257870004803,121.30228527200234,None,121.30228527200234,None,121.30228527200234,None,122.87248467000245,None,1,0.7020564599988575,122.87248467000245,None,6,123.59079513400138,None,1092,A,1,2021_May_21_1353,GazeFlow,2020.1.2,59.86853181772707,
4,Block509.xls,A,9,4,19,19,11,congruent,Left,Left,Right,65,66,1,yellow,2,6,/home/docky/apps/exp/images/35Bi.jpeg,/home/docky/apps/exp/images/66Y.jpeg,0,0,0,0,0,3,3,3,124.5928380430014,None,124.5928380430014,None,1,7.498696478000056,124.5928380430014,None,132.12487872600104,None,132.12487872600104,None,134.62802597500195,None,134.62802597500195,None,1.6013874640011636,136.43162454400226,None,136.43162454400226,None,6,1,1.4687857649987563,138.0192018630005,None,138.0192018630005,None,138.0192018630005,None,139.5047407150014,None,1,0.7683246939996025,139.5047407150014,None,8,140.28941614500218,None,1092,A,1,2021_May_21_1353,GazeFlow,2020.1.2,59.86853181772707,
4,Block509.xls,A,9,5,60,60,12,congruent,Right,Right,Left,80,79,1,yellow,2,5,/home/docky/apps/exp/images/80Yi.jpeg,/home/docky/apps/exp/images/79Y.jpeg,0,0,0,0,0,4,4,4,141.2920140540009,None,141.2920140540009,None,1,6.26232145099857,141.2920140540009,None,147.58822487100042,None,147.58822487100042,None,150.09124454300036,None,150.09124454300036,None,1.9687876379975933,151.89455826300036,None,151.89455826300036,None,5,1,1.652756457002397,153.84968944000138,None,153.84968944000138,None,153.84968944000138,None,155.51921832399967,None,1,0.634490927997831,155.51921832399967,None,10,156.17049430800034,None,1092,A,1,2021_May_21_1353,GazeFlow,2020.1.2,59.86853181772707,
4,Block509.xls,A,9,6,83,23,21,incongruent,Right,Left,Right,38,39,1,yellow,2,6,/home/docky/apps/exp/images/38Yi.jpeg,/home/docky/apps/exp/images/39Y.jpeg,0,0,0,0,0,5,5,5,157.17275637499915,None,157.17275637499915,None,1,6.530096491002041,157.17275637499915,None,163.73611412600076,None,163.73611412600076,None,166.23938267199992,None,166.23938267199992,None,3.956379201001255,168.04437614999915,None,168.04437614999915,None,6,1,1.3365997139990213,172.0006328640011,None,172.0006328640011,None,172.0006328640011,None,173.35345605600014,None,1,0.618260970000847,173.35345605600014,None,12,173.98835713500011,None,1092,A,1,2021_May_21_1353,GazeFlow,2020.1.2,59.86853181772707,
4,Block509.xls,A,9,7,4,4,11,congruent,Left,Left,Right,35,38,3,blue,2,6,/home/docky/apps/exp/images/35B.jpeg,/home/docky/apps/exp/images/38Bi.jpeg,0,0,0,0,0,6,6,6,174.99077655200017,None,174.99077655200017,None,1,5.861936712000897,174.99077655200017,None,180.88623599900166,None,180.88623599900166,None,183.38921604600182,None,183.38921604600182,None,2.051917480999691,185.1917668410024,None,185.1917668410024,None,5,0,1.7365785299989511,187.23119848699935,None,187.23119848699935,None,187.23119848699935,None,188.98409756600086,None,1,0.8187970559993119,188.98409756600086,None,10,189.81910284900005,None,1092,A,1,2021_May_21_1353,GazeFlow,2020.1.2,59.86853181772707,
4,Block509.xls,A,9,8,24,24,11,congruent,Left,Left,Right,38,39,1,yellow,2,6,/home/docky/apps/exp/images/38Y.jpeg,/home/docky/apps/exp/images/39Yi.jpeg,0,0,0,0,0,7,7,7,190.8215052270025,None,190.8215052270025,None,1,6.763374023001234,190.8215052270025,None,197.61710974500238,None,197.61710974500238,None,200.12359261600068,None,200.12359261600068,None,1.4009259800004656,201.92536464799923,None,201.92536464799923,None,6,1,1.4194084000009752,203.31264780700076,None,203.31264780700076,None,203.31264780700076,None,204.74860226199962,None,1,0.6842506590000994,204.74860226199962,None,12,205.44951395500175,None,1092,A,1,2021_May_21_1353,GazeFlow,2020.1.2,59.86853181772707,
4,Block509.xls,A,,,,,,,,,,,,,,,,,,0,0,0,0,,,,,,,,,,,,,,,,,,,,,,,,,,,,,,,,,,,,,,,,,,,,1092,A,1,2021_May_21_1353,GazeFlow,2020.1.2,59.86853181772707,
5,Block504.xls,A,4,1,11,11,11,congruent,Left,Left,Right,73,76,3,blue,2,6,/home/docky/apps/exp/images/73Bi.jpeg,/home/docky/apps/exp/images/76B.jpeg,0,1,1,1,0,0,0,0,230.64937868299967,None,230.64937868299967,None,1,6.972734012000728,230.64937868299967,None,237.64367907999986,None,237.64367907999986,None,240.16810116399938,None,240.16810116399938,None,1.3501319140013948,241.9698897800008,None,241.9698897800008,None,6,1,1.2690510110005562,243.30697503900228,None,243.30697503900228,None,243.30697503900228,None,244.59265145500103,None,1,0.7843990159999521,244.59265145500103,None,14,245.39347336600258,None,1092,A,1,2021_May_21_1353,GazeFlow,2020.1.2,59.86853181772707,
5,Block504.xls,A,4,2,87,27,21,incongruent,Right,Left,Right,72,77,5,yellow,2,6,/home/docky/apps/exp/images/72Y.jpeg,/home/docky/apps/exp/images/77Yi.jpeg,0,1,1,1,0,1,1,1,246.39601127800051,None,246.39601127800051,None,1,5.895706956001959,246.39601127800051,None,252.324935962999,None,252.324935962999,None,254.82811943600245,None,254.82811943600245,None,2.4034091329995135,256.6255007630025,None,256.6255007630025,None,6,1,1.203217307000159,259.035994414,None,259.035994414,None,259.035994414,None,260.2560065800026,None,1,0.7347764160003862,260.2560065800026,None,16,261.0073959950023,None,1092,A,1,2021_May_21_1353,GazeFlow,2020.1.2,59.86853181772707,
5,Block504.xls,A,4,3,48,48,12,congruent,Right,Right,Left,39,38,1,yellow,2,5,/home/docky/apps/exp/images/39Yi.jpeg,/home/docky/apps/exp/images/38Y.jpeg,0,1,1,1,0,2,2,2,262.0098038640026,None,262.0098038640026,None,1,6.946967383999436,262.0098038640026,None,268.99084608200064,None,268.99084608200064,None,271.49401476500134,None,271.49401476500134,None,2.2026359099982074,273.2972789710002,None,273.2972789710002,None,5,1,1.3524083019983664,275.48609883800236,None,275.48609883800236,None,275.48609883800236,None,276.85459224400256,None,1,0.7190571389983234,276.85459224400256,None,18,277.5900252419997,None,1092,A,1,2021_May_21_1353,GazeFlow,2020.1.2,59.86853181772707,
5,Block504.xls,A,4,4,38,38,12,congruent,Right,Right,Left,79,73,6,blue,2,5,/home/docky/apps/exp/images/79B.jpeg,/home/docky/apps/exp/images/73Bi.jpeg,0,1,1,1,0,3,3,3,278.5919627510011,None,278.5919627510011,None,1,6.596332913002698,278.5919627510011,None,285.22234751699943,None,285.22234751699943,None,287.7251744580026,None,287.7251744580026,None,1.4680974570001126,289.52343689600093,None,289.52343689600093,None,5,1,1.5031142299994826,290.9826637340011,None,290.9826637340011,None,290.9826637340011,None,292.5018136710023,None,1,0.9688154899995425,292.5018136710023,None,20,293.48740646900114,None,1092,A,1,2021_May_21_1353,GazeFlow,2020.1.2,59.86853181772707,
5,Block504.xls,A,4,5,2,2,11,congruent,Left,Left,Right,16,19,3,blue,2,6,/home/docky/apps/exp/images/16B.jpeg,/home/docky/apps/exp/images/19Bi.jpeg,0,1,1,1,0,4,4,4,294.4896428380016,None,294.4896428380016,None,1,6.746818550000171,294.4896428380016,None,301.2700698890003,None,301.2700698890003,None,303.7749631580009,None,303.7749631580009,None,1.1838217160002387,305.5714983800026,None,305.5714983800026,None,6,1,1.3854393279980286,306.7469003160004,None,306.7469003160004,None,306.7469003160004,None,308.14897960300004,None,1,0.7179586650017882,308.14897960300004,None,22,308.883789558,None,1092,A,1,2021_May_21_1353,GazeFlow,2020.1.2,59.86853181772707,
5,Block504.xls,A,4,6,73,13,21,incongruent,Right,Left,Right,80,83,3,blue,2,6,/home/docky/apps/exp/images/80Bi.jpeg,/home/docky/apps/exp/images/83B.jpeg,0,1,1,1,0,5,5,5,309.8860493710017,None,309.8860493710017,None,1,6.44671415799894,309.8860493710017,None,316.36627666500135,None,316.36627666500135,None,318.8689548889997,None,318.8689548889997,None,1.4672479840010055,320.6706185200019,None,320.6706185200019,None,6,1,1.5861296340008266,322.1264420560001,None,322.1264420560001,None,322.1264420560001,None,323.7292923749992,None,1,1.1853371409997635,323.7292923749992,None,24,324.93152922599984,None,1092,A,1,2021_May_21_1353,GazeFlow,2020.1.2,59.86853181772707,
5,Block504.xls,A,4,7,63,3,21,incongruent,Right,Left,Right,35,38,3,blue,2,6,/home/docky/apps/exp/images/35B.jpeg,/home/docky/apps/exp/images/38Bi.jpeg,0,1,1,1,0,6,6,6,325.9339321490006,None,325.9339321490006,None,1,6.8301532180012146,325.9339321490006,None,332.7961445130022,None,332.7961445130022,None,335.3005238379992,None,335.3005238379992,None,1.384347234001325,337.10387052700025,None,337.10387052700025,None,6,1,1.4364023090020055,338.4749328370017,None,338.4749328370017,None,338.4749328370017,None,339.92774413699954,None,1,0.7508901620021788,339.92774413699954,None,26,340.69556355900204,None,1092,A,1,2021_May_21_1353,GazeFlow,2020.1.2,59.86853181772707,
5,Block504.xls,A,4,8,86,26,21,incongruent,Right,Left,Right,72,77,5,yellow,2,6,/home/docky/apps/exp/images/72Yi.jpeg,/home/docky/apps/exp/images/77Y.jpeg,0,1,1,1,0,7,7,7,341.6977472670005,None,341.6977472670005,None,1,6.379511871997238,341.6977472670005,None,348.11089503699986,None,348.11089503699986,None,350.61421899700144,None,350.61421899700144,None,1.4510263289994327,352.41740321399993,None,352.41740321399993,None,6,1,1.4532439569993585,353.85503035500005,None,353.85503035500005,None,353.85503035500005,None,355.32408657400083,None,1,0.7180072029987059,355.32408657400083,None,28,356.05846623099933,None,1092,A,1,2021_May_21_1353,GazeFlow,2020.1.2,59.86853181772707,
5,Block504.xls,A,,,,,,,,,,,,,,,,,,0,1,1,1,,,,,,,,,,,,,,,,,,,,,,,,,,,,,,,,,,,,,,,,,,,,1092,A,1,2021_May_21_1353,GazeFlow,2020.1.2,59.86853181772707,
6,Block511.xls,A,11,1,15,15,11,congruent,Left,Left,Right,80,83,3,blue,2,6,/home/docky/apps/exp/images/80Bi.jpeg,/home/docky/apps/exp/images/83B.jpeg,0,2,2,2,0,0,0,0,377.2692666969997,None,377.2692666969997,None,1,7.051842549997673,377.2692666969997,None,384.3553281509994,None,384.3553281509994,None,386.86969405700074,None,386.86969405700074,None,2.6367999109970697,388.66971558099976,None,388.66971558099976,None,5,0,1.737565702998836,391.3101446690016,None,391.3101446690016,None,391.3101446690016,None,393.0644970810026,None,1,0.9685965270000452,393.0644970810026,None,26,394.04954448900025,None,1092,A,1,2021_May_21_1353,GazeFlow,2020.1.2,59.86853181772707,
6,Block511.xls,A,11,2,105,45,22,incongruent,Left,Right,Left,39,38,1,blue,2,5,/home/docky/apps/exp/images/39Bi.jpeg,/home/docky/apps/exp/images/38B.jpeg,0,2,2,2,0,1,1,1,395.0515241560024,None,395.0515241560024,None,1,6.028632974001084,395.0515241560024,None,401.11389314199914,None,401.11389314199914,None,403.6239087620015,None,403.6239087620015,None,1.6348569839974516,405.42025339300017,None,405.42025339300017,None,5,1,1.5694305540018831,407.041614228001,None,407.041614228001,None,407.041614228001,None,408.6277211560009,None,1,0.7682123319973471,408.6277211560009,None,28,409.4121284710018,None,1092,A,1,2021_May_21_1353,GazeFlow,2020.1.2,59.86853181772707,
6,Block511.xls,A,11,3,68,8,21,incongruent,Right,Left,Right,38,39,1,blue,2,6,/home/docky/apps/exp/images/38B.jpeg,/home/docky/apps/exp/images/39Bi.jpeg,0,2,2,2,0,2,2,2,410.41478742300023,None,410.41478742300023,None,1,6.145311208998464,410.41478742300023,None,416.5939871900009,None,416.5939871900009,None,419.09731801900125,None,419.09731801900125,None,2.068978347000666,420.90236590800123,None,420.90236590800123,None,6,1,1.3180686839987175,422.9562524840003,None,422.9562524840003,None,422.9562524840003,None,424.29099651700017,None,1,0.5849763789992721,424.29099651700017,None,30,424.89244860500185,None,1092,A,1,2021_May_21_1353,GazeFlow,2020.1.2,59.86853181772707,
6,Block511.xls,A,11,4,80,20,21,incongruent,Right,Left,Right,62,65,3,yellow,2,6,/home/docky/apps/exp/images/38Bi.jpeg,/home/docky/apps/exp/images/35B.jpeg,0,2,2,2,0,3,3,3,425.8948188409995,None,425.8948188409995,None,1,5.912054950000311,425.8948188409995,None,431.84137103399917,None,431.84137103399917,None,434.3433442280002,None,434.3433442280002,None,1.9521055080003862,436.1462030460025,None,436.1462030460025,None,6,1,1.7863491710013477,438.0852143990014,None,438.0852143990014,None,438.0852143990014,None,439.8879798119997,None,1,0.6522253410003032,439.8879798119997,None,32,440.5560540709994,None,1092,A,1,2021_May_21_1353,GazeFlow,2020.1.2,59.86853181772707,
6,Block511.xls,A,11,5,5,5,11,congruent,Left,Left,Right,65,66,1,blue,2,6,/home/docky/apps/exp/images/35Yi.jpeg,/home/docky/apps/exp/images/66B.jpeg,0,2,2,2,0,4,4,4,441.5584855060006,None,441.5584855060006,None,1,6.56347482899946,441.5584855060006,None,448.15521912700206,None,448.15521912700206,None,450.6597874229992,None,450.6597874229992,None,6.142745904999174,452.4577285689993,None,452.4577285689993,None,6,1,1.3848385849996703,458.6090657370005,None,458.6090657370005,None,458.6090657370005,None,460.01032961500096,None,1,0.8190509539999766,460.01032961500096,None,34,460.84570235200226,None,1092,A,1,2021_May_21_1353,GazeFlow,2020.1.2,59.86853181772707,
6,Block511.xls,A,11,6,18,18,11,congruent,Left,Left,Right,65,66,1,yellow,2,6,/home/docky/apps/exp/images/35B.jpeg,/home/docky/apps/exp/images/66Yi.jpeg,0,2,2,2,0,5,5,5,461.848010695001,None,461.848010695001,None,1,6.178907735000394,461.848010695001,None,468.0606472319996,None,468.0606472319996,None,470.56336061800175,None,470.56336061800175,None,1.7681813320014044,472.36727985200196,None,472.36727985200196,None,6,1,1.8690543599986995,474.12301481100076,None,474.12301481100076,None,474.12301481100076,None,476.0083579790007,None,1,0.7184488149978279,476.0083579790007,None,36,476.7431488910006,None,1092,A,1,2021_May_21_1353,GazeFlow,2020.1.2,59.86853181772707,
6,Block511.xls,A,11,7,25,25,11,congruent,Left,Left,Right,69,75,6,yellow,2,6,/home/docky/apps/exp/images/69Yi.jpeg,/home/docky/apps/exp/images/76Y.jpeg,0,2,2,2,0,6,6,6,477.7455173849994,None,477.7455173849994,None,1,5.911638670000684,477.7455173849994,None,483.690866293,None,483.690866293,None,486.19403575899923,None,486.19403575899923,None,1.6013484979994246,487.9967893510002,None,487.9967893510002,None,6,1,1.5356693760004418,489.5854427769991,None,489.5854427769991,None,489.5854427769991,None,491.13768022300064,None,1,0.7684194130015385,491.13768022300064,None,38,491.92236910499923,None,1092,A,1,2021_May_21_1353,GazeFlow,2020.1.2,59.86853181772707,
6,Block511.xls,A,11,8,3,3,11,congruent,Left,Left,Right,35,38,3,blue,2,6,/home/docky/apps/exp/images/35Bi.jpeg,/home/docky/apps/exp/images/38B.jpeg,0,2,2,2,0,7,7,7,492.92494132700085,None,492.92494132700085,None,1,6.229449136000767,492.92494132700085,None,499.18778464000206,None,499.18778464000206,None,501.6899690579994,None,501.6899690579994,None,4.991857146997063,503.48868086400034,None,503.48868086400034,None,6,1,1.3512855489971116,508.4894343270025,None,508.4894343270025,None,508.4894343270025,None,509.85734782500003,None,1,0.5344956529988849,509.85734782500003,None,40,510.4083975530011,None,1092,A,1,2021_May_21_1353,GazeFlow,2020.1.2,59.86853181772707,
6,Block511.xls,A,,,,,,,,,,,,,,,,,,0,2,2,2,,,,,,,,,,,,,,,,,,,,,,,,,,,,,,,,,,,,,,,,,,,,1092,A,1,2021_May_21_1353,GazeFlow,2020.1.2,59.86853181772707,
7,Block508.xls,A,8,1,13,13,11,congruent,Left,Left,Right,76,79,3,blue,2,6,/home/docky/apps/exp/images/76Bi.jpeg,/home/docky/apps/exp/images/79B.jpeg,0,3,3,3,0,0,0,0,532.9378746990005,None,532.9378746990005,None,1,8.491342654000618,532.9378746990005,None,541.4517528239994,None,541.4517528239994,None,543.9745221260018,None,543.9745221260018,None,1.4667540219998045,545.7783000070012,None,545.7783000070012,None,6,1,1.2857020429983095,547.2305102350001,None,547.2305102350001,None,547.2305102350001,None,548.5329491939992,None,1,0.9347812520027219,548.5329491939992,None,42,549.4843086750006,None,1092,A,1,2021_May_21_1353,GazeFlow,2020.1.2,59.86853181772707,
7,Block508.xls,A,8,2,21,21,11,congruent,Left,Left,Right,62,65,3,yellow,2,6,/home/docky/apps/exp/images/38B.jpeg,/home/docky/apps/exp/images/35Bi.jpeg,0,3,3,3,0,1,1,1,550.4865964470009,None,550.4865964470009,None,1,6.9978369119999115,550.4865964470009,None,557.5181589019994,None,557.5181589019994,None,560.0224012479994,None,560.0224012479994,None,2.4536302970009274,561.8239823170006,None,561.8239823170006,None,6,1,1.337328608999087,564.2786262030022,None,564.2786262030022,None,564.2786262030022,None,565.6323897900002,None,1,0.7853099679996376,565.6323897900002,None,44,566.4340830740002,None,1092,A,1,2021_May_21_1353,GazeFlow,2020.1.2,59.86853181772707,
7,Block508.xls,A,8,3,99,39,22,incongruent,Left,Right,Left,79,76,3,blue,2,5,/home/docky/apps/exp/images/79Bi.jpeg,/home/docky/apps/exp/images/76B.jpeg,0,3,3,3,0,2,2,2,567.4362363590008,None,567.4362363590008,None,1,6.7468194009998115,567.4362363590008,None,574.2169602089998,None,574.2169602089998,None,576.7218410610003,None,576.7218410610003,None,1.3839513040002203,578.5189358790012,None,578.5189358790012,None,5,1,1.352352747002442,579.8941146620018,None,579.8941146620018,None,579.8941146620018,None,581.2632119000009,None,1,0.7345314320009493,581.2632119000009,None,46,582.0143885310026,None,1092,A,1,2021_May_21_1353,GazeFlow,2020.1.2,59.86853181772707,
7,Block508.xls,A,8,4,37,37,12,congruent,Right,Right,Left,66,65,1,blue,2,5,/home/docky/apps/exp/images/66Bi.jpeg,/home/docky/apps/exp/images/35Y.jpeg,0,3,3,3,0,3,3,3,583.0165956439996,None,583.0165956439996,None,1,6.79680347500107,583.0165956439996,None,589.8469220299994,None,589.8469220299994,None,592.3500925080007,None,592.3500925080007,None,3.839237731001049,594.1539546870008,None,594.1539546870008,None,5,1,1.4519049959999393,597.9963540770004,None,597.9963540770004,None,597.9963540770004,None,599.4649025140025,None,1,0.7687252880023152,599.4649025140025,None,48,600.2499703220019,None,1092,A,1,2021_May_21_1353,GazeFlow,2020.1.2,59.86853181772707,
7,Block508.xls,A,8,5,82,22,21,incongruent,Right,Left,Right,38,39,1,yellow,2,6,/home/docky/apps/exp/images/38Y.jpeg,/home/docky/apps/exp/images/39Yi.jpeg,0,3,3,3,0,4,4,4,601.2520518290003,None,601.2520518290003,None,1,5.8616167830005,601.2520518290003,None,607.1473876070013,None,607.1473876070013,None,609.6521098180019,None,609.6521098180019,None,1.7352132929991058,611.4484334590015,None,611.4484334590015,None,6,1,2.020015582002088,613.1753976330001,None,613.1753976330001,None,613.1753976330001,None,615.2119546600006,None,1,0.6850844969994796,615.2119546600006,None,50,615.9136672929999,None,1092,A,1,2021_May_21_1353,GazeFlow,2020.1.2,59.86853181772707,
7,Block508.xls,A,8,6,104,44,22,incongruent,Left,Right,Left,39,38,1,blue,2,5,/home/docky/apps/exp/images/39B.jpeg,/home/docky/apps/exp/images/38Bi.jpeg,0,3,3,3,0,5,5,5,616.9157719310024,None,616.9157719310024,None,1,6.011941998000111,616.9157719310024,None,622.9614661289997,None,622.9614661289997,None,625.4644002740024,None,625.4644002740024,None,9.483881939999264,627.2682713590002,None,627.2682713590002,None,5,1,2.338482062001276,636.7535374899999,None,636.7535374899999,None,636.7535374899999,None,639.1087794539999,None,1,1.0523739130003378,639.1087794539999,None,52,640.1776262790008,None,1092,A,1,2021_May_21_1353,GazeFlow,2020.1.2,59.86853181772707,
7,Block508.xls,A,8,7,39,39,12,congruent,Right,Right,Left,79,73,6,blue,2,5,/home/docky/apps/exp/images/79B.jpeg,/home/docky/apps/exp/images/73Bi.jpeg,0,3,3,3,0,6,6,6,641.1793985950026,None,641.1793985950026,None,1,6.279763189999358,641.1793985950026,None,647.4930621050007,None,647.4930621050007,None,649.9954217039995,None,649.9954217039995,None,1.634689882001112,651.7982099220026,None,651.7982099220026,None,5,1,1.3185463920017355,653.4202287879998,None,653.4202287879998,None,653.4202287879998,None,654.755470078002,None,1,0.8518308530001377,654.755470078002,None,54,655.6239814040018,None,1092,A,1,2021_May_21_1353,GazeFlow,2020.1.2,59.86853181772707,
7,Block508.xls,A,8,8,36,36,12,congruent,Right,Right,Left,66,65,1,blue,2,5,/home/docky/apps/exp/images/66B.jpeg,/home/docky/apps/exp/images/35Yi.jpeg,0,3,3,3,0,7,7,7,656.6260003550015,None,656.6260003550015,None,1,6.3131963109990465,656.6260003550015,None,662.9725400169991,None,662.9725400169991,None,665.4780742879993,None,665.4780742879993,None,1.9515576489975501,667.2807920480009,None,667.2807920480009,None,5,1,1.3352546759997495,669.2176029820002,None,669.2176029820002,None,669.2176029820002,None,670.5695016650025,None,1,0.9020609449980839,670.5695016650025,None,56,671.4877771190004,None,1092,A,1,2021_May_21_1353,GazeFlow,2020.1.2,59.86853181772707,
7,Block508.xls,A,,,,,,,,,,,,,,,,,,0,3,3,3,,,,,,,,,,,,,,,,,,,,,,,,,,,,,,,,,,,,,,,,,,,,1092,A,1,2021_May_21_1353,GazeFlow,2020.1.2,59.86853181772707,
8,Block510.xls,A,10,1,102,42,22,incongruent,Left,Right,Left,83,80,3,blue,2,5,/home/docky/apps/exp/images/83B.jpeg,/home/docky/apps/exp/images/80Bi.jpeg,0,4,4,4,0,0,0,0,698.4750200679991,None,698.4750200679991,None,1,5.54443703799916,698.4750200679991,None,704.0475175370011,None,704.0475175370011,None,706.5549897029996,None,706.5549897029996,None,3.104316109998763,708.3605057189998,None,708.3605057189998,None,5,1,1.2012865650031017,711.4668605920015,None,711.4668605920015,None,711.4668605920015,None,712.6847436610005,None,1,0.6180735140005709,712.6847436610005,None,58,713.3190954269994,None,1092,A,1,2021_May_21_1353,GazeFlow,2020.1.2,59.86853181772707,
8,Block510.xls,A,10,2,114,54,22,incongruent,Left,Right,Left,76,69,7,yellow,2,5,/home/docky/apps/exp/images/76Yi.jpeg,/home/docky/apps/exp/images/69Y.jpeg,0,4,4,4,0,1,1,1,714.3216586080016,None,714.3216586080016,None,1,6.279555985998741,714.3216586080016,None,720.6276154869993,None,720.6276154869993,None,723.137850416002,None,723.137850416002,None,1.5510279680020176,724.9430652369992,None,724.9430652369992,None,5,1,1.5193973679997725,726.4786628799993,None,726.4786628799993,None,726.4786628799993,None,728.0148183010024,None,1,0.667946404999384,728.0148183010024,None,60,728.6994014500015,None,1092,A,1,2021_May_21_1353,GazeFlow,2020.1.2,59.86853181772707,
8,Block510.xls,A,10,3,72,12,21,incongruent,Right,Left,Right,76,79,3,blue,2,6,/home/docky/apps/exp/images/76Bi.jpeg,/home/docky/apps/exp/images/79B.jpeg,0,4,4,4,0,2,2,2,729.7013814780003,None,729.7013814780003,None,1,7.114232799998717,729.7013814780003,None,736.8493244490019,None,736.8493244490019,None,739.3526632819994,None,739.3526632819994,None,1.468454625999584,741.1549550100026,None,741.1549550100026,None,6,1,2.0700869749998674,742.6101219560005,None,742.6101219560005,None,742.6101219560005,None,744.6967262940016,None,1,1.0860831689969928,744.6967262940016,None,62,745.7992155460015,None,1092,A,1,2021_May_21_1353,GazeFlow,2020.1.2,59.86853181772707,
8,Block510.xls,A,10,4,112,52,22,incongruent,Left,Right,Left,75,69,6,yellow,2,5,/home/docky/apps/exp/images/76Y.jpeg,/home/docky/apps/exp/images/69Yi.jpeg,0,4,4,4,0,3,3,3,746.8014146330024,None,746.8014146330024,None,1,7.180947193002794,746.8014146330024,None,754.0161230449994,None,754.0161230449994,None,756.5207267000005,None,756.5207267000005,None,1.400953632000892,758.3221665400015,None,758.3221665400015,None,5,1,1.3693449679994956,759.7100333439994,None,759.7100333439994,None,759.7100333439994,None,761.0957308140023,None,1,0.801135185000021,761.0957308140023,None,64,761.9137065960022,None,1092,A,1,2021_May_21_1353,GazeFlow,2020.1.2,59.86853181772707,
8,Block510.xls,A,10,5,17,17,11,congruent,Left,Left,Right,33,35,2,yellow,2,6,/home/docky/apps/exp/images/33Y.jpeg,/home/docky/apps/exp/images/35Yi.jpeg,0,4,4,4,0,4,4,4,762.9158358800014,None,762.9158358800014,None,1,6.39618574799897,762.9158358800014,None,769.3459418630009,None,769.3459418630009,None,771.8505826030014,None,771.8505826030014,None,1.7351811549997365,773.6507369290011,None,773.6507369290011,None,6,1,1.2683421500005352,775.3736691150007,None,775.3736691150007,None,775.3736691150007,None,776.6586823930011,None,1,0.9690185310028028,776.6586823930011,None,66,777.6441256510006,None,1092,A,1,2021_May_21_1353,GazeFlow,2020.1.2,59.86853181772707,
8,Block510.xls,A,10,6,31,31,12,congruent,Right,Right,Left,19,16,3,blue,2,5,/home/docky/apps/exp/images/19Bi.jpeg,/home/docky/apps/exp/images/16B.jpeg,0,4,4,4,0,5,5,5,778.6465278050018,None,778.6465278050018,None,1,5.578266098000313,778.6465278050018,None,784.2581865710017,None,784.2581865710017,None,786.7633619750013,None,786.7633619750013,None,1.1669776779999665,788.5599259840019,None,788.5599259840019,None,5,1,1.3024672770006873,789.7183469980009,None,789.7183469980009,None,789.7183469980009,None,791.0373307940026,None,1,1.435839081001177,791.0373307940026,None,68,792.4897490750009,None,1092,A,1,2021_May_21_1353,GazeFlow,2020.1.2,59.86853181772707,
8,Block510.xls,A,10,7,61,1,21,incongruent,Right,Left,Right,16,19,3,blue,2,6,/home/docky/apps/exp/images/16Bi.jpeg,/home/docky/apps/exp/images/19B.jpeg,0,4,4,4,0,6,6,6,793.491990819999,None,793.491990819999,None,1,6.6467126550014655,793.491990819999,None,800.172327201999,None,800.172327201999,None,802.6772134120001,None,802.6772134120001,None,3.2221238250021997,804.4735093560012,None,804.4735093560012,None,5,0,6.679520907000551,807.7037076670022,None,807.7037076670022,None,807.7037076670022,None,814.3993878000001,None,1,1.8040087789995596,814.3993878000001,None,66,816.2196752439995,None,1092,A,1,2021_May_21_1353,GazeFlow,2020.1.2,59.86853181772707,
8,Block510.xls,A,10,8,94,34,22,incongruent,Left,Right,Left,38,35,3,blue,2,5,/home/docky/apps/exp/images/38Bi.jpeg,/home/docky/apps/exp/images/35B.jpeg,0,4,4,4,0,7,7,7,817.2215412639998,None,817.2215412639998,None,1,6.596289549997891,817.2215412639998,None,823.8516293710018,None,823.8516293710018,None,826.3566526110008,None,826.3566526110008,None,1.9182103610000922,828.1584370609999,None,828.1584370609999,None,5,1,1.1014125620022241,830.0633534289991,None,830.0633534289991,None,830.0633534289991,None,831.1814457969995,None,1,0.9685493979995954,831.1814457969995,None,68,832.1665689300025,None,1092,A,1,2021_May_21_1353,GazeFlow,2020.1.2,59.86853181772707,
8,Block510.xls,A,,,,,,,,,,,,,,,,,,0,4,4,4,,,,,,,,,,,,,,,,,,,,,,,,,,,,,,,,,,,,,,,,,,,,1092,A,1,2021_May_21_1353,GazeFlow,2020.1.2,59.86853181772707,
9,Block507.xls,A,7,1,110,50,22,incongruent,Left,Right,Left,66,65,1,yellow,2,5,/home/docky/apps/exp/images/66Y.jpeg,/home/docky/apps/exp/images/35Bi.jpeg,0,5,5,5,0,0,0,0,854.6111273960014,None,854.6111273960014,None,1,6.166842634000204,854.6111273960014,None,860.8095710279995,None,860.8095710279995,None,863.3283790710011,None,863.3283790710011,None,1.7343216320005013,865.1319035640008,None,865.1319035640008,None,5,1,1.4354539759988256,866.8515481569993,None,866.8515481569993,None,866.8515481569993,None,868.3036244440009,None,1,0.9689136689994484,868.3036244440009,None,70,869.2889484709995,None,1092,A,1,2021_May_21_1353,GazeFlow,2020.1.2,59.86853181772707,
9,Block507.xls,A,7,2,90,30,22,incongruent,Right,Left,Right,16,19,3,blue,2,6,/home/docky/apps/exp/images/16Bi.jpeg,/home/docky/apps/exp/images/19B.jpeg,0,5,5,5,0,1,1,1,870.2912814180017,None,870.2912814180017,None,1,6.145395282001118,870.2912814180017,None,876.4706234240002,None,876.4706234240002,None,878.9734067680001,None,878.9734067680001,None,1.9186516089976067,880.7767297890023,None,880.7767297890023,None,6,1,1.8697669799985306,882.682166087001,None,882.682166087001,None,882.682166087001,None,884.5685634000001,None,1,0.8189515609992668,884.5685634000001,None,72,885.4038024530018,None,1092,A,1,2021_May_21_1353,GazeFlow,2020.1.2,59.86853181772707,
9,Block507.xls,A,7,3,16,16,11,congruent,Left,Left,Right,33,35,2,yellow,2,6,/home/docky/apps/exp/images/33Yi.jpeg,/home/docky/apps/exp/images/35Y.jpeg,0,5,5,5,0,2,2,2,886.4058562870014,None,886.4058562870014,None,1,7.415033737997874,886.4058562870014,None,893.8542069729992,None,893.8542069729992,None,896.3576804760014,None,896.3576804760014,None,2.4689592239992635,898.1627292949997,None,898.1627292949997,None,6,1,1.3518248509972182,900.6173991430005,None,900.6173991430005,None,900.6173991430005,None,901.9856534320024,None,1,0.7854579619997821,901.9856534320024,None,74,902.787444652,None,1092,A,1,2021_May_21_1353,GazeFlow,2020.1.2,59.86853181772707,
9,Block507.xls,A,7,4,117,57,22,incongruent,Left,Right,Left,77,72,5,yellow,2,5,/home/docky/apps/exp/images/77Y.jpeg,/home/docky/apps/exp/images/72Yi.jpeg,0,5,5,5,0,3,3,3,903.789627651,None,903.789627651,None,1,6.011882581002283,903.789627651,None,909.8355513890019,None,909.8355513890019,None,912.3381152760012,None,912.3381152760012,None,1.8019591520023823,914.1419276260021,None,914.1419276260021,None,5,1,1.452010484001221,915.9302740370003,None,915.9302740370003,None,915.9302740370003,None,917.3989664950022,None,1,0.8349522829994385,917.3989664950022,None,76,918.250774229,None,1092,A,1,2021_May_21_1353,GazeFlow,2020.1.2,59.86853181772707,
9,Block507.xls,A,7,5,53,53,12,congruent,Right,Right,Left,75,69,6,yellow,2,5,/home/docky/apps/exp/images/76Yi.jpeg,/home/docky/apps/exp/images/69Y.jpeg,0,5,5,5,0,4,4,4,919.2530897020006,None,919.2530897020006,None,1,6.329070124000282,919.2530897020006,None,925.617276748002,None,925.617276748002,None,928.1192676030005,None,928.1192676030005,None,1.6347485359983693,929.9227472250022,None,929.9227472250022,None,5,1,1.6525575679988833,931.5437341800025,None,931.5437341800025,None,931.5437341800025,None,933.2135501449993,None,1,0.8182863799993356,933.2135501449993,None,78,934.0482760570012,None,1092,A,1,2021_May_21_1353,GazeFlow,2020.1.2,59.86853181772707,
9,Block507.xls,A,7,6,96,36,22,incongruent,Left,Right,Left,66,65,1,blue,2,5,/home/docky/apps/exp/images/66Bi.jpeg,/home/docky/apps/exp/images/35Y.jpeg,0,5,5,5,0,5,5,5,935.0501701100002,None,935.0501701100002,None,1,6.346038651001436,935.0501701100002,None,941.4329045619997,None,941.4329045619997,None,943.9325132619997,None,943.9325132619997,None,3.255083678999654,945.7360122300015,None,945.7360122300015,None,5,1,1.1865876629999548,948.9930902289998,None,948.9930902289998,None,948.9930902289998,None,950.196001733002,None,1,0.56819853900015,950.196001733002,None,80,950.7809138880002,None,1092,A,1,2021_May_21_1353,GazeFlow,2020.1.2,59.86853181772707,
9,Block507.xls,A,7,7,58,58,12,congruent,Right,Right,Left,77,72,5,yellow,2,5,/home/docky/apps/exp/images/77Yi.jpeg,/home/docky/apps/exp/images/72Y.jpeg,0,5,5,5,0,6,6,6,951.7827339830001,None,951.7827339830001,None,1,6.379614041001332,951.7827339830001,None,958.1964022739994,None,958.1964022739994,None,960.7008551159997,None,960.7008551159997,None,1.43405284900291,962.4973828990005,None,962.4973828990005,None,5,1,1.3192784109996865,963.9232456800019,None,963.9232456800019,None,963.9232456800019,None,965.2590230220012,None,1,1.0181895540008554,965.2590230220012,None,82,966.2942485839994,None,1092,A,1,2021_May_21_1353,GazeFlow,2020.1.2,59.86853181772707,
9,Block507.xls,A,7,8,41,41,12,congruent,Right,Right,Left,79,76,3,blue,2,5,/home/docky/apps/exp/images/79Bi.jpeg,/home/docky/apps/exp/images/76B.jpeg,0,5,5,5,0,7,7,7,967.2962776210006,None,967.2962776210006,None,1,6.563169667999318,967.2962776210006,None,973.893494013002,None,973.893494013002,None,976.3966288110023,None,976.3966288110023,None,1.851744884999789,978.1993990190022,None,978.1993990190022,None,5,1,1.7862763299999642,980.038107714001,None,980.038107714001,None,980.038107714001,None,981.8408985880014,None,1,0.9019937429984566,981.8408985880014,None,84,982.7596037370022,None,1092,A,1,2021_May_21_1353,GazeFlow,2020.1.2,59.86853181772707,
9,Block507.xls,A,,,,,,,,,,,,,,,,,,0,5,5,5,,,,,,,,,,,,,,,,,,,,,,,,,,,,,,,,,,,,,,,,,,,,1092,A,1,2021_May_21_1353,GazeFlow,2020.1.2,59.86853181772707,
10,Block515.xls,A,15,1,107,47,22,incongruent,Left,Right,Left,35,33,2,yellow,2,5,/home/docky/apps/exp/images/35Yi.jpeg,/home/docky/apps/exp/images/33Y.jpeg,0,6,6,6,0,0,0,0,1002.0827360020012,None,1002.0827360020012,None,1,2.9278113419968577,1002.0827360020012,None,1005.0375648539994,None,1005.0375648539994,None,1007.5586370759993,None,1007.5586370759993,None,2.218648616999417,1009.3603968339994,None,1009.3603968339994,None,5,1,1.4020906400000968,1011.5658344780022,None,1011.5658344780022,None,1011.5658344780022,None,1012.9845736770003,None,1,0.7348442250004155,1012.9845736770003,None,86,1013.7361097409994,None,1092,A,1,2021_May_21_1353,GazeFlow,2020.1.2,59.86853181772707,
10,Block515.xls,A,15,2,55,55,12,congruent,Right,Right,Left,76,69,7,yellow,2,5,/home/docky/apps/exp/images/76Yi.jpeg,/home/docky/apps/exp/images/69Y.jpeg,0,6,6,6,0,1,1,1,1014.7384760450004,None,1014.7384760450004,None,1,6.162152802000492,1014.7384760450004,None,1020.9326460250013,None,1020.9326460250013,None,1023.4377777480004,None,1023.4377777480004,None,2.1524178170002415,1025.2406022899995,None,1025.2406022899995,None,5,1,1.284859810002672,1027.3802963510025,None,1027.3802963510025,None,1027.3802963510025,None,1028.681847142001,None,1,0.5850647469997057,1028.681847142001,None,88,1029.2828571610007,None,1092,A,1,2021_May_21_1353,GazeFlow,2020.1.2,59.86853181772707,
10,Block515.xls,A,15,3,75,15,21,incongruent,Right,Left,Right,33,35,2,yellow,2,6,/home/docky/apps/exp/images/33Yi.jpeg,/home/docky/apps/exp/images/35Y.jpeg,0,6,6,6,0,2,2,2,1030.285310651001,None,1030.285310651001,None,1,6.646480909999809,1030.285310651001,None,1036.9658983240006,None,1036.9658983240006,None,1039.4688646620016,None,1039.4688646620016,None,2.83759230600117,1041.2726272920008,None,1041.2726272920008,None,6,1,1.2344535070005804,1044.1132032570022,None,1044.1132032570022,None,1044.1132032570022,None,1045.3643700110006,None,1,0.43416329699903145,1045.3643700110006,None,90,1045.815068371001,None,1092,A,1,2021_May_21_1353,GazeFlow,2020.1.2,59.86853181772707,
10,Block515.xls,A,15,4,62,2,21,incongruent,Right,Left,Right,35,38,3,blue,2,6,/home/docky/apps/exp/images/35Bi.jpeg,/home/docky/apps/exp/images/38B.jpeg,0,6,6,6,0,3,3,3,1046.8174545740003,None,1046.8174545740003,None,1,5.627803125997161,1046.8174545740003,None,1052.4789366940022,None,1052.4789366940022,None,1054.981904864002,None,1054.981904864002,None,2.3867053930007387,1056.7854957279997,None,1056.7854957279997,None,6,1,1.5352201530004095,1059.1754069100025,None,1059.1754069100025,None,1059.1754069100025,None,1060.727278030001,None,1,0.6350020520003454,1060.727278030001,None,92,1061.3787109840014,None,1092,A,1,2021_May_21_1353,GazeFlow,2020.1.2,59.86853181772707,
10,Block515.xls,A,15,5,100,40,22,incongruent,Left,Right,Left,79,76,3,blue,2,5,/home/docky/apps/exp/images/79Bi.jpeg,/home/docky/apps/exp/images/76B.jpeg,0,6,6,6,0,4,4,4,1062.3809785800004,None,1062.3809785800004,None,1,8.901331103999837,1062.3809785800004,None,1071.315806087001,None,1071.315806087001,None,1073.818485789001,None,1073.818485789001,None,1.8349205330014229,1075.6167993039999,None,1075.6167993039999,None,5,1,1.368812238000828,1077.4436735300005,None,1077.4436735300005,None,1077.4436735300005,None,1078.8291485570007,None,1,0.9685802470012277,1078.8291485570007,None,94,1079.8145147979994,None,1092,A,1,2021_May_21_1353,GazeFlow,2020.1.2,59.86853181772707,
10,Block515.xls,A,15,6,108,48,22,incongruent,Left,Right,Left,39,38,1,yellow,2,5,/home/docky/apps/exp/images/39Y.jpeg,/home/docky/apps/exp/images/38Yi.jpeg,0,6,6,6,0,5,5,5,1080.8167479780022,None,1080.8167479780022,None,1,6.964217350996478,1080.8167479780022,None,1087.8142213659994,None,1087.8142213659994,None,1090.3173056800006,None,1090.3173056800006,None,1.3839644430008775,1092.1206978360024,None,1092.1206978360024,None,6,0,1.285537595002097,1093.4914400599991,None,1093.4914400599991,None,1093.4914400599991,None,1094.793504743,None,1,0.9019802360016911,1094.793504743,None,92,1095.7117348659995,None,1092,A,1,2021_May_21_1353,GazeFlow,2020.1.2,59.86853181772707,
10,Block515.xls,A,15,7,59,59,12,congruent,Right,Right,Left,80,79,1,yellow,2,5,/home/docky/apps/exp/images/80Y.jpeg,/home/docky/apps/exp/images/79Yi.jpeg,0,6,6,6,0,6,6,6,1096.7144345609995,None,1096.7144345609995,None,1,6.379623819000699,1096.7144345609995,None,1103.1273680430022,None,1103.1273680430022,None,1105.636354156999,None,1105.636354156999,None,1.5178519289984251,1107.4340942880008,None,1107.4340942880008,None,5,1,1.236291364999488,1108.9381629420022,None,1108.9381629420022,None,1108.9381629420022,None,1110.1905000670013,None,1,1.168507051999768,1110.1905000670013,None,94,1111.3757950870022,None,1092,A,1,2021_May_21_1353,GazeFlow,2020.1.2,59.86853181772707,
10,Block515.xls,A,15,8,8,8,11,congruent,Left,Left,Right,38,39,1,blue,2,6,/home/docky/apps/exp/images/38B.jpeg,/home/docky/apps/exp/images/39Bi.jpeg,0,6,6,6,0,7,7,7,1112.3781029349993,None,1112.3781029349993,None,1,6.780452172999503,1112.3781029349993,None,1119.1927735600002,None,1119.1927735600002,None,1121.6966483420001,None,1121.6966483420001,None,2.269235799998569,1123.4936031430007,None,1123.4936031430007,None,6,1,1.3021446189995913,1125.7541280020014,None,1125.7541280020014,None,1125.7541280020014,None,1127.0730012269996,None,1,0.7514533070025209,1127.0730012269996,None,96,1127.8410660510017,None,1092,A,1,2021_May_21_1353,GazeFlow,2020.1.2,59.86853181772707,
10,Block515.xls,A,,,,,,,,,,,,,,,,,,0,6,6,6,,,,,,,,,,,,,,,,,,,,,,,,,,,,,,,,,,,,,,,,,,,,1092,A,1,2021_May_21_1353,GazeFlow,2020.1.2,59.86853181772707,
11,Block512.xls,A,12,1,30,30,11,congruent,Left,Left,Right,79,82,3,yellow,2,6,/home/docky/apps/exp/images/79Yi.jpeg,/home/docky/apps/exp/images/80Y.jpeg,0,7,7,7,0,0,0,0,1149.2508511570013,None,1149.2508511570013,None,1,6.432743861001654,1149.2508511570013,None,1155.715796943001,None,1155.715796943001,None,1158.2331523909997,None,1158.2331523909997,None,1.5505038590017648,1160.036565442002,None,1160.036565442002,None,6,1,1.3026331859982747,1161.5737307420022,None,1161.5737307420022,None,1161.5737307420022,None,1162.892867437,None,1,1.0515641140009393,1162.892867437,None,98,1163.9612752600005,None,1092,A,1,2021_May_21_1353,GazeFlow,2020.1.2,59.86853181772707,
11,Block512.xls,A,12,2,115,55,22,incongruent,Left,Right,Left,76,69,7,yellow,2,5,/home/docky/apps/exp/images/76Yi.jpeg,/home/docky/apps/exp/images/69Y.jpeg,0,7,7,7,0,1,1,1,1164.963729752002,None,1164.963729752002,None,1,7.631341678999888,1164.963729752002,None,1172.629041635002,None,1172.629041635002,None,1175.1324955340024,None,1175.1324955340024,None,2.3361979959991004,1176.9359298620002,None,1176.9359298620002,None,5,1,1.5023881489978521,1179.2580724110012,None,1179.2580724110012,None,1179.2580724110012,None,1180.777107075999,None,1,0.6014425690009375,1180.777107075999,None,100,1181.3951933380013,None,1092,A,1,2021_May_21_1353,GazeFlow,2020.1.2,59.86853181772707,
11,Block512.xls,A,12,3,66,6,21,incongruent,Right,Left,Right,38,39,1,blue,2,6,/home/docky/apps/exp/images/38B.jpeg,/home/docky/apps/exp/images/39Bi.jpeg,0,7,7,7,0,2,2,2,1182.3973975440022,None,1182.3973975440022,None,1,7.53155200800029,1182.3973975440022,None,1189.9626294940026,None,1189.9626294940026,None,1192.4661820729998,None,1192.4661820729998,None,2.5536169669976516,1194.2709746270011,None,1194.2709746270011,None,6,1,1.7523064880006132,1196.8261794120008,None,1196.8261794120008,None,1196.8261794120008,None,1198.5954719469992,None,1,0.6852859949976846,1198.5954719469992,None,102,1199.2968355350022,None,1092,A,1,2021_May_21_1353,GazeFlow,2020.1.2,59.86853181772707,
11,Block512.xls,A,12,4,35,35,12,congruent,Right,Right,Left,66,65,1,blue,2,5,/home/docky/apps/exp/images/66B.jpeg,/home/docky/apps/exp/images/35Yi.jpeg,0,7,7,7,0,3,3,3,1200.2989128030022,None,1200.2989128030022,None,1,6.045837445999496,1200.2989128030022,None,1206.378532065999,None,1206.378532065999,None,1208.8829009660003,None,1208.8829009660003,None,2.303576943002554,1210.6845050539996,None,1210.6845050539996,None,5,1,1.2511665050005831,1212.9742961850025,None,1212.9742961850025,None,1212.9742961850025,None,1214.2424221950023,None,1,0.8350872920018446,1214.2424221950023,None,104,1215.0941480050024,None,1092,A,1,2021_May_21_1353,GazeFlow,2020.1.2,59.86853181772707,
11,Block512.xls,A,12,5,40,40,12,congruent,Right,Right,Left,79,76,3,blue,2,5,/home/docky/apps/exp/images/79Bi.jpeg,/home/docky/apps/exp/images/76B.jpeg,0,7,7,7,0,4,4,4,1216.0961757959994,None,1216.0961757959994,None,1,7.147915436999028,1216.0961757959994,None,1223.2773888129996,None,1223.2773888129996,None,1225.7805309050018,None,1225.7805309050018,None,1.450804200998391,1227.5781528080006,None,1227.5781528080006,None,5,1,1.1860932710005727,1229.021451056,None,1229.021451056,None,1229.021451056,None,1230.223409053,None,1,0.9015292540025257,1230.223409053,None,106,1231.141626015,None,1092,A,1,2021_May_21_1353,GazeFlow,2020.1.2,59.86853181772707,
11,Block512.xls,A,12,6,64,4,21,incongruent,Right,Left,Right,65,66,1,blue,2,6,/home/docky/apps/exp/images/35Yi.jpeg,/home/docky/apps/exp/images/66B.jpeg,0,7,7,7,0,5,5,5,1232.1437521549997,None,1232.1437521549997,None,1,6.162821850997716,1232.1437521549997,None,1238.340104924002,None,1238.340104924002,None,1240.8451532670006,None,1240.8451532670006,None,2.637156282999058,1242.641009502,None,1242.641009502,None,6,1,1.3214840909968188,1245.2835980790005,None,1245.2835980790005,None,1245.2835980790005,None,1246.621901333001,None,1,0.5845867179996276,1246.621901333001,None,108,1247.2229659799996,None,1092,A,1,2021_May_21_1353,GazeFlow,2020.1.2,59.86853181772707,
11,Block512.xls,A,12,7,12,12,11,congruent,Left,Left,Right,76,79,3,blue,2,6,/home/docky/apps/exp/images/76B.jpeg,/home/docky/apps/exp/images/79Bi.jpeg,0,7,7,7,0,6,6,6,1248.2253412570026,None,1248.2253412570026,None,1,5.628254076000303,1248.2253412570026,None,1253.8913188980005,None,1253.8913188980005,None,1256.3900085999994,None,1256.3900085999994,None,1.3007552240014775,1258.1929055159999,None,1258.1929055159999,None,6,1,1.286201450999215,1259.480521747002,None,1259.480521747002,None,1259.480521747002,None,1260.7830183719998,None,1,0.7177253240006394,1260.7830183719998,None,110,1261.517158974002,None,1092,A,1,2021_May_21_1353,GazeFlow,2020.1.2,59.86853181772707,
11,Block512.xls,A,12,8,49,49,12,congruent,Right,Right,Left,39,38,1,yellow,2,5,/home/docky/apps/exp/images/39Y.jpeg,/home/docky/apps/exp/images/38Yi.jpeg,0,7,7,7,0,7,7,7,1262.519593866,None,1262.519593866,None,1,5.243882692997431,1262.519593866,None,1267.7971321620025,None,1267.7971321620025,None,1270.3019396400014,None,1270.3019396400014,None,2.21911197299778,1272.1057354540026,None,1272.1057354540026,None,6,0,1.5858093599999847,1274.3094618780015,None,1274.3094618780015,None,1274.3094618780015,None,1275.9123126160011,None,1,0.5510304640010872,1275.9123126160011,None,108,1276.4798727720008,None,1092,A,1,2021_May_21_1353,GazeFlow,2020.1.2,59.86853181772707,
11,Block512.xls,A,,,,,,,,,,,,,,,,,,0,7,7,7,,,,,,,,,,,,,,,,,,,,,,,,,,,,,,,,,,,,,,,,,,,,1092,A,1,2021_May_21_1353,GazeFlow,2020.1.2,59.86853181772707,
12,Block503.xls,A,3,1,22,22,11,congruent,Left,Left,Right,62,65,3,yellow,2,6,/home/docky/apps/exp/images/38Bi.jpeg,/home/docky/apps/exp/images/35B.jpeg,0,8,8,8,0,0,0,0,1295.1177008449995,None,1295.1177008449995,None,1,7.589630075002788,1295.1177008449995,None,1302.7290102270017,None,1302.7290102270017,None,1305.2533843019992,None,1305.2533843019992,None,1.61752175500078,1307.0567998719998,None,1307.0567998719998,None,6,1,1.3354401090000465,1308.6595269490026,None,1308.6595269490026,None,1308.6595269490026,None,1310.011355384002,None,1,0.5845864930015523,1310.011355384002,None,110,1310.612564387,None,1092,A,1,2021_May_21_1353,GazeFlow,2020.1.2,59.86853181772707,
12,Block503.xls,A,3,2,65,5,21,incongruent,Right,Left,Right,65,66,1,blue,2,6,/home/docky/apps/exp/images/35Y.jpeg,/home/docky/apps/exp/images/66Bi.jpeg,0,8,8,8,0,1,1,1,1311.6147265020008,None,1311.6147265020008,None,1,5.712056576998293,1311.6147265020008,None,1317.3608605080008,None,1317.3608605080008,None,1319.863461817,None,1319.863461817,None,5.743269298000087,1321.665003686001,None,1321.665003686001,None,5,0,2.1549728629979654,1327.411470283001,None,1327.411470283001,None,1327.411470283001,None,1329.5830611029996,None,1,0.6016527129977476,1329.5830611029996,None,108,1330.2011849110022,None,1092,A,1,2021_May_21_1353,GazeFlow,2020.1.2,59.86853181772707,
12,Block503.xls,A,3,3,76,16,21,incongruent,Right,Left,Right,33,35,2,yellow,2,6,/home/docky/apps/exp/images/33Y.jpeg,/home/docky/apps/exp/images/35Yi.jpeg,0,8,8,8,0,2,2,2,1331.2029468530018,None,1331.2029468530018,None,1,6.680539828001201,1331.2029468530018,None,1337.9168302889993,None,1337.9168302889993,None,1340.419973349999,None,1340.419973349999,None,1.30099214999791,1342.2234984980023,None,1342.2234984980023,None,6,1,1.2529967130030855,1343.510495781,None,1343.510495781,None,1343.510495781,None,1344.7794307190015,None,1,0.667506552003033,1344.7794307190015,None,110,1345.463878994,None,1092,A,1,2021_May_21_1353,GazeFlow,2020.1.2,59.86853181772707,
12,Block503.xls,A,3,4,29,29,11,congruent,Left,Left,Right,79,82,3,yellow,2,6,/home/docky/apps/exp/images/79Y.jpeg,/home/docky/apps/exp/images/80Yi.jpeg,0,8,8,8,0,3,3,3,1346.4660836959993,None,1346.4660836959993,None,1,5.528178489999846,1346.4660836959993,None,1352.0274802050008,None,1352.0274802050008,None,1354.5304335649998,None,1354.5304335649998,None,1.4510167139997066,1356.3339416710005,None,1356.3339416710005,None,6,1,1.2028589849978744,1357.7716242570023,None,1357.7716242570023,None,1357.7716242570023,None,1358.9901929920015,None,1,1.1361598479998065,1358.9901929920015,None,112,1360.142406766001,None,1092,A,1,2021_May_21_1353,GazeFlow,2020.1.2,59.86853181772707,
12,Block503.xls,A,3,5,103,43,22,incongruent,Left,Right,Left,39,38,1,blue,2,5,/home/docky/apps/exp/images/39Bi.jpeg,/home/docky/apps/exp/images/38B.jpeg,0,8,8,8,0,4,4,4,1361.1457298179994,None,1361.1457298179994,None,1,5.526982129998942,1361.1457298179994,None,1366.7059693280025,None,1366.7059693280025,None,1369.2108566620009,None,1369.2108566620009,None,1.534660581000935,1371.012892155999,None,1371.012892155999,None,5,1,1.468892319000588,1372.5335757620014,None,1372.5335757620014,None,1372.5335757620014,None,1374.0188268269994,None,1,0.6684610349984723,1374.0188268269994,None,114,1374.7040239350026,None,1092,A,1,2021_May_21_1353,GazeFlow,2020.1.2,59.86853181772707,
12,Block503.xls,A,3,6,47,47,12,congruent,Right,Right,Left,35,33,2,yellow,2,5,/home/docky/apps/exp/images/35Yi.jpeg,/home/docky/apps/exp/images/33Y.jpeg,0,8,8,8,0,5,5,5,1375.706000956001,None,1375.706000956001,None,1,7.23115432099803,1375.706000956001,None,1382.971049322001,None,1382.971049322001,None,1385.4743347860021,None,1385.4743347860021,None,1.384397406000062,1387.2774620349992,None,1387.2774620349992,None,6,0,1.5860030869989714,1388.6479229220022,None,1388.6479229220022,None,1388.6479229220022,None,1390.2506437320008,None,1,0.6847168099993723,1390.2506437320008,None,112,1390.952097911002,None,1092,A,1,2021_May_21_1353,GazeFlow,2020.1.2,59.86853181772707,
12,Block503.xls,A,3,7,20,20,11,congruent,Left,Left,Right,65,66,1,yellow,2,6,/home/docky/apps/exp/images/35Bi.jpeg,/home/docky/apps/exp/images/66Y.jpeg,0,8,8,8,0,6,6,6,1391.954468021002,None,1391.954468021002,None,1,6.245826524002041,1391.954468021002,None,1398.2340184500026,None,1398.2340184500026,None,1400.7367742940005,None,1400.7367742940005,None,1.9852212939986202,1402.5348818999992,None,1402.5348818999992,None,6,1,3.8241662950022146,1404.5123133960005,None,1404.5123133960005,None,1404.5123133960005,None,1408.352959631,None,1,1.3027571689999604,1408.352959631,None,114,1409.6720744430022,None,1092,A,1,2021_May_21_1353,GazeFlow,2020.1.2,59.86853181772707,
12,Block503.xls,A,3,8,27,27,11,congruent,Left,Left,Right,72,77,5,yellow,2,6,/home/docky/apps/exp/images/72Yi.jpeg,/home/docky/apps/exp/images/77Y.jpeg,0,8,8,8,0,7,7,7,1410.6741600860005,None,1410.6741600860005,None,1,5.110064851000061,1410.6741600860005,None,1415.8165061440013,None,1415.8165061440013,None,1418.320921726001,None,1418.320921726001,None,1.4344331480024266,1420.124252294001,None,1420.124252294001,None,6,1,1.3531294759995944,1421.5452646869999,None,1421.5452646869999,None,1421.5452646869999,None,1422.9145870720022,None,1,0.8678232630009006,1422.9145870720022,None,116,1423.7993213280024,None,1092,A,1,2021_May_21_1353,GazeFlow,2020.1.2,59.86853181772707,
12,Block503.xls,A,,,,,,,,,,,,,,,,,,0,8,8,8,,,,,,,,,,,,,,,,,,,,,,,,,,,,,,,,,,,,,,,,,,,,1092,A,1,2021_May_21_1353,GazeFlow,2020.1.2,59.86853181772707,
13,Block501.xls,A,1,1,54,54,12,congruent,Right,Right,Left,75,69,6,yellow,2,5,/home/docky/apps/exp/images/76Y.jpeg,/home/docky/apps/exp/images/69Yi.jpeg,0,9,9,9,0,0,0,0,1449.216894999001,None,1449.216894999001,None,1,5.9540376939985435,1449.216894999001,None,1455.195934350002,None,1455.195934350002,None,1457.7160395530009,None,1457.7160395530009,None,1.6009077570015506,1459.5133954910016,None,1459.5133954910016,None,5,1,1.3353145219989528,1461.105708801002,None,1461.105708801002,None,1461.105708801002,None,1462.4576890019998,None,1,0.918470143002196,1462.4576890019998,None,118,1463.3928703929996,None,1092,A,1,2021_May_21_1353,GazeFlow,2020.1.2,59.86853181772707,
13,Block501.xls,A,1,2,70,10,21,incongruent,Right,Left,Right,73,76,3,blue,2,6,/home/docky/apps/exp/images/73Bi.jpeg,/home/docky/apps/exp/images/76B.jpeg,0,9,9,9,0,1,1,1,1464.3950120539994,None,1464.3950120539994,None,1,7.498323441002867,1464.3950120539994,None,1471.9272375399996,None,1471.9272375399996,None,1474.4303079540005,None,1474.4303079540005,None,1.367499748001137,1476.2337704870006,None,1476.2337704870006,None,6,1,1.369375629001297,1477.5876425250026,None,1477.5876425250026,None,1477.5876425250026,None,1478.9735358639991,None,1,0.8014818310002738,1478.9735358639991,None,120,1479.791615989001,None,1092,A,1,2021_May_21_1353,GazeFlow,2020.1.2,59.86853181772707,
13,Block501.xls,A,1,3,84,24,21,incongruent,Right,Left,Right,69,76,7,yellow,2,6,/home/docky/apps/exp/images/69Yi.jpeg,/home/docky/apps/exp/images/76Y.jpeg,0,9,9,9,0,2,2,2,1480.7935981859991,None,1480.7935981859991,None,1,5.878517307999573,1480.7935981859991,None,1486.705847559002,None,1486.705847559002,None,1489.2105856390008,None,1489.2105856390008,None,1.4509528059970762,1491.0122167690024,None,1491.0122167690024,None,6,1,1.3863670710015867,1492.4498830000011,None,1492.4498830000011,None,1492.4498830000011,None,1493.8523560510002,None,1,1.0014335079977172,1493.8523560510002,None,122,1494.8705302060007,None,1092,A,1,2021_May_21_1353,GazeFlow,2020.1.2,59.86853181772707,
13,Block501.xls,A,1,4,26,26,11,congruent,Left,Left,Right,69,75,6,yellow,2,6,/home/docky/apps/exp/images/69Y.jpeg,/home/docky/apps/exp/images/76Yi.jpeg,0,9,9,9,0,3,3,3,1495.873147143,None,1495.873147143,None,1,5.9449791309998545,1495.873147143,None,1501.8518846760016,None,1501.8518846760016,None,1504.3551028530019,None,1504.3551028530019,None,1.0336000790011894,1506.1580469200017,None,1506.1580469200017,None,6,1,3.1554805479972856,1507.1784999209995,None,1507.1784999209995,None,1507.1784999209995,None,1510.3508973630014,None,1,1.019140337000863,1510.3508973630014,None,124,1511.386576506,None,1092,A,1,2021_May_21_1353,GazeFlow,2020.1.2,59.86853181772707,
13,Block501.xls,A,1,5,97,37,22,incongruent,Left,Right,Left,79,73,6,blue,2,5,/home/docky/apps/exp/images/79B.jpeg,/home/docky/apps/exp/images/73Bi.jpeg,0,9,9,9,0,4,4,4,1512.3884345180013,None,1512.3884345180013,None,1,5.444484444000409,1512.3884345180013,None,1517.8663171469998,None,1517.8663171469998,None,1520.3694280980017,None,1520.3694280980017,None,1.1336715910001658,1522.1747254690017,None,1522.1747254690017,None,5,1,1.5698055400025623,1523.2931964650015,None,1523.2931964650015,None,1523.2931964650015,None,1524.8792801689997,None,1,0.9180610829971556,1524.8792801689997,None,126,1525.8140762389994,None,1092,A,1,2021_May_21_1353,GazeFlow,2020.1.2,59.86853181772707,
13,Block501.xls,A,1,6,98,38,22,incongruent,Left,Right,Left,79,73,6,blue,2,5,/home/docky/apps/exp/images/79B.jpeg,/home/docky/apps/exp/images/73Bi.jpeg,0,9,9,9,0,5,5,5,1526.8161526500007,None,1526.8161526500007,None,1,6.162608270002238,1526.8161526500007,None,1533.012444756001,None,1533.012444756001,None,1535.5157232710008,None,1535.5157232710008,None,1.9686028619980789,1537.319300482999,None,1537.319300482999,None,5,1,1.4520634479995351,1539.2742283879998,None,1539.2742283879998,None,1539.2742283879998,None,1540.7433386090015,None,1,0.7682018970008357,1540.7433386090015,None,128,1541.5278743000017,None,1092,A,1,2021_May_21_1353,GazeFlow,2020.1.2,59.86853181772707,
13,Block501.xls,A,1,7,77,17,21,incongruent,Right,Left,Right,65,66,1,yellow,2,6,/home/docky/apps/exp/images/35B.jpeg,/home/docky/apps/exp/images/66Yi.jpeg,0,9,9,9,0,6,6,6,1542.5303496779998,None,1542.5303496779998,None,1,6.412641009999788,1542.5303496779998,None,1548.9767027220005,None,1548.9767027220005,None,1551.481639788999,None,1551.481639788999,None,5.993719483001769,1553.2831338670003,None,1553.2831338670003,None,6,1,3.2078585750023194,1559.2780706000012,None,1559.2780706000012,None,1559.2780706000012,None,1562.5024016880016,None,1,0.752031956002611,1562.5024016880016,None,130,1563.2705810610023,None,1092,A,1,2021_May_21_1353,GazeFlow,2020.1.2,59.86853181772707,
13,Block501.xls,A,1,8,50,50,12,congruent,Right,Right,Left,66,65,1,yellow,2,5,/home/docky/apps/exp/images/66Y.jpeg,/home/docky/apps/exp/images/35Bi.jpeg,0,9,9,9,0,7,7,7,1564.2725152439998,None,1564.2725152439998,None,1,5.928609832000802,1564.2725152439998,None,1570.2348214030026,None,1570.2348214030026,None,1572.7379655910008,None,1572.7379655910008,None,1.350814363999234,1574.5362865450006,None,1574.5362865450006,None,5,1,1.2354127910002717,1575.8784301230007,None,1575.8784301230007,None,1575.8784301230007,None,1577.1308565780018,None,1,0.9513314659998287,1577.1308565780018,None,132,1578.0988195570026,None,1092,A,1,2021_May_21_1353,GazeFlow,2020.1.2,59.86853181772707,
13,Block501.xls,A,,,,,,,,,,,,,,,,,,0,9,9,9,,,,,,,,,,,,,,,,,,,,,,,,,,,,,,,,,,,,,,,,,,,,1092,A,1,2021_May_21_1353,GazeFlow,2020.1.2,59.86853181772707,
14,Block513.xls,A,13,1,32,32,12,congruent,Right,Right,Left,19,16,3,blue,2,5,/home/docky/apps/exp/images/19B.jpeg,/home/docky/apps/exp/images/16Bi.jpeg,0,10,10,10,0,0,0,0,1602.5309782330005,None,1602.5309782330005,None,1,4.630962248000287,1602.5309782330005,None,1607.194480287002,None,1607.194480287002,None,1609.7101549309991,None,1609.7101549309991,None,0.9994121319978149,1611.5080411380004,None,1611.5080411380004,None,5,1,1.3025654840021161,1612.4997613420019,None,1612.4997613420019,None,1612.4997613420019,None,1613.8187442189992,None,1,0.8180718539988447,1613.8187442189992,None,134,1614.6532575730016,None,1092,A,1,2021_May_21_1353,GazeFlow,2020.1.2,59.86853181772707,
14,Block513.xls,A,13,2,81,21,21,incongruent,Right,Left,Right,38,39,1,yellow,2,6,/home/docky/apps/exp/images/38Yi.jpeg,/home/docky/apps/exp/images/39Y.jpeg,0,10,10,10,0,1,1,1,1615.6554880030017,None,1615.6554880030017,None,1,10.15394827899945,1615.6554880030017,None,1625.842670807,None,1625.842670807,None,1628.3457509420004,None,1628.3457509420004,None,1.985443737001333,1630.1510903330018,None,1630.1510903330018,None,6,1,1.3186763849989802,1632.1211605440003,None,1632.1211605440003,None,1632.1211605440003,None,1633.4565699550003,None,1,0.6846985360025428,1633.4565699550003,None,136,1634.1580756479998,None,1092,A,1,2021_May_21_1353,GazeFlow,2020.1.2,59.86853181772707,
14,Block513.xls,A,13,3,92,32,22,incongruent,Left,Right,Left,19,16,3,blue,2,5,/home/docky/apps/exp/images/19B.jpeg,/home/docky/apps/exp/images/16Bi.jpeg,0,10,10,10,0,2,2,2,1635.1601948330026,None,1635.1601948330026,None,1,6.713478538997151,1635.1601948330026,None,1641.9057719810007,None,1641.9057719810007,None,1644.4103352509992,None,1644.4103352509992,None,1.06690969400006,1646.2132215370002,None,1646.2132215370002,None,5,1,1.8371586299981573,1647.2673516720024,None,1647.2673516720024,None,1647.2673516720024,None,1649.1206671790023,None,1,0.8011319370016281,1649.1206671790023,None,138,1649.938492991001,None,1092,A,1,2021_May_21_1353,GazeFlow,2020.1.2,59.86853181772707,
14,Block513.xls,A,13,4,6,6,11,congruent,Left,Left,Right,65,66,1,blue,2,6,/home/docky/apps/exp/images/35Y.jpeg,/home/docky/apps/exp/images/66Bi.jpeg,0,10,10,10,0,3,3,3,1650.9408195630022,None,1650.9408195630022,None,1,7.7320258550025756,1650.9408195630022,None,1658.7100418170012,None,1658.7100418170012,None,1661.2113897900017,None,1661.2113897900017,None,6.71165670299888,1663.013398334002,None,1663.013398334002,None,6,1,1.370275187997322,1669.7261091660002,None,1669.7261091660002,None,1669.7261091660002,None,1671.1132235450023,None,1,0.5678831709992664,1671.1132235450023,None,140,1671.6975350329994,None,1092,A,1,2021_May_21_1353,GazeFlow,2020.1.2,59.86853181772707,
14,Block513.xls,A,13,5,67,7,21,incongruent,Right,Left,Right,38,39,1,blue,2,6,/home/docky/apps/exp/images/38Bi.jpeg,/home/docky/apps/exp/images/39B.jpeg,0,10,10,10,0,4,4,4,1672.6998071900016,None,1672.6998071900016,None,1,5.628519218000292,1672.6998071900016,None,1678.361450463999,None,1678.361450463999,None,1680.8644303799992,None,1680.8644303799992,None,6.0938684869979625,1682.664954838001,None,1682.664954838001,None,5,0,1.4348202520013729,1688.7653584229993,None,1688.7653584229993,None,1688.7653584229993,None,1690.2169286490025,None,1,0.7349011789992801,1690.2169286490025,None,138,1690.9681781979998,None,1092,A,1,2021_May_21_1353,GazeFlow,2020.1.2,59.86853181772707,
14,Block513.xls,A,13,6,111,51,22,incongruent,Left,Right,Left,66,65,1,yellow,2,5,/home/docky/apps/exp/images/66Yi.jpeg,/home/docky/apps/exp/images/35B.jpeg,0,10,10,10,0,5,5,5,1691.970695434,None,1691.970695434,None,1,5.828166274000978,1691.970695434,None,1697.8327311249996,None,1697.8327311249996,None,1700.335240831002,None,1700.335240831002,None,1.0334234760011896,1702.138935840001,None,1702.138935840001,None,6,0,3.322766475001117,1703.158910997001,None,1703.158910997001,None,1703.158910997001,None,1706.4988055970025,None,1,1.1528024119979818,1706.4988055970025,None,136,1707.6677851810018,None,1092,A,1,2021_May_21_1353,GazeFlow,2020.1.2,59.86853181772707,
14,Block513.xls,A,13,7,88,28,21,incongruent,Right,Left,Right,79,82,3,yellow,2,6,/home/docky/apps/exp/images/79Y.jpeg,/home/docky/apps/exp/images/80Yi.jpeg,0,10,10,10,0,6,6,6,1708.669809498002,None,1708.669809498002,None,1,5.19357326699901,1708.669809498002,None,1713.8979840970023,None,1713.8979840970023,None,1716.4002586490024,None,1716.4002586490024,None,1.5514585769997211,1718.203359875999,None,1718.203359875999,None,5,0,2.2036873609977192,1719.7414786090012,None,1719.7414786090012,None,1719.7414786090012,None,1721.961813168,None,1,0.8018124549998902,1721.961813168,None,134,1722.7802831820009,None,1092,A,1,2021_May_21_1353,GazeFlow,2020.1.2,59.86853181772707,
14,Block513.xls,A,13,8,14,14,11,congruent,Left,Left,Right,80,83,3,blue,2,6,/home/docky/apps/exp/images/80B.jpeg,/home/docky/apps/exp/images/83Bi.jpeg,0,10,10,10,0,7,7,7,1723.7824557960012,None,1723.7824557960012,None,1,6.212753553998482,1723.7824557960012,None,1730.0286357520017,None,1730.0286357520017,None,1732.5313420450002,None,1732.5313420450002,None,1.7348476739971375,1734.3347825970013,None,1734.3347825970013,None,6,1,1.418539715999941,1736.0566885650005,None,1736.0566885650005,None,1736.0566885650005,None,1737.491841657,None,1,0.8349448970002413,1737.491841657,None,136,1738.3435596769996,None,1092,A,1,2021_May_21_1353,GazeFlow,2020.1.2,59.86853181772707,
14,Block513.xls,A,,,,,,,,,,,,,,,,,,0,10,10,10,,,,,,,,,,,,,,,,,,,,,,,,,,,,,,,,,,,,,,,,,,,,1092,A,1,2021_May_21_1353,GazeFlow,2020.1.2,59.86853181772707,
15,Block514.xls,A,14,1,113,53,22,incongruent,Left,Right,Left,75,69,6,yellow,2,5,/home/docky/apps/exp/images/76Y.jpeg,/home/docky/apps/exp/images/69Yi.jpeg,0,11,11,11,0,0,0,0,1758.9008979819992,None,1758.9008979819992,None,1,6.851044246999663,1758.9008979819992,None,1765.7788008919997,None,1765.7788008919997,None,1768.3028706469995,None,1768.3028706469995,None,1.416965088003053,1770.106615140001,None,1770.106615140001,None,5,1,1.2855202259997895,1771.5086738940008,None,1771.5086738940008,None,1771.5086738940008,None,1772.8111266920023,None,1,1.1349725959989883,1772.8111266920023,None,138,1773.9629161250014,None,1092,A,1,2021_May_21_1353,GazeFlow,2020.1.2,59.86853181772707,
15,Block514.xls,A,14,2,45,45,12,congruent,Right,Right,Left,39,38,1,blue,2,5,/home/docky/apps/exp/images/39B.jpeg,/home/docky/apps/exp/images/38Bi.jpeg,0,11,11,11,0,1,1,1,1774.9651756300009,None,1774.9651756300009,None,1,6.279037715001323,1774.9651756300009,None,1781.2781541540026,None,1781.2781541540026,None,1783.7816873119991,None,1783.7816873119991,None,1.4174579469981836,1785.580126023,None,1785.580126023,None,5,1,1.4367097040012595,1786.988892016001,None,1786.988892016001,None,1786.988892016001,None,1788.441288244001,None,1,1.0516251799999736,1788.441288244001,None,140,1789.5106830850018,None,1092,A,1,2021_May_21_1353,GazeFlow,2020.1.2,59.86853181772707,
15,Block514.xls,A,14,3,52,52,12,congruent,Right,Right,Left,75,69,6,yellow,2,5,/home/docky/apps/exp/images/76Y.jpeg,/home/docky/apps/exp/images/69Yi.jpeg,0,11,11,11,0,2,2,2,1790.5122107410025,None,1790.5122107410025,None,1,6.262074624999514,1790.5122107410025,None,1796.8083289130009,None,1796.8083289130009,None,1799.3131985280015,None,1799.3131985280015,None,1.2842847360007,1801.1143738160026,None,1801.1143738160026,None,5,1,1.3529434979973303,1802.3851691769996,None,1802.3851691769996,None,1802.3851691769996,None,1803.7543107420024,None,1,1.285454374999972,1803.7543107420024,None,142,1805.0565895610016,None,1092,A,1,2021_May_21_1353,GazeFlow,2020.1.2,59.86853181772707,
15,Block514.xls,A,14,4,106,46,22,incongruent,Left,Right,Left,35,33,2,yellow,2,5,/home/docky/apps/exp/images/35Yi.jpeg,/home/docky/apps/exp/images/33Y.jpeg,0,11,11,11,0,3,3,3,1806.058994973002,None,1806.058994973002,None,1,6.696869154999149,1806.058994973002,None,1812.7894613259996,None,1812.7894613259996,None,1815.2941591010022,None,1815.2941591010022,None,2.2859946549979213,1817.0959852910019,None,1817.0959852910019,None,5,1,1.3183391290003783,1819.368695983001,None,1819.368695983001,None,1819.368695983001,None,1820.7036283140005,None,1,0.8684626239992213,1820.7036283140005,None,144,1821.5889630300007,None,1092,A,1,2021_May_21_1353,GazeFlow,2020.1.2,59.86853181772707,
15,Block514.xls,A,14,5,109,49,22,incongruent,Left,Right,Left,39,38,1,yellow,2,5,/home/docky/apps/exp/images/39Yi.jpeg,/home/docky/apps/exp/images/38Y.jpeg,0,11,11,11,0,4,4,4,1822.5908954959996,None,1822.5908954959996,None,1,7.3651406329991005,1822.5908954959996,None,1829.9894191620006,None,1829.9894191620006,None,1832.4920870349997,None,1832.4920870349997,None,5.542762627999764,1834.2975874950025,None,1834.2975874950025,None,5,1,1.5867034270013392,1839.840318587001,None,1839.840318587001,None,1839.840318587001,None,1841.443776688,None,1,1.036542025001836,1841.443776688,None,146,1842.4962958760007,None,1092,A,1,2021_May_21_1353,GazeFlow,2020.1.2,59.86853181772707,
15,Block514.xls,A,14,6,89,29,21,incongruent,Right,Left,Right,79,82,3,yellow,2,6,/home/docky/apps/exp/images/79Yi.jpeg,/home/docky/apps/exp/images/80Y.jpeg,0,11,11,11,0,5,5,5,1843.498360305999,None,1843.498360305999,None,1,7.03099633400052,1843.498360305999,None,1850.5627319090017,None,1850.5627319090017,None,1853.0675142200016,None,1853.0675142200016,None,4.1569189299989375,1854.8687019860008,None,1854.8687019860008,None,6,1,3.4399874660011847,1859.0290675270007,None,1859.0290675270007,None,1859.0290675270007,None,1862.4852120670002,None,1,0.8355323560026591,1862.4852120670002,None,148,1863.3368100270018,None,1092,A,1,2021_May_21_1353,GazeFlow,2020.1.2,59.86853181772707,
15,Block514.xls,A,14,7,91,31,22,incongruent,Left,Right,Left,19,16,3,blue,2,5,/home/docky/apps/exp/images/19Bi.jpeg,/home/docky/apps/exp/images/16B.jpeg,0,11,11,11,0,6,6,6,1864.3388563270018,None,1864.3388563270018,None,1,5.711708082999394,1864.3388563270018,None,1870.0840582849996,None,1870.0840582849996,None,1872.5873112619993,None,1872.5873112619993,None,1.0504360189988802,1874.3923105819995,None,1874.3923105819995,None,5,1,1.4031279279988667,1875.4272348740014,None,1875.4272348740014,None,1875.4272348740014,None,1876.846352241002,None,1,1.368937185001414,1876.846352241002,None,150,1878.2319813729991,None,1092,A,1,2021_May_21_1353,GazeFlow,2020.1.2,59.86853181772707,
15,Block514.xls,A,14,8,79,19,21,incongruent,Right,Left,Right,62,65,3,yellow,2,6,/home/docky/apps/exp/images/38B.jpeg,/home/docky/apps/exp/images/35Bi.jpeg,0,11,11,11,0,7,7,7,1879.2342916170019,None,1879.2342916170019,None,1,6.696643166000285,1879.2342916170019,None,1885.9646734540001,None,1885.9646734540001,None,1888.4672760409994,None,1888.4672760409994,None,7.412905631001195,1890.2733830720026,None,1890.2733830720026,None,6,1,1.5543746919975092,1897.6855867400009,None,1897.6855867400009,None,1897.6855867400009,None,1899.2562046780004,None,1,0.768573158999061,1899.2562046780004,None,152,1900.041376000001,None,1092,A,1,2021_May_21_1353,GazeFlow,2020.1.2,59.86853181772707,
15,Block514.xls,A,,,,,,,,,,,,,,,,,,0,11,11,11,,,,,,,,,,,,,,,,,,,,,,,,,,,,,,,,,,,,,,,,,,,,1092,A,1,2021_May_21_1353,GazeFlow,2020.1.2,59.86853181772707,
