Nblock,condsFile,grouping,Block,TrialBlock,N,trialN,trialCond,gazeCon,gazedirR,corrBinR,corrBinP,valLBY,valRBY,diff,colorCube,feedbacktext,corrAns,imageL,imageR,SelBlocks.thisRepN,SelBlocks.thisTrialN,SelBlocks.thisN,SelBlocks.thisIndex,Trials.thisRepN,Trials.thisTrialN,Trials.thisN,Trials.thisIndex,waitCube.started,waitCube.stopped,text_3.started,text_3.stopped,StartKeyPress.keys,StartKeyPress.rt,StartKeyPress.started,StartKeyPress.stopped,StimL.started,StimL.stopped,StimR.started,StimR.stopped,imageStim2L.started,imageStim2L.stopped,imageStim2R.started,imageStim2R.stopped,RTkeyRelease,imageStim3L.started,imageStim3L.stopped,imageStim3R.started,imageStim3R.stopped,dropResp.keys,dropResp.corr,dropResp.rt,dropResp.started,dropResp.stopped,imageStim5L.started,imageStim5L.stopped,imageStim5R.started,imageStim5R.stopped,text_2.started,text_2.stopped,ReturnSpace.keys,ReturnSpace.rt,ReturnSpace.started,ReturnSpace.stopped,totalpoints,textFeedback.started,textFeedback.stopped,participant,group,session,date,expName,psychopyVersion,frameRate,
1,Block502.xls,A,2,1,93,33,22,incongruent,Left,Right,Left,38,35,3,blue,2,5,/home/docky/apps/exp/images/38B.jpeg,/home/docky/apps/exp/images/35Bi.jpeg,0,0,0,0,0,0,0,0,61.7744275740115,None,61.7744275740115,None,1,6.783165019005537,61.7744275740115,None,68.59555019700201,None,68.59555019700201,None,71.10834044602234,None,71.10834044602234,None,1.066013825009577,72.9129629630479,None,72.9129629630479,None,5,1,1.2522695600055158,73.96175234799739,None,73.96175234799739,None,73.96175234799739,None,75.23024815804092,None,1,1.6198633760213852,75.23024815804092,None,2,76.86673424299806,None,111,A,1,2021_May_24_0932,GazeFlow,2020.1.2,59.982104939414135,
1,Block502.xls,A,2,2,42,42,12,congruent,Right,Right,Left,83,80,3,blue,2,5,/home/docky/apps/exp/images/83Bi.jpeg,/home/docky/apps/exp/images/80B.jpeg,0,0,0,0,0,1,1,1,77.86920499504777,None,77.86920499504777,None,1,5.093479080998804,77.86920499504777,None,82.99651797901606,None,82.99651797901606,None,85.49962499900721,None,85.49962499900721,None,0.9668255299911834,87.30365369201172,None,87.30365369201172,None,5,1,1.235341546998825,88.25635244400473,None,88.25635244400473,None,88.25635244400473,None,89.50781861803262,None,1,1.0856250199722126,89.50781861803262,None,4,90.61006736505078,None,111,A,1,2021_May_24_0932,GazeFlow,2020.1.2,59.982104939414135,
1,Block502.xls,A,2,3,9,9,11,congruent,Left,Left,Right,38,39,1,blue,2,6,/home/docky/apps/exp/images/38Bi.jpeg,/home/docky/apps/exp/images/39B.jpeg,0,0,0,0,0,2,2,2,91.61275413504336,None,91.61275413504336,None,1,4.492343983030878,91.61275413504336,None,96.13873175805202,None,96.13873175805202,None,98.64172358100768,None,98.64172358100768,None,1.1003096519852988,100.44693893700605,None,100.44693893700605,None,6,1,1.6199756659916602,101.5319403600297,None,101.5319403600297,None,101.5319403600297,None,103.16834810801083,None,1,0.8512836539885029,103.16834810801083,None,6,104.03631223202683,None,111,A,1,2021_May_24_0932,GazeFlow,2020.1.2,59.982104939414135,
1,Block502.xls,A,2,4,23,23,11,congruent,Left,Left,Right,38,39,1,yellow,2,6,/home/docky/apps/exp/images/38Yi.jpeg,/home/docky/apps/exp/images/39Y.jpeg,0,0,0,0,0,3,3,3,105.03853924904251,None,105.03853924904251,None,1,6.329291517962702,105.03853924904251,None,111.40154630300822,None,111.40154630300822,None,113.90474176802672,None,113.90474176802672,None,0.833258009981364,115.7101149020018,None,115.7101149020018,None,5,0,1.3687157050007954,116.52778738900088,None,116.52778738900088,None,116.52778738900088,None,117.91344750003191,None,1,1.5027322189998813,117.91344750003191,None,4,119.43297291302588,None,111,A,1,2021_May_24_0932,GazeFlow,2020.1.2,59.982104939414135,
1,Block502.xls,A,2,5,57,57,12,congruent,Right,Right,Left,77,72,5,yellow,2,5,/home/docky/apps/exp/images/77Y.jpeg,/home/docky/apps/exp/images/72Yi.jpeg,0,0,0,0,0,4,4,4,120.43528174405219,None,120.43528174405219,None,1,4.809811833023559,120.43528174405219,None,125.27862117200857,None,125.27862117200857,None,127.78133307100506,None,127.78133307100506,None,0.9499210169888102,129.58470091799973,None,129.58470091799973,None,5,1,1.2020240349811502,130.52162840304663,None,130.52162840304663,None,130.52162840304663,None,131.74008391803363,None,1,1.0356005349894986,131.74008391803363,None,6,132.79220404603984,None,111,A,1,2021_May_24_0932,GazeFlow,2020.1.2,59.982104939414135,
1,Block502.xls,A,2,6,118,58,22,incongruent,Left,Right,Left,80,79,1,yellow,2,5,/home/docky/apps/exp/images/80Yi.jpeg,/home/docky/apps/exp/images/79Y.jpeg,0,0,0,0,0,5,5,5,133.79431679402478,None,133.79431679402478,None,1,5.244475963991135,133.79431679402478,None,139.07198374101426,None,139.07198374101426,None,141.57669065502705,None,141.57669065502705,None,1.2005218499689363,143.38037305604666,None,143.38037305604666,None,6,0,1.30254533799598,144.56562793802004,None,144.56562793802004,None,144.56562793802004,None,145.88464446004946,None,1,0.8847454669885337,145.88464446004946,None,4,146.78604672901565,None,111,A,1,2021_May_24_0932,GazeFlow,2020.1.2,59.982104939414135,
1,Block502.xls,A,2,7,101,41,22,incongruent,Left,Right,Left,83,80,3,blue,2,5,/home/docky/apps/exp/images/83Bi.jpeg,/home/docky/apps/exp/images/80B.jpeg,0,0,0,0,0,6,6,6,147.78815806901548,None,147.78815806901548,None,1,4.910366631054785,147.78815806901548,None,152.73212194704683,None,152.73212194704683,None,155.2344972830033,None,155.2344972830033,None,1.0836042579612695,157.0330537360278,None,157.0330537360278,None,5,1,1.1687364249955863,158.1085514910519,None,158.1085514910519,None,158.1085514910519,None,159.29350157402223,None,1,1.3027156949974597,159.29350157402223,None,6,160.6127256680047,None,111,A,1,2021_May_24_0932,GazeFlow,2020.1.2,59.982104939414135,
1,Block502.xls,A,2,8,69,9,21,incongruent,Right,Left,Right,73,76,3,blue,2,6,/home/docky/apps/exp/images/73B.jpeg,/home/docky/apps/exp/images/76Bi.jpeg,0,0,0,0,0,7,7,7,161.61517962400103,None,161.61517962400103,None,1,5.7118060939828865,161.61517962400103,None,167.36042582499795,None,167.36042582499795,None,169.86347184702754,None,169.86347184702754,None,1.0334533620043658,171.66886289103422,None,171.66886289103422,None,6,1,1.2014555049827322,172.68691540905274,None,172.68691540905274,None,172.68691540905274,None,173.90534305700567,None,1,1.0688865060219541,173.90534305700567,None,8,174.9909380870522,None,111,A,1,2021_May_24_0932,GazeFlow,2020.1.2,59.982104939414135,
1,Block502.xls,A,,,,,,,,,,,,,,,,,,0,0,0,0,,,,,,,,,,,,,,,,,,,,,,,,,,,,,,,,,,,,,,,,,,,,111,A,1,2021_May_24_0932,GazeFlow,2020.1.2,59.982104939414135,
2,Block506.xls,A,6,1,120,60,22,incongruent,Left,Right,Left,80,79,1,yellow,2,5,/home/docky/apps/exp/images/80Yi.jpeg,/home/docky/apps/exp/images/79Y.jpeg,0,1,1,1,0,0,0,0,194.27879395900527,None,194.27879395900527,None,1,9.728163775987923,194.27879395900527,None,204.03428445704048,None,204.03428445704048,None,206.5531549300067,None,206.5531549300067,None,0.9163076350232586,208.35669386404334,None,208.35669386404334,None,5,1,1.168438901018817,209.25790882203728,None,209.25790882203728,None,209.25790882203728,None,210.44275836803718,None,1,0.8685253069852479,210.44275836803718,None,10,211.32767801900627,None,111,A,1,2021_May_24_0932,GazeFlow,2020.1.2,59.982104939414135,
2,Block506.xls,A,6,2,51,51,12,congruent,Right,Right,Left,66,65,1,yellow,2,5,/home/docky/apps/exp/images/66Y.jpeg,/home/docky/apps/exp/images/35Bi.jpeg,0,1,1,1,0,1,1,1,212.3299971150118,None,212.3299971150118,None,1,5.278086333011743,212.3299971150118,None,217.6412736910279,None,217.6412736910279,None,220.14457287901314,None,220.14457287901314,None,6.878802342980634,221.9470085320063,None,221.9470085320063,None,5,1,5.845118426950648,228.82879628404044,None,228.82879628404044,None,228.82879628404044,None,234.69046662503388,None,1,1.118991900992114,234.69046662503388,None,12,235.82586878503207,None,111,A,1,2021_May_24_0932,GazeFlow,2020.1.2,59.982104939414135,
2,Block506.xls,A,6,3,119,59,22,incongruent,Left,Right,Left,80,79,1,yellow,2,5,/home/docky/apps/exp/images/80Y.jpeg,/home/docky/apps/exp/images/79Yi.jpeg,0,1,1,1,0,2,2,2,236.82797040703008,None,236.82797040703008,None,1,6.045281416038051,236.82797040703008,None,242.9071390600293,None,242.9071390600293,None,245.41191501100548,None,245.41191501100548,None,1.083294450014364,247.20906606101198,None,247.20906606101198,None,5,1,1.1014204089879058,248.28373237804044,None,248.28373237804044,None,248.28373237804044,None,249.40186444600113,None,1,0.9687684790114872,249.40186444600113,None,14,250.38716360303806,None,111,A,1,2021_May_24_0932,GazeFlow,2020.1.2,59.982104939414135,
2,Block506.xls,A,6,4,28,28,11,congruent,Left,Left,Right,72,77,5,yellow,2,6,/home/docky/apps/exp/images/72Y.jpeg,/home/docky/apps/exp/images/77Yi.jpeg,0,1,1,1,0,3,3,3,251.38945202203467,None,251.38945202203467,None,1,5.2271047210088,251.38945202203467,None,256.6501214330201,None,256.6501214330201,None,259.1530181320268,None,259.1530181320268,None,1.1504017200204544,260.9568402940058,None,260.9568402940058,None,6,1,1.2690014980034903,262.0938069700496,None,262.0938069700496,None,262.0938069700496,None,263.37948668102035,None,1,0.9514097619685344,263.37948668102035,None,16,264.3476828359999,None,111,A,1,2021_May_24_0932,GazeFlow,2020.1.2,59.982104939414135,
2,Block506.xls,A,6,5,85,25,21,incongruent,Right,Left,Right,69,75,6,yellow,2,6,/home/docky/apps/exp/images/69Y.jpeg,/home/docky/apps/exp/images/76Yi.jpeg,0,1,1,1,0,4,4,4,265.34971278801095,None,265.34971278801095,None,1,4.6268181479536,265.34971278801095,None,270.0096949840081,None,270.0096949840081,None,272.51234190701507,None,272.51234190701507,None,1.1338880640105344,274.3158528790227,None,274.3158528790227,None,6,1,1.1183224000269547,275.43618854501983,None,275.43618854501983,None,275.43618854501983,None,276.57129675900796,None,1,1.2190967759815976,276.57129675900796,None,18,277.8072020630352,None,111,A,1,2021_May_24_0932,GazeFlow,2020.1.2,59.982104939414135,
2,Block506.xls,A,6,6,71,11,21,incongruent,Right,Left,Right,76,79,3,blue,2,6,/home/docky/apps/exp/images/76B.jpeg,/home/docky/apps/exp/images/79Bi.jpeg,0,1,1,1,0,5,5,5,278.80950122803915,None,278.80950122803915,None,1,5.427263897960074,278.80950122803915,None,284.26869300002,None,284.26869300002,None,286.7756688100053,None,286.7756688100053,None,0.9331042919657193,288.5770331850508,None,288.5770331850508,None,6,1,1.185007794003468,289.49706813902594,None,289.49706813902594,None,289.49706813902594,None,290.6987332540448,None,1,0.9184893650235608,290.6987332540448,None,20,291.63397395500215,None,111,A,1,2021_May_24_0932,GazeFlow,2020.1.2,59.982104939414135,
2,Block506.xls,A,6,7,56,56,12,congruent,Right,Right,Left,76,69,7,yellow,2,5,/home/docky/apps/exp/images/76Yi.jpeg,/home/docky/apps/exp/images/69Y.jpeg,0,1,1,1,0,6,6,6,292.63613637001254,None,292.63613637001254,None,1,4.993438387988135,292.63613637001254,None,297.66341244702926,None,297.66341244702926,None,300.16803225001786,None,300.16803225001786,None,1.134217226994224,301.9696521630394,None,301.9696521630394,None,5,1,1.11823954799911,303.09012524900027,None,303.09012524900027,None,303.09012524900027,None,304.2251451270422,None,1,0.9019278910127468,304.2251451270422,None,22,305.14338493702235,None,111,A,1,2021_May_24_0932,GazeFlow,2020.1.2,59.982104939414135,
2,Block506.xls,A,6,8,33,33,12,congruent,Right,Right,Left,38,35,3,blue,2,5,/home/docky/apps/exp/images/38B.jpeg,/home/docky/apps/exp/images/35Bi.jpeg,0,1,1,1,0,7,7,7,306.1459347199998,None,306.1459347199998,None,1,4.392425402009394,306.1459347199998,None,310.57189991005,None,310.57189991005,None,313.07672809500946,None,313.07672809500946,None,1.0170726489741355,314.8783416810329,None,314.8783416810329,None,6,0,1.1859819199889898,315.8814853170188,None,315.8814853170188,None,315.8814853170188,None,317.0833060660516,None,1,0.8017090630019084,317.0833060660516,None,20,317.9016372960177,None,111,A,1,2021_May_24_0932,GazeFlow,2020.1.2,59.982104939414135,
2,Block506.xls,A,,,,,,,,,,,,,,,,,,0,1,1,1,,,,,,,,,,,,,,,,,,,,,,,,,,,,,,,,,,,,,,,,,,,,111,A,1,2021_May_24_0932,GazeFlow,2020.1.2,59.982104939414135,
3,Block505.xls,A,5,1,1,1,11,congruent,Left,Left,Right,16,19,3,blue,2,6,/home/docky/apps/exp/images/16Bi.jpeg,/home/docky/apps/exp/images/19B.jpeg,0,2,2,2,0,0,0,0,337.8936210719985,None,337.8936210719985,None,1,10.057666443986818,337.8936210719985,None,347.9803549540229,None,347.9803549540229,None,350.4990900560515,None,350.4990900560515,None,1.049746013013646,352.30315433704527,None,352.30315433704527,None,6,1,1.0848719029454514,353.3375883750268,None,353.3375883750268,None,353.3375883750268,None,354.4390605200315,None,1,0.7690011789673008,354.4390605200315,None,22,355.2246326690074,None,111,A,1,2021_May_24_0932,GazeFlow,2020.1.2,59.982104939414135,
3,Block505.xls,A,5,2,10,10,11,congruent,Left,Left,Right,73,76,3,blue,2,6,/home/docky/apps/exp/images/73B.jpeg,/home/docky/apps/exp/images/76Bi.jpeg,0,2,2,2,0,1,1,1,356.22593124903506,None,356.22593124903506,None,1,7.064968274033163,356.22593124903506,None,363.32442673301557,None,363.32442673301557,None,365.82904875004897,None,365.82904875004897,None,0.9333734239917248,367.6327377320267,None,367.6327377320267,None,6,1,1.1183515710290521,368.55057057202794,None,368.55057057202794,None,368.55057057202794,None,369.6853495950345,None,1,0.7522376960259862,369.6853495950345,None,24,370.45400370500283,None,111,A,1,2021_May_24_0932,GazeFlow,2020.1.2,59.982104939414135,
3,Block505.xls,A,5,3,95,35,22,incongruent,Left,Right,Left,66,65,1,blue,2,5,/home/docky/apps/exp/images/66B.jpeg,/home/docky/apps/exp/images/35Yi.jpeg,0,2,2,2,0,2,2,2,371.4556658680085,None,371.4556658680085,None,1,4.5767125930287875,371.4556658680085,None,376.06574496801477,None,376.06574496801477,None,378.5703844350064,None,378.5703844350064,None,0.8163696919800714,380.37379284005146,None,380.37379284005146,None,5,1,1.134924322948791,381.1751138360123,None,381.1751138360123,None,381.1751138360123,None,382.3266629880527,None,1,0.7520407190313563,382.3266629880527,None,26,383.09506804600824,None,111,A,1,2021_May_24_0932,GazeFlow,2020.1.2,59.982104939414135,
3,Block505.xls,A,5,4,46,46,12,congruent,Right,Right,Left,35,33,2,yellow,2,5,/home/docky/apps/exp/images/35Yi.jpeg,/home/docky/apps/exp/images/33Y.jpeg,0,2,2,2,0,3,3,3,384.09721621405333,None,384.09721621405333,None,1,4.593023844994605,384.09721621405333,None,388.7237029960379,None,388.7237029960379,None,391.23204614804126,None,391.23204614804126,None,1.050440749968402,393.02535223402083,None,393.02535223402083,None,5,1,1.0682601879816502,394.0667762280209,None,394.0667762280209,None,394.0667762280209,None,395.15133328700904,None,1,0.7851645200280473,395.15133328700904,None,28,395.953153073031,None,111,A,1,2021_May_24_0932,GazeFlow,2020.1.2,59.982104939414135,
3,Block505.xls,A,5,5,78,18,21,incongruent,Right,Left,Right,65,66,1,yellow,2,6,/home/docky/apps/exp/images/35Bi.jpeg,/home/docky/apps/exp/images/66Y.jpeg,0,2,2,2,0,4,4,4,396.95531803305494,None,396.95531803305494,None,1,4.9600952150067315,396.95531803305494,None,401.94918702403083,None,401.94918702403083,None,404.45235162903555,None,404.45235162903555,None,0.9496984390425496,406.25442931003636,None,406.25442931003636,None,6,1,1.1017393110087141,407.1921937550069,None,407.1921937550069,None,407.1921937550069,None,408.31052631902276,None,1,0.802350990998093,408.31052631902276,None,30,409.1291346800281,None,111,A,1,2021_May_24_0932,GazeFlow,2020.1.2,59.982104939414135,
3,Block505.xls,A,5,6,43,43,12,congruent,Right,Right,Left,83,80,3,blue,2,5,/home/docky/apps/exp/images/83B.jpeg,/home/docky/apps/exp/images/80Bi.jpeg,0,2,2,2,0,5,5,5,410.1307421370293,None,410.1307421370293,None,1,4.092397721018642,410.1307421370293,None,414.2566164860036,None,414.2566164860036,None,416.75995920901187,None,416.75995920901187,None,0.9333624099963345,418.56285905401455,None,418.56285905401455,None,5,1,1.068236477964092,419.4828012450016,None,419.4828012450016,None,419.4828012450016,None,420.567704503017,None,1,0.7688226170139387,420.567704503017,None,32,421.35291656001937,None,111,A,1,2021_May_24_0932,GazeFlow,2020.1.2,59.982104939414135,
3,Block505.xls,A,5,7,44,44,12,congruent,Right,Right,Left,39,38,1,blue,2,5,/home/docky/apps/exp/images/39Bi.jpeg,/home/docky/apps/exp/images/38B.jpeg,0,2,2,2,0,6,6,6,422.3545438750298,None,422.3545438750298,None,1,5.09396834904328,422.3545438750298,None,427.4800399110536,None,427.4800399110536,None,429.98541064502206,None,429.98541064502206,None,7.3128080170135945,431.7878527890425,None,431.7878527890425,None,5,1,0.9358492459869012,439.1030271920026,None,439.1030271920026,None,439.1030271920026,None,440.05566493503284,None,1,2.03776536101941,440.05566493503284,None,34,442.10989013302606,None,111,A,1,2021_May_24_0932,GazeFlow,2020.1.2,59.982104939414135,
3,Block505.xls,A,5,8,116,56,22,incongruent,Left,Right,Left,77,72,5,yellow,2,5,/home/docky/apps/exp/images/77Y.jpeg,/home/docky/apps/exp/images/72Y.jpeg,0,2,2,2,0,7,7,7,443.11194189899834,None,443.11194189899834,None,1,4.174981496005785,443.11194189899834,None,447.32172670500586,None,447.32172670500586,None,449.82549255603226,None,449.82549255603226,None,1.083856679033488,451.6274548790534,None,451.6274548790534,None,5,1,1.2017547730356455,452.69713768403744,None,452.69713768403744,None,452.69713768403744,None,453.9156688560033,None,1,1.1193899200297892,453.9156688560033,None,36,455.0514211880509,None,111,A,1,2021_May_24_0932,GazeFlow,2020.1.2,59.982104939414135,
3,Block505.xls,A,,,,,,,,,,,,,,,,,,0,2,2,2,,,,,,,,,,,,,,,,,,,,,,,,,,,,,,,,,,,,,,,,,,,,111,A,1,2021_May_24_0932,GazeFlow,2020.1.2,59.982104939414135,
4,Block509.xls,A,9,1,34,34,12,congruent,Right,Right,Left,38,35,3,blue,2,5,/home/docky/apps/exp/images/38Bi.jpeg,/home/docky/apps/exp/images/35B.jpeg,0,3,3,3,0,0,0,0,477.8473396470072,None,477.8473396470072,None,1,8.874520040000789,477.8473396470072,None,486.7490188490483,None,486.7490188490483,None,489.2732043840224,None,489.2732043840224,None,1.0994785780203529,491.0661218300229,None,491.0661218300229,None,5,1,0.9849525080062449,492.15712256601546,None,492.15712256601546,None,492.15712256601546,None,493.1587043260224,None,1,0.8349829509970732,493.1587043260224,None,38,494.01030476402957,None,111,A,1,2021_May_24_0932,GazeFlow,2020.1.2,59.982104939414135,
4,Block509.xls,A,9,2,7,7,11,congruent,Left,Left,Right,65,66,1,blue,2,6,/home/docky/apps/exp/images/35Yi.jpeg,/home/docky/apps/exp/images/66B.jpeg,0,3,3,3,0,1,1,1,495.0125857620151,None,495.0125857620151,None,1,5.377836150990333,495.0125857620151,None,500.423849126033,None,500.423849126033,None,502.92882662505144,None,502.92882662505144,None,1.033319522975944,504.73211085802177,None,504.73211085802177,None,6,1,1.1683595140348189,505.7504481410142,None,505.7504481410142,None,505.7504481410142,None,506.9352364880033,None,1,0.8354037840035744,506.9352364880033,None,40,507.786996733048,None,111,A,1,2021_May_24_0932,GazeFlow,2020.1.2,59.982104939414135,
4,Block509.xls,A,9,3,74,14,21,incongruent,Right,Left,Right,80,83,3,blue,2,6,/home/docky/apps/exp/images/80B.jpeg,/home/docky/apps/exp/images/83Bi.jpeg,0,3,3,3,0,2,2,2,508.7890674430528,None,508.7890674430528,None,1,4.509839325968642,508.7890674430528,None,513.3319064400275,None,513.3319064400275,None,515.8371039010235,None,515.8371039010235,None,1.2675501070334576,517.6388758610119,None,517.6388758610119,None,6,1,1.068100968026556,518.8924805410206,None,518.8924805410206,None,518.8924805410206,None,519.9773491960368,None,1,0.9686202699667774,519.9773491960368,None,42,520.9628434790066,None,111,A,1,2021_May_24_0932,GazeFlow,2020.1.2,59.982104939414135,
4,Block509.xls,A,9,4,19,19,11,congruent,Left,Left,Right,65,66,1,yellow,2,6,/home/docky/apps/exp/images/35Bi.jpeg,/home/docky/apps/exp/images/66Y.jpeg,0,3,3,3,0,3,3,3,521.9651131050196,None,521.9651131050196,None,1,3.974469106993638,521.9651131050196,None,525.9733926740009,None,525.9733926740009,None,528.4766283460194,None,528.4766283460194,None,1.3008566860225983,530.2815280330251,None,530.2815280330251,None,6,1,1.652418037992902,531.5670702120406,None,531.5670702120406,None,531.5670702120406,None,533.236479009036,None,1,0.7515703599783592,533.236479009036,None,44,534.0042400930542,None,111,A,1,2021_May_24_0932,GazeFlow,2020.1.2,59.982104939414135,
4,Block509.xls,A,9,5,60,60,12,congruent,Right,Right,Left,80,79,1,yellow,2,5,/home/docky/apps/exp/images/80Yi.jpeg,/home/docky/apps/exp/images/79Y.jpeg,0,3,3,3,0,4,4,4,535.0072094310308,None,535.0072094310308,None,1,5.109957834996749,535.0072094310308,None,540.1518805360538,None,540.1518805360538,None,542.6558767590323,None,542.6558767590323,None,1.1000429880223237,544.4593702389975,None,544.4593702389975,None,5,1,1.1857671799953096,545.5441550850519,None,545.5441550850519,None,545.5441550850519,None,546.746582421998,None,1,0.667345006018877,546.746582421998,None,46,547.4306679310394,None,111,A,1,2021_May_24_0932,GazeFlow,2020.1.2,59.982104939414135,
4,Block509.xls,A,9,6,83,23,21,incongruent,Right,Left,Right,38,39,1,yellow,2,6,/home/docky/apps/exp/images/38Yi.jpeg,/home/docky/apps/exp/images/39Y.jpeg,0,3,3,3,0,5,5,5,548.4326149270055,None,548.4326149270055,None,1,5.4445998359587975,548.4326149270055,None,553.9107949600439,None,553.9107949600439,None,556.4144432740286,None,556.4144432740286,None,1.2841023959917948,558.2120855300454,None,558.2120855300454,None,6,1,1.4862285120179877,559.4880075110123,None,559.4880075110123,None,559.4880075110123,None,560.990813278011,None,1,0.6342298369854689,560.990813278011,None,48,561.6416134700412,None,111,A,1,2021_May_24_0932,GazeFlow,2020.1.2,59.982104939414135,
4,Block509.xls,A,9,7,4,4,11,congruent,Left,Left,Right,35,38,3,blue,2,6,/home/docky/apps/exp/images/35B.jpeg,/home/docky/apps/exp/images/38Bi.jpeg,0,3,3,3,0,6,6,6,562.6438946230337,None,562.6438946230337,None,1,4.192264523997437,562.6438946230337,None,566.8695149960113,None,566.8695149960113,None,569.3743094950332,None,569.3743094950332,None,1.5681616240181029,571.1706477380358,None,571.1706477380358,None,6,1,1.1519996410352178,572.7304925440112,None,572.7304925440112,None,572.7304925440112,None,573.8989989250549,None,1,0.7347233010223135,573.8989989250549,None,50,574.6500918480451,None,111,A,1,2021_May_24_0932,GazeFlow,2020.1.2,59.982104939414135,
4,Block509.xls,A,9,8,24,24,11,congruent,Left,Left,Right,38,39,1,yellow,2,6,/home/docky/apps/exp/images/38Y.jpeg,/home/docky/apps/exp/images/39Yi.jpeg,0,3,3,3,0,7,7,7,575.652381271997,None,575.652381271997,None,1,4.960594596981537,575.652381271997,None,580.6467829180183,None,580.6467829180183,None,583.1496562859975,None,583.1496562859975,None,1.5680517139844596,584.9526329100481,None,584.9526329100481,None,6,1,1.002156439004466,586.5070289770374,None,586.5070289770374,None,586.5070289770374,None,587.5255839200108,None,1,0.8014002660056576,587.5255839200108,None,52,588.3436705120257,None,111,A,1,2021_May_24_0932,GazeFlow,2020.1.2,59.982104939414135,
4,Block509.xls,A,,,,,,,,,,,,,,,,,,0,3,3,3,,,,,,,,,,,,,,,,,,,,,,,,,,,,,,,,,,,,,,,,,,,,111,A,1,2021_May_24_0932,GazeFlow,2020.1.2,59.982104939414135,
5,Block504.xls,A,4,1,11,11,11,congruent,Left,Left,Right,73,76,3,blue,2,6,/home/docky/apps/exp/images/73Bi.jpeg,/home/docky/apps/exp/images/76B.jpeg,0,4,4,4,0,0,0,0,609.1015054890304,None,609.1015054890304,None,1,6.504717067989986,609.1015054890304,None,615.6329210890108,None,615.6329210890108,None,618.1525722510414,None,618.1525722510414,None,1.066491206001956,619.9559007010539,None,619.9559007010539,None,6,1,1.0682571890065446,621.0075244390173,None,621.0075244390173,None,621.0075244390173,None,622.0921254820423,None,1,0.6692192770424299,622.0921254820423,None,54,622.7773584690294,None,111,A,1,2021_May_24_0932,GazeFlow,2020.1.2,59.982104939414135,
5,Block504.xls,A,4,2,87,27,21,incongruent,Right,Left,Right,72,77,5,yellow,2,6,/home/docky/apps/exp/images/72Y.jpeg,/home/docky/apps/exp/images/77Yi.jpeg,0,4,4,4,0,1,1,1,623.7789316750132,None,623.7789316750132,None,1,4.660218202043325,623.7789316750132,None,628.4733194970177,None,628.4733194970177,None,630.9759579640231,None,630.9759579640231,None,1.1337414100416936,632.7790463500423,None,632.7790463500423,None,6,1,1.101824545999989,633.8990194660146,None,633.8990194660146,None,633.8990194660146,None,635.017737376038,None,1,0.8517438269918784,635.017737376038,None,56,635.8857120380271,None,111,A,1,2021_May_24_0932,GazeFlow,2020.1.2,59.982104939414135,
5,Block504.xls,A,4,3,48,48,12,congruent,Right,Right,Left,39,38,1,yellow,2,5,/home/docky/apps/exp/images/39Yi.jpeg,/home/docky/apps/exp/images/38Y.jpeg,0,4,4,4,0,2,2,2,636.8879119650228,None,636.8879119650228,None,1,4.492406887002289,636.8879119650228,None,641.4142286580172,None,641.4142286580172,None,643.9189070410212,None,643.9189070410212,None,1.1170136450091377,645.7213478580234,None,645.7213478580234,None,5,1,1.1023463149904273,646.8240332250134,None,646.8240332250134,None,646.8240332250134,None,647.9429652320105,None,1,0.7512574889697134,647.9429652320105,None,58,648.710572957003,None,111,A,1,2021_May_24_0932,GazeFlow,2020.1.2,59.982104939414135,
5,Block504.xls,A,4,4,38,38,12,congruent,Right,Right,Left,79,73,6,blue,2,5,/home/docky/apps/exp/images/79B.jpeg,/home/docky/apps/exp/images/73Bi.jpeg,0,4,4,4,0,3,3,3,649.7131283140043,None,649.7131283140043,None,1,4.2418365919729695,649.7131283140043,None,653.9887801490258,None,653.9887801490258,None,656.4978260110365,None,656.4978260110365,None,1.15032820799388,658.2954963000375,None,658.2954963000375,None,5,1,0.9513405869947746,659.4319406480063,None,659.4319406480063,None,659.4319406480063,None,660.4002423770144,None,1,0.6350533260265365,660.4002423770144,None,60,661.0517300150241,None,111,A,1,2021_May_24_0932,GazeFlow,2020.1.2,59.982104939414135,
5,Block504.xls,A,4,5,2,2,11,congruent,Left,Left,Right,16,19,3,blue,2,6,/home/docky/apps/exp/images/16B.jpeg,/home/docky/apps/exp/images/19Bi.jpeg,0,4,4,4,0,4,4,4,662.0532962640282,None,662.0532962640282,None,1,3.9587965109967627,662.0532962640282,None,666.0474430930335,None,666.0474430930335,None,668.5498602700536,None,668.5498602700536,None,1.0497400459717028,670.3540047910064,None,670.3540047910064,None,6,1,1.001386872958392,671.3886875699973,None,671.3886875699973,None,671.3886875699973,None,672.4067050660378,None,1,0.6521116730291396,672.4067050660378,None,62,673.0751256120275,None,111,A,1,2021_May_24_0932,GazeFlow,2020.1.2,59.982104939414135,
5,Block504.xls,A,4,6,73,13,21,incongruent,Right,Left,Right,80,83,3,blue,2,6,/home/docky/apps/exp/images/80Bi.jpeg,/home/docky/apps/exp/images/83B.jpeg,0,4,4,4,0,5,5,5,674.0765611460083,None,674.0765611460083,None,1,4.0753499760176055,674.0765611460083,None,678.1840040200041,None,678.1840040200041,None,680.6888236390078,None,680.6888236390078,None,1.133645411056932,682.4919642870082,None,682.4919642870082,None,6,1,0.9846995630068704,683.6125425050268,None,683.6125425050268,None,683.6125425050268,None,684.6136397460359,None,1,0.6014233240275644,684.6136397460359,None,64,685.2315947640454,None,111,A,1,2021_May_24_0932,GazeFlow,2020.1.2,59.982104939414135,
5,Block504.xls,A,4,7,63,3,21,incongruent,Right,Left,Right,35,38,3,blue,2,6,/home/docky/apps/exp/images/35B.jpeg,/home/docky/apps/exp/images/38Bi.jpeg,0,4,4,4,0,6,6,6,686.233663962048,None,686.233663962048,None,1,4.29268294601934,686.233663962048,None,690.5596720980247,None,690.5596720980247,None,693.0688893200131,None,693.0688893200131,None,1.1836408370290883,694.8666721280315,None,694.8666721280315,None,6,1,0.8846047889674082,696.036590653006,None,696.036590653006,None,696.036590653006,None,696.9377285840455,None,1,0.9184190120431595,696.9377285840455,None,66,697.8727804030059,None,111,A,1,2021_May_24_0932,GazeFlow,2020.1.2,59.982104939414135,
5,Block504.xls,A,4,8,86,26,21,incongruent,Right,Left,Right,72,77,5,yellow,2,6,/home/docky/apps/exp/images/72Yi.jpeg,/home/docky/apps/exp/images/77Y.jpeg,0,4,4,4,0,7,7,7,698.875258420012,None,698.875258420012,None,1,3.8743265699595213,698.875258420012,None,702.7834756009979,None,702.7834756009979,None,705.2825720240362,None,705.2825720240362,None,0.8332750920089893,707.0851596610155,None,707.0851596610155,None,6,1,0.9850655879708938,707.9094575000345,None,707.9094575000345,None,707.9094575000345,None,708.9108566640061,None,1,0.919232661020942,708.9108566640061,None,68,709.8465865430189,None,111,A,1,2021_May_24_0932,GazeFlow,2020.1.2,59.982104939414135,
5,Block504.xls,A,,,,,,,,,,,,,,,,,,0,4,4,4,,,,,,,,,,,,,,,,,,,,,,,,,,,,,,,,,,,,,,,,,,,,111,A,1,2021_May_24_0932,GazeFlow,2020.1.2,59.982104939414135,
6,Block511.xls,A,11,1,15,15,11,congruent,Left,Left,Right,80,83,3,blue,2,6,/home/docky/apps/exp/images/80Bi.jpeg,/home/docky/apps/exp/images/83B.jpeg,0,5,5,5,0,0,0,0,731.3728340960224,None,731.3728340960224,None,1,5.567943111003842,731.3728340960224,None,736.9715389030171,None,736.9715389030171,None,739.4878140640212,None,739.4878140640212,None,1.0829912649933249,741.2913268390112,None,741.2913268390112,None,5,0,0.9678949330118485,742.3599855720531,None,742.3599855720531,None,742.3599855720531,None,743.3445244830218,None,1,1.08542130200658,743.3445244830218,None,66,744.4465652790386,None,111,A,1,2021_May_24_0932,GazeFlow,2020.1.2,59.982104939414135,
6,Block511.xls,A,11,2,105,45,22,incongruent,Left,Right,Left,39,38,1,blue,2,5,/home/docky/apps/exp/images/39Bi.jpeg,/home/docky/apps/exp/images/38B.jpeg,0,5,5,5,0,1,1,1,745.4486146740383,None,745.4486146740383,None,1,4.776622269011568,745.4486146740383,None,750.2590838820324,None,750.2590838820324,None,752.7665297110216,None,752.7665297110216,None,1.0172866189968772,754.5650437020231,None,754.5650437020231,None,5,1,0.9179509360110387,755.5688661110471,None,755.5688661110471,None,755.5688661110471,None,756.5034565240494,None,1,0.7514697109581903,756.5034565240494,None,68,757.271323146997,None,111,A,1,2021_May_24_0932,GazeFlow,2020.1.2,59.982104939414135,
6,Block511.xls,A,11,3,68,8,21,incongruent,Right,Left,Right,38,39,1,blue,2,6,/home/docky/apps/exp/images/38B.jpeg,/home/docky/apps/exp/images/39Bi.jpeg,0,5,5,5,0,2,2,2,758.2738492530189,None,758.2738492530189,None,1,4.259470994991716,758.2738492530189,None,762.5711130750133,None,762.5711130750133,None,765.07088031905,None,765.07088031905,None,0.9501551660359837,766.8723402420292,None,766.8723402420292,None,6,1,1.0013681150157936,767.8092705060262,None,767.8092705060262,None,767.8092705060262,None,768.8272690260201,None,1,0.5345539900008589,768.8272690260201,None,70,769.3782302250038,None,111,A,1,2021_May_24_0932,GazeFlow,2020.1.2,59.982104939414135,
6,Block511.xls,A,11,4,80,20,21,incongruent,Right,Left,Right,62,65,3,yellow,2,6,/home/docky/apps/exp/images/38Bi.jpeg,/home/docky/apps/exp/images/35B.jpeg,0,5,5,5,0,3,3,3,770.3802810700145,None,770.3802810700145,None,1,3.557654634001665,770.3802810700145,None,773.9696145620546,None,773.9696145620546,None,776.474880460999,None,776.474880460999,None,0.9667732189991511,778.2797171330312,None,778.2797171330312,None,5,0,1.336180015001446,779.2312682699994,None,779.2312682699994,None,779.2312682699994,None,780.5838893650216,None,1,0.5345538789988495,780.5838893650216,None,68,781.1349667520262,None,111,A,1,2021_May_24_0932,GazeFlow,2020.1.2,59.982104939414135,
6,Block511.xls,A,11,5,5,5,11,congruent,Left,Left,Right,65,66,1,blue,2,6,/home/docky/apps/exp/images/35Yi.jpeg,/home/docky/apps/exp/images/66B.jpeg,0,5,5,5,0,4,4,4,782.1364380820305,None,782.1364380820305,None,1,4.342578200972639,782.1364380820305,None,786.5126465950161,None,786.5126465950161,None,789.0173650440411,None,789.0173650440411,None,0.832872954022605,790.8196628110018,None,790.8196628110018,None,6,1,1.3853719060425647,791.6388043080224,None,791.6388043080224,None,791.6388043080224,None,793.0411205980345,None,1,0.5681920949718915,793.0411205980345,None,70,793.6257520460058,None,111,A,1,2021_May_24_0932,GazeFlow,2020.1.2,59.982104939414135,
6,Block511.xls,A,11,6,18,18,11,congruent,Left,Left,Right,65,66,1,yellow,2,6,/home/docky/apps/exp/images/35B.jpeg,/home/docky/apps/exp/images/66Yi.jpeg,0,5,5,5,0,5,5,5,794.6275539880153,None,794.6275539880153,None,1,4.6095185650046915,794.6275539880153,None,799.2708857230027,None,799.2708857230027,None,801.7735984640312,None,801.7735984640312,None,1.0838222710299306,803.577804761997,None,803.577804761997,None,6,1,0.9513837289996445,804.6473244010122,None,804.6473244010122,None,804.6473244010122,None,805.6153182210401,None,1,0.46817287104204297,805.6153182210401,None,72,806.1000777350273,None,111,A,1,2021_May_24_0932,GazeFlow,2020.1.2,59.982104939414135,
6,Block511.xls,A,11,7,25,25,11,congruent,Left,Left,Right,69,75,6,yellow,2,6,/home/docky/apps/exp/images/69Yi.jpeg,/home/docky/apps/exp/images/76Y.jpeg,0,5,5,5,0,6,6,6,807.1015723760356,None,807.1015723760356,None,1,3.8248594909673557,807.1015723760356,None,810.960360482044,None,810.960360482044,None,813.463468233007,None,813.463468233007,None,1.0670514309895225,815.2668192220153,None,815.2668192220153,None,6,1,0.9681683839880861,816.3199420190067,None,816.3199420190067,None,816.3199420190067,None,817.3047174840467,None,1,0.6519515060354024,817.3047174840467,None,74,817.9731535370229,None,111,A,1,2021_May_24_0932,GazeFlow,2020.1.2,59.982104939414135,
6,Block511.xls,A,11,8,3,3,11,congruent,Left,Left,Right,35,38,3,blue,2,6,/home/docky/apps/exp/images/35Bi.jpeg,/home/docky/apps/exp/images/38B.jpeg,0,5,5,5,0,7,7,7,818.9747467130073,None,818.9747467130073,None,1,4.092416947998572,818.9747467130073,None,823.1006945290137,None,823.1006945290137,None,825.6035501760198,None,825.6035501760198,None,1.0836147159570828,827.4069347990444,None,827.4069347990444,None,6,1,0.8683576979674399,828.4769305210211,None,828.4769305210211,None,828.4769305210211,None,829.3614646590431,None,1,0.434753279958386,829.3614646590431,None,76,829.8128557510208,None,111,A,1,2021_May_24_0932,GazeFlow,2020.1.2,59.982104939414135,
6,Block511.xls,A,,,,,,,,,,,,,,,,,,0,5,5,5,,,,,,,,,,,,,,,,,,,,,,,,,,,,,,,,,,,,,,,,,,,,111,A,1,2021_May_24_0932,GazeFlow,2020.1.2,59.982104939414135,
7,Block508.xls,A,8,1,13,13,11,congruent,Left,Left,Right,76,79,3,blue,2,6,/home/docky/apps/exp/images/76Bi.jpeg,/home/docky/apps/exp/images/79B.jpeg,0,6,6,6,0,0,0,0,861.2097131200135,None,861.2097131200135,None,1,5.248851377051324,861.2097131200135,None,866.487541332026,None,866.487541332026,None,869.006564623036,None,869.006564623036,None,0.9827692870167084,870.808074279048,None,870.808074279048,None,6,1,1.0015571980038658,871.7778830900206,None,871.7778830900206,None,871.7778830900206,None,872.7958622630103,None,1,0.6681193439872004,872.7958622630103,None,78,873.4804366140161,None,111,A,1,2021_May_24_0932,GazeFlow,2020.1.2,59.982104939414135,
7,Block508.xls,A,8,2,21,21,11,congruent,Left,Left,Right,62,65,3,yellow,2,6,/home/docky/apps/exp/images/38B.jpeg,/home/docky/apps/exp/images/35Bi.jpeg,0,6,6,6,0,1,1,1,874.4824922530097,None,874.4824922530097,None,1,3.8247901700087823,874.4824922530097,None,878.3464830180164,None,878.3464830180164,None,880.8443993480178,None,880.8443993480178,None,0.7497839420102537,882.6474043930066,None,882.6474043930066,None,6,1,1.1350087939645164,883.3836249550222,None,883.3836249550222,None,883.3836249550222,None,884.5354708590312,None,1,1.018933860003017,884.5354708590312,None,80,885.5705956040183,None,111,A,1,2021_May_24_0932,GazeFlow,2020.1.2,59.982104939414135,
7,Block508.xls,A,8,3,99,39,22,incongruent,Left,Right,Left,79,76,3,blue,2,5,/home/docky/apps/exp/images/79Bi.jpeg,/home/docky/apps/exp/images/76B.jpeg,0,6,6,6,0,2,2,2,886.5731661870377,None,886.5731661870377,None,1,3.757426793978084,886.5731661870377,None,890.364584695024,None,890.364584695024,None,892.8715558170225,None,892.8715558170225,None,1.000165779958479,894.6728535960428,None,894.6728535960428,None,5,1,0.9015797810279764,895.6572537560132,None,895.6572537560132,None,895.6572537560132,None,896.5753926060279,None,1,0.5687939319759607,896.5753926060279,None,82,897.1602770540048,None,111,A,1,2021_May_24_0932,GazeFlow,2020.1.2,59.982104939414135,
7,Block508.xls,A,8,4,37,37,12,congruent,Right,Right,Left,66,65,1,blue,2,5,/home/docky/apps/exp/images/66Bi.jpeg,/home/docky/apps/exp/images/35Y.jpeg,0,6,6,6,0,3,3,3,898.1617117300048,None,898.1617117300048,None,1,4.643136046011932,898.1617117300048,None,902.8384998670081,None,902.8384998670081,None,905.343474977999,None,905.343474977999,None,1.0835804149974138,907.1395231310162,None,907.1395231310162,None,5,1,1.3527042060159147,908.2152658650302,None,908.2152658650302,None,908.2152658650302,None,909.5843729880289,None,1,0.5172924940125085,909.5843729880289,None,84,910.1183398709982,None,111,A,1,2021_May_24_0932,GazeFlow,2020.1.2,59.982104939414135,
7,Block508.xls,A,8,5,82,22,21,incongruent,Right,Left,Right,38,39,1,yellow,2,6,/home/docky/apps/exp/images/38Y.jpeg,/home/docky/apps/exp/images/39Yi.jpeg,0,6,6,6,0,4,4,4,911.120555319998,None,911.120555319998,None,1,4.259172970952932,911.120555319998,None,915.4145149250398,None,915.4145149250398,None,917.9176078040036,None,917.9176078040036,None,0.9164916269946843,919.7212542780326,None,919.7212542780326,None,6,1,0.9514833790017292,920.6225734460168,None,920.6225734460168,None,920.6225734460168,None,921.5906092630466,None,1,0.4849454520153813,921.5906092630466,None,86,922.0919751790352,None,111,A,1,2021_May_24_0932,GazeFlow,2020.1.2,59.982104939414135,
7,Block508.xls,A,8,6,104,44,22,incongruent,Left,Right,Left,39,38,1,blue,2,5,/home/docky/apps/exp/images/39B.jpeg,/home/docky/apps/exp/images/38Bi.jpeg,0,6,6,6,0,5,5,5,923.0934454640374,None,923.0934454640374,None,1,3.8248432319960557,923.0934454640374,None,926.9522734750062,None,926.9522734750062,None,929.4551260300213,None,929.4551260300213,None,1.0497073979931884,931.2563204480102,None,931.2563204480102,None,6,0,1.135295276006218,932.2953336660285,None,932.2953336660285,None,932.2953336660285,None,933.4472281479975,None,1,0.6007203480112366,933.4472281479975,None,84,934.0647443290218,None,111,A,1,2021_May_24_0932,GazeFlow,2020.1.2,59.982104939414135,
7,Block508.xls,A,8,7,39,39,12,congruent,Right,Right,Left,79,73,6,blue,2,5,/home/docky/apps/exp/images/79B.jpeg,/home/docky/apps/exp/images/73Bi.jpeg,0,6,6,6,0,6,6,6,935.0670796800405,None,935.0670796800405,None,1,3.52388015500037,935.0670796800405,None,938.6244179610512,None,938.6244179610512,None,941.1297404660145,None,941.1297404660145,None,0.933204637025483,942.9316086770268,None,942.9316086770268,None,5,1,1.0347692490322515,943.8511315510259,None,943.8511315510259,None,943.8511315510259,None,944.9024404640077,None,1,0.5853752409457229,944.9024404640077,None,86,945.5037379600108,None,111,A,1,2021_May_24_0932,GazeFlow,2020.1.2,59.982104939414135,
7,Block508.xls,A,8,8,36,36,12,congruent,Right,Right,Left,66,65,1,blue,2,5,/home/docky/apps/exp/images/66B.jpeg,/home/docky/apps/exp/images/35Yi.jpeg,0,6,6,6,0,7,7,7,946.5055423090234,None,946.5055423090234,None,1,4.2424006999935955,946.5055423090234,None,950.7817173020449,None,950.7817173020449,None,953.2862808030332,None,953.2862808030332,None,0.7831131639541127,955.0825023610378,None,955.0825023610378,None,5,1,0.8175970489974134,955.8579350500368,None,955.8579350500368,None,955.8579350500368,None,956.6922656670213,None,1,0.4842705700430088,956.6922656670213,None,88,957.1932805210236,None,111,A,1,2021_May_24_0932,GazeFlow,2020.1.2,59.982104939414135,
7,Block508.xls,A,,,,,,,,,,,,,,,,,,0,6,6,6,,,,,,,,,,,,,,,,,,,,,,,,,,,,,,,,,,,,,,,,,,,,111,A,1,2021_May_24_0932,GazeFlow,2020.1.2,59.982104939414135,
8,Block510.xls,A,10,1,102,42,22,incongruent,Left,Right,Left,83,80,3,blue,2,5,/home/docky/apps/exp/images/83B.jpeg,/home/docky/apps/exp/images/80Bi.jpeg,0,7,7,7,0,0,0,0,980.9414423730341,None,980.9414423730341,None,1,5.296245923964307,980.9414423730341,None,986.2656966799987,None,986.2656966799987,None,988.7890089330031,None,988.7890089330031,None,1.0664632870466448,990.5759339460055,None,990.5759339460055,None,5,1,0.8678838240448385,991.6272342110169,None,991.6272342110169,None,991.6272342110169,None,992.5115876260097,None,1,0.9519165750243701,992.5115876260097,None,90,993.4800667969976,None,111,A,1,2021_May_24_0932,GazeFlow,2020.1.2,59.982104939414135,
8,Block510.xls,A,10,2,114,54,22,incongruent,Left,Right,Left,76,69,7,yellow,2,5,/home/docky/apps/exp/images/76Yi.jpeg,/home/docky/apps/exp/images/69Y.jpeg,0,7,7,7,0,1,1,1,994.4822819120018,None,994.4822819120018,None,1,3.591411247034557,994.4822819120018,None,998.1075663200463,None,998.1075663200463,None,1000.6104171170155,None,1000.6104171170155,None,0.9167744030128233,1002.4129769830033,None,1002.4129769830033,None,5,1,1.017964127997402,1003.3165916650323,None,1003.3165916650323,None,1003.3165916650323,None,1004.3514408610063,None,1,0.4344721999950707,1004.3514408610063,None,92,1004.8025570870377,None,111,A,1,2021_May_24_0932,GazeFlow,2020.1.2,59.982104939414135,
8,Block510.xls,A,10,3,72,12,21,incongruent,Right,Left,Right,76,79,3,blue,2,6,/home/docky/apps/exp/images/76Bi.jpeg,/home/docky/apps/exp/images/79B.jpeg,0,7,7,7,0,2,2,2,1005.8043374720146,None,1005.8043374720146,None,1,3.9418441389570944,1005.8043374720146,None,1009.779329844052,None,1009.779329844052,None,1012.2846020900179,None,1012.2846020900179,None,1.067141130042728,1014.0813941810047,None,1014.0813941810047,None,6,1,0.9347336359787732,1015.1394296780345,None,1015.1394296780345,None,1015.1394296780345,None,1016.0909432980116,None,1,0.7690446600317955,1016.0909432980116,None,94,1016.8760420670151,None,111,A,1,2021_May_24_0932,GazeFlow,2020.1.2,59.982104939414135,
8,Block510.xls,A,10,4,112,52,22,incongruent,Left,Right,Left,75,69,6,yellow,2,5,/home/docky/apps/exp/images/76Y.jpeg,/home/docky/apps/exp/images/69Yi.jpeg,0,7,7,7,0,3,3,3,1017.8776479620137,None,1017.8776479620137,None,1,3.3905499490210786,1017.8776479620137,None,1021.3020043760189,None,1021.3020043760189,None,1023.8051388780004,None,1023.8051388780004,None,0.8835418050293811,1025.6084618720342,None,1025.6084618720342,None,5,1,0.9851822030032054,1026.478171815048,None,1026.478171815048,None,1026.478171815048,None,1027.4796426300309,None,1,0.5178150129504502,1027.4796426300309,None,96,1028.014414504054,None,111,A,1,2021_May_24_0932,GazeFlow,2020.1.2,59.982104939414135,
8,Block510.xls,A,10,5,17,17,11,congruent,Left,Left,Right,33,35,2,yellow,2,6,/home/docky/apps/exp/images/33Y.jpeg,/home/docky/apps/exp/images/35Yi.jpeg,0,7,7,7,0,4,4,4,1029.0161095630028,None,1029.0161095630028,None,1,3.9754618760198355,1029.0161095630028,None,1033.0255113840103,None,1033.0255113840103,None,1035.5294414560194,None,1035.5294414560194,None,0.9501724329893477,1037.3329963600263,None,1037.3329963600263,None,6,1,1.0012957759900019,1038.2677214660216,None,1038.2677214660216,None,1038.2677214660216,None,1039.2858164820354,None,1,0.584476470015943,1039.2858164820354,None,98,1039.8876254200004,None,111,A,1,2021_May_24_0932,GazeFlow,2020.1.2,59.982104939414135,
8,Block510.xls,A,10,6,31,31,12,congruent,Right,Right,Left,19,16,3,blue,2,5,/home/docky/apps/exp/images/19Bi.jpeg,/home/docky/apps/exp/images/16B.jpeg,0,7,7,7,0,5,5,5,1040.8896457170486,None,1040.8896457170486,None,1,4.041212362004444,1040.8896457170486,None,1044.9627194940113,None,1044.9627194940113,None,1047.4701859590132,None,1047.4701859590132,None,1.016990294039715,1049.2709313970408,None,1049.2709313970408,None,5,1,1.9031838600058109,1050.2744439840317,None,1050.2744439840317,None,1050.2744439840317,None,1052.1941300730105,None,1,0.5181631069863215,1052.1941300730105,None,100,1052.7287006600527,None,111,A,1,2021_May_24_0932,GazeFlow,2020.1.2,59.982104939414135,
8,Block510.xls,A,10,7,61,1,21,incongruent,Right,Left,Right,16,19,3,blue,2,6,/home/docky/apps/exp/images/16Bi.jpeg,/home/docky/apps/exp/images/19B.jpeg,0,7,7,7,0,6,6,6,1053.7307509170496,None,1053.7307509170496,None,1,4.024728031014092,1053.7307509170496,None,1057.7876067740144,None,1057.7876067740144,None,1060.294605342031,None,1060.294605342031,None,0.9831151739927009,1062.0908069650177,None,1062.0908069650177,None,6,1,1.0178934679715894,1063.0660069290316,None,1063.0660069290316,None,1063.0660069290316,None,1064.1006282130256,None,1,0.5346834869706072,1064.1006282130256,None,102,1064.6515880590305,None,111,A,1,2021_May_24_0932,GazeFlow,2020.1.2,59.982104939414135,
8,Block510.xls,A,10,8,94,34,22,incongruent,Left,Right,Left,38,35,3,blue,2,5,/home/docky/apps/exp/images/38Bi.jpeg,/home/docky/apps/exp/images/35B.jpeg,0,7,7,7,0,7,7,7,1065.6538769020117,None,1065.6538769020117,None,1,3.624326466990169,1065.6538769020117,None,1069.3118383100373,None,1069.3118383100373,None,1071.8150922240457,None,1071.8150922240457,None,0.9503882349818014,1073.6181685140473,None,1073.6181685140473,None,5,1,0.9014297489775345,1074.554850310029,None,1074.554850310029,None,1074.554850310029,None,1075.4727722350508,None,1,0.5682672680122778,1075.4727722350508,None,104,1076.0574916940532,None,111,A,1,2021_May_24_0932,GazeFlow,2020.1.2,59.982104939414135,
8,Block510.xls,A,,,,,,,,,,,,,,,,,,0,7,7,7,,,,,,,,,,,,,,,,,,,,,,,,,,,,,,,,,,,,,,,,,,,,111,A,1,2021_May_24_0932,GazeFlow,2020.1.2,59.982104939414135,
9,Block507.xls,A,7,1,110,50,22,incongruent,Left,Right,Left,66,65,1,yellow,2,5,/home/docky/apps/exp/images/66Y.jpeg,/home/docky/apps/exp/images/35Bi.jpeg,0,8,8,8,0,0,0,0,1097.8165954450378,None,1097.8165954450378,None,1,4.914017143019009,1097.8165954450378,None,1102.7545143440366,None,1102.7545143440366,None,1105.2816739230184,None,1105.2816739230184,None,0.9493857980123721,1107.0795347730163,None,1107.0795347730163,None,5,1,0.9510768280015327,1108.020130513003,None,1108.020130513003,None,1108.020130513003,None,1108.9875472650165,None,1,0.6351054519764148,1108.9875472650165,None,106,1109.639019740047,None,111,A,1,2021_May_24_0932,GazeFlow,2020.1.2,59.982104939414135,
9,Block507.xls,A,7,2,90,30,22,incongruent,Right,Left,Right,16,19,3,blue,2,6,/home/docky/apps/exp/images/16Bi.jpeg,/home/docky/apps/exp/images/19B.jpeg,0,8,8,8,0,1,1,1,1110.6415250880527,None,1110.6415250880527,None,1,3.4074603299959563,1110.6415250880527,None,1114.082200753037,None,1114.082200753037,None,1116.5849241540418,None,1116.5849241540418,None,0.8998996560112573,1118.3885199940414,None,1118.3885199940414,None,6,1,0.9346928620361723,1119.2751085840282,None,1119.2751085840282,None,1119.2751085840282,None,1120.226405292051,None,1,0.6686639470281079,1120.226405292051,None,108,1120.911472826032,None,111,A,1,2021_May_24_0932,GazeFlow,2020.1.2,59.982104939414135,
9,Block507.xls,A,7,3,16,16,11,congruent,Left,Left,Right,33,35,2,yellow,2,6,/home/docky/apps/exp/images/33Yi.jpeg,/home/docky/apps/exp/images/35Y.jpeg,0,8,8,8,0,2,2,2,1121.9129026840092,None,1121.9129026840092,None,1,3.290470984997228,1121.9129026840092,None,1125.221548483998,None,1125.221548483998,None,1127.7399025150225,None,1127.7399025150225,None,0.9164167399867438,1129.543668184022,None,1129.543668184022,None,6,1,1.051558235019911,1130.4467386880424,None,1130.4467386880424,None,1130.4467386880424,None,1131.51491846703,None,1,0.43507053499342874,1131.51491846703,None,110,1131.9662191200186,None,111,A,1,2021_May_24_0932,GazeFlow,2020.1.2,59.982104939414135,
9,Block507.xls,A,7,4,117,57,22,incongruent,Left,Right,Left,77,72,5,yellow,2,5,/home/docky/apps/exp/images/77Y.jpeg,/home/docky/apps/exp/images/72Yi.jpeg,0,8,8,8,0,3,3,3,1132.967662296025,None,1132.967662296025,None,1,4.042087554989848,1132.967662296025,None,1137.043493388046,None,1137.043493388046,None,1139.5477263890207,None,1139.5477263890207,None,0.9837628530221991,1141.3501688370015,None,1141.3501688370015,None,5,1,1.0182154779904522,1142.3196416860446,None,1142.3196416860446,None,1142.3196416860446,None,1143.3545333240181,None,1,0.40150633500888944,1143.3545333240181,None,112,1143.7725243970053,None,111,A,1,2021_May_24_0932,GazeFlow,2020.1.2,59.982104939414135,
9,Block507.xls,A,7,5,53,53,12,congruent,Right,Right,Left,75,69,6,yellow,2,5,/home/docky/apps/exp/images/76Yi.jpeg,/home/docky/apps/exp/images/69Y.jpeg,0,8,8,8,0,4,4,4,1144.7739344290458,None,1144.7739344290458,None,1,3.6412438220577314,1144.7739344290458,None,1148.4489528650302,None,1148.4489528650302,None,1150.9537160909967,None,1150.9537160909967,None,0.816603200044483,1152.7551210790407,None,1152.7551210790407,None,5,1,1.0179422280052677,1153.5584190040245,None,1153.5584190040245,None,1153.5584190040245,None,1154.5932600250235,None,1,0.5007993510225788,1154.5932600250235,None,114,1155.1108378680074,None,111,A,1,2021_May_24_0932,GazeFlow,2020.1.2,59.982104939414135,
9,Block507.xls,A,7,6,96,36,22,incongruent,Left,Right,Left,66,65,1,blue,2,5,/home/docky/apps/exp/images/66Bi.jpeg,/home/docky/apps/exp/images/35Y.jpeg,0,8,8,8,0,5,5,5,1156.1127689230489,None,1156.1127689230489,None,1,4.00885812996421,1156.1127689230489,None,1160.1556033300003,None,1160.1556033300003,None,1162.658509150031,None,1162.658509150031,None,1.0335246850154363,1164.4619183680043,None,1164.4619183680043,None,5,1,0.9345373579999432,1165.4815492290072,None,1165.4815492290072,None,1165.4815492290072,None,1166.4329728450393,None,1,0.41800444695400074,1166.4329728450393,None,116,1166.8673505440238,None,111,A,1,2021_May_24_0932,GazeFlow,2020.1.2,59.982104939414135,
9,Block507.xls,A,7,7,58,58,12,congruent,Right,Right,Left,77,72,5,yellow,2,5,/home/docky/apps/exp/images/77Yi.jpeg,/home/docky/apps/exp/images/72Y.jpeg,0,8,8,8,0,6,6,6,1167.8689120190102,None,1167.8689120190102,None,1,3.624160015024245,1167.8689120190102,None,1171.5269529980142,None,1171.5269529980142,None,1174.029853790009,None,1174.029853790009,None,0.9835057249874808,1175.8325560180238,None,1175.8325560180238,None,5,1,0.9679854660062119,1176.8034624430002,None,1176.8034624430002,None,1176.8034624430002,None,1177.7881519549992,None,1,0.46757957799127325,1177.7881519549992,None,118,1178.2724336430547,None,111,A,1,2021_May_24_0932,GazeFlow,2020.1.2,59.982104939414135,
9,Block507.xls,A,7,8,41,41,12,congruent,Right,Right,Left,79,76,3,blue,2,5,/home/docky/apps/exp/images/79Bi.jpeg,/home/docky/apps/exp/images/76B.jpeg,0,8,8,8,0,7,7,7,1179.2744762410293,None,1179.2744762410293,None,1,4.576529245998245,1179.2744762410293,None,1183.8844970520004,None,1183.8844970520004,None,1186.387125436042,None,1186.387125436042,None,0.9502661600126885,1188.1849648760399,None,1188.1849648760399,None,5,1,0.9847030619857833,1189.1274875990348,None,1189.1274875990348,None,1189.1274875990348,None,1190.128450977034,None,1,0.4510947770322673,1190.128450977034,None,120,1190.596112357045,None,111,A,1,2021_May_24_0932,GazeFlow,2020.1.2,59.982104939414135,
9,Block507.xls,A,,,,,,,,,,,,,,,,,,0,8,8,8,,,,,,,,,,,,,,,,,,,,,,,,,,,,,,,,,,,,,,,,,,,,111,A,1,2021_May_24_0932,GazeFlow,2020.1.2,59.982104939414135,
10,Block515.xls,A,15,1,107,47,22,incongruent,Left,Right,Left,35,33,2,yellow,2,5,/home/docky/apps/exp/images/35Yi.jpeg,/home/docky/apps/exp/images/33Y.jpeg,0,9,9,9,0,0,0,0,1212.7251162390457,None,1212.7251162390457,None,1,4.832595857034903,1212.7251162390457,None,1217.584929856006,None,1217.584929856006,None,1220.1047302299994,None,1220.1047302299994,None,0.9829910959815606,1221.9081299430109,None,1221.9081299430109,None,5,1,0.9847754160291515,1222.8762998550083,None,1222.8762998550083,None,1222.8762998550083,None,1223.877533779014,None,1,0.5176975000067614,1223.877533779014,None,122,1224.412094496016,None,111,A,1,2021_May_24_0932,GazeFlow,2020.1.2,59.982104939414135,
10,Block515.xls,A,15,2,55,55,12,congruent,Right,Right,Left,76,69,7,yellow,2,5,/home/docky/apps/exp/images/76Yi.jpeg,/home/docky/apps/exp/images/69Y.jpeg,0,9,9,9,0,1,1,1,1225.4141174899996,None,1225.4141174899996,None,1,3.574626907997299,1225.4141174899996,None,1229.0219011580339,None,1229.0219011580339,None,1231.5251499930164,None,1231.5251499930164,None,1.1002863679896109,1233.3286775760353,None,1233.3286775760353,None,5,1,0.9345931069692597,1234.4152965060202,None,1234.4152965060202,None,1234.4152965060202,None,1235.3666026070132,None,1,0.5180511579965241,1235.3666026070132,None,124,1235.900919865002,None,111,A,1,2021_May_24_0932,GazeFlow,2020.1.2,59.982104939414135,
10,Block515.xls,A,15,3,75,15,21,incongruent,Right,Left,Right,33,35,2,yellow,2,6,/home/docky/apps/exp/images/33Yi.jpeg,/home/docky/apps/exp/images/35Y.jpeg,0,9,9,9,0,2,2,2,1236.9033698130515,None,1236.9033698130515,None,1,4.258502029988449,1236.9033698130515,None,1241.195675607014,None,1241.195675607014,None,1243.6987700070022,None,1243.6987700070022,None,0.9164613329921849,1245.5013713420485,None,1245.5013713420485,None,6,1,0.9848511960008182,1246.4052346710232,None,1246.4052346710232,None,1246.4052346710232,None,1247.4065986430505,None,1,0.5683812640490942,1247.4065986430505,None,126,1247.9914814020158,None,111,A,1,2021_May_24_0932,GazeFlow,2020.1.2,59.982104939414135,
10,Block515.xls,A,15,4,62,2,21,incongruent,Right,Left,Right,35,38,3,blue,2,6,/home/docky/apps/exp/images/35Bi.jpeg,/home/docky/apps/exp/images/38B.jpeg,0,9,9,9,0,3,3,3,1248.9930267970194,None,1248.9930267970194,None,1,4.793784431007225,1248.9930267970194,None,1253.8203670820221,None,1253.8203670820221,None,1256.3237001910456,None,1256.3237001910456,None,0.9667555019841529,1258.1207693100441,None,1258.1207693100441,None,5,0,0.9513712720363401,1259.0799880570266,None,1259.0799880570266,None,1259.0799880570266,None,1260.0480342740193,None,1,0.5348884700215422,1260.0480342740193,None,124,1260.5993576930487,None,111,A,1,2021_May_24_0932,GazeFlow,2020.1.2,59.982104939414135,
10,Block515.xls,A,15,5,100,40,22,incongruent,Left,Right,Left,79,76,3,blue,2,5,/home/docky/apps/exp/images/79Bi.jpeg,/home/docky/apps/exp/images/76B.jpeg,0,9,9,9,0,4,4,4,1261.6007965160534,None,1261.6007965160534,None,1,3.691868952999357,1261.6007965160534,None,1265.3259029570036,None,1265.3259029570036,None,1267.8306080850307,None,1267.8306080850307,None,0.9669678129721433,1269.6327165630064,None,1269.6327165630064,None,5,1,0.9346909110317938,1270.5855511200498,None,1270.5855511200498,None,1270.5855511200498,None,1271.5367610600078,None,1,0.5013452779967338,1271.5367610600078,None,126,1272.054859995027,None,111,A,1,2021_May_24_0932,GazeFlow,2020.1.2,59.982104939414135,
10,Block515.xls,A,15,6,108,48,22,incongruent,Left,Right,Left,39,38,1,yellow,2,5,/home/docky/apps/exp/images/39Y.jpeg,/home/docky/apps/exp/images/38Yi.jpeg,0,9,9,9,0,5,5,5,1273.0565454470343,None,1273.0565454470343,None,1,3.4740104289958254,1273.0565454470343,None,1276.5644242760027,None,1276.5644242760027,None,1279.0689505440532,None,1279.0689505440532,None,1.4678244980168529,1280.8710437940317,None,1280.8710437940317,None,5,1,0.9183991260360926,1282.3249870390282,None,1282.3249870390282,None,1282.3249870390282,None,1283.2600368930143,None,1,0.5347086359979585,1283.2600368930143,None,128,1283.8112823100528,None,111,A,1,2021_May_24_0932,GazeFlow,2020.1.2,59.982104939414135,
10,Block515.xls,A,15,7,59,59,12,congruent,Right,Right,Left,80,79,1,yellow,2,5,/home/docky/apps/exp/images/80Y.jpeg,/home/docky/apps/exp/images/79Yi.jpeg,0,9,9,9,0,6,6,6,1284.8128850760404,None,1284.8128850760404,None,1,3.090214239025954,1284.8128850760404,None,1287.936419058009,None,1287.936419058009,None,1290.4412615380134,None,1290.4412615380134,None,0.9500123260077089,1292.24133682705,None,1292.24133682705,None,5,1,0.8349063749774359,1293.1794610560173,None,1293.1794610560173,None,1293.1794610560173,None,1294.0305077170487,None,1,0.45081688498612493,1294.0305077170487,None,130,1294.4981409920147,None,111,A,1,2021_May_24_0932,GazeFlow,2020.1.2,59.982104939414135,
10,Block515.xls,A,15,8,8,8,11,congruent,Left,Left,Right,38,39,1,blue,2,6,/home/docky/apps/exp/images/38B.jpeg,/home/docky/apps/exp/images/39Bi.jpeg,0,9,9,9,0,7,7,7,1295.4999652090482,None,1295.4999652090482,None,1,3.156941397988703,1295.4999652090482,None,1298.691162807052,None,1298.691162807052,None,1301.195143354009,None,1301.195143354009,None,1.1335536839906126,1302.9988740810077,None,1302.9988740810077,None,5,0,0.9844847859931178,1304.1175146980095,None,1304.1175146980095,None,1304.1175146980095,None,1305.1186034400016,None,1,0.4351837779977359,1305.1186034400016,None,128,1305.5699505110388,None,111,A,1,2021_May_24_0932,GazeFlow,2020.1.2,59.982104939414135,
10,Block515.xls,A,,,,,,,,,,,,,,,,,,0,9,9,9,,,,,,,,,,,,,,,,,,,,,,,,,,,,,,,,,,,,,,,,,,,,111,A,1,2021_May_24_0932,GazeFlow,2020.1.2,59.982104939414135,
11,Block512.xls,A,12,1,30,30,11,congruent,Left,Left,Right,79,82,3,yellow,2,6,/home/docky/apps/exp/images/79Yi.jpeg,/home/docky/apps/exp/images/80Y.jpeg,0,10,10,10,0,0,0,0,1325.8274090210325,None,1325.8274090210325,None,1,4.897531351016369,1325.8274090210325,None,1330.756232535001,None,1330.756232535001,None,1333.2746057980112,None,1333.2746057980112,None,0.94940125499852,1335.0719648420345,None,1335.0719648420345,None,6,1,0.9514377570012584,1336.0127160260454,None,1336.0127160260454,None,1336.0127160260454,None,1336.9805381420301,None,1,0.4179469770169817,1336.9805381420301,None,130,1337.4146442160127,None,111,A,1,2021_May_24_0932,GazeFlow,2020.1.2,59.982104939414135,
11,Block512.xls,A,12,2,115,55,22,incongruent,Left,Right,Left,76,69,7,yellow,2,5,/home/docky/apps/exp/images/76Yi.jpeg,/home/docky/apps/exp/images/69Y.jpeg,0,10,10,10,0,1,1,1,1338.416467844043,None,1338.416467844043,None,1,3.324853105994407,1338.416467844043,None,1341.7786141370307,None,1341.7786141370307,None,1344.2776352400542,None,1344.2776352400542,None,1.0001746730413288,1346.0755594040384,None,1346.0755594040384,None,5,1,0.8514167359680869,1347.0673298300244,None,1347.0673298300244,None,1347.0673298300244,None,1347.9353924550232,None,1,0.5014957659877837,1347.9353924550232,None,132,1348.4532272500219,None,111,A,1,2021_May_24_0932,GazeFlow,2020.1.2,59.982104939414135,
11,Block512.xls,A,12,3,66,6,21,incongruent,Right,Left,Right,38,39,1,blue,2,6,/home/docky/apps/exp/images/38B.jpeg,/home/docky/apps/exp/images/39Bi.jpeg,0,10,10,10,0,2,2,2,1349.454737289052,None,1349.454737289052,None,1,3.0571372359991074,1349.454737289052,None,1352.5452336570015,None,1352.5452336570015,None,1355.050250801025,None,1355.050250801025,None,0.9498222199617885,1356.852070522029,None,1356.852070522029,None,6,1,0.8846011359710246,1357.7882105080062,None,1357.7882105080062,None,1357.7882105080062,None,1358.689425871009,None,1,0.43457417300669476,1358.689425871009,None,134,1359.1407503420487,None,111,A,1,2021_May_24_0932,GazeFlow,2020.1.2,59.982104939414135,
11,Block512.xls,A,12,4,35,35,12,congruent,Right,Right,Left,66,65,1,blue,2,5,/home/docky/apps/exp/images/66B.jpeg,/home/docky/apps/exp/images/35Yi.jpeg,0,10,10,10,0,3,3,3,1360.1422952860012,None,1360.1422952860012,None,1,3.7411018279963173,1360.1422952860012,None,1363.9155033990392,None,1363.9155033990392,None,1366.4230656550499,None,1366.4230656550499,None,0.9330144280102104,1368.2182943770313,None,1368.2182943770313,None,5,1,0.9011718379915692,1369.1435055070324,None,1369.1435055070324,None,1369.1435055070324,None,1370.0616119000479,None,1,0.5015605349908583,1370.0616119000479,None,136,1370.5796208030079,None,111,A,1,2021_May_24_0932,GazeFlow,2020.1.2,59.982104939414135,
11,Block512.xls,A,12,5,40,40,12,congruent,Right,Right,Left,79,76,3,blue,2,5,/home/docky/apps/exp/images/79Bi.jpeg,/home/docky/apps/exp/images/76B.jpeg,0,10,10,10,0,4,4,4,1371.5811856220243,None,1371.5811856220243,None,1,3.239984354004264,1371.5811856220243,None,1374.8551404930186,None,1374.8551404930186,None,1377.3586642310256,None,1377.3586642310256,None,0.8666715470026247,1379.1568977280403,None,1379.1568977280403,None,5,1,0.9345245810109191,1380.0147358330432,None,1380.0147358330432,None,1380.0147358330432,None,1380.9659767540288,None,1,0.43463418999454007,1380.9659767540288,None,138,1381.4172933940426,None,111,A,1,2021_May_24_0932,GazeFlow,2020.1.2,59.982104939414135,
11,Block512.xls,A,12,6,64,4,21,incongruent,Right,Left,Right,65,66,1,blue,2,6,/home/docky/apps/exp/images/35Yi.jpeg,/home/docky/apps/exp/images/66B.jpeg,0,10,10,10,0,5,5,5,1382.4189000159968,None,1382.4189000159968,None,1,3.540783600998111,1382.4189000159968,None,1385.9937231360236,None,1385.9937231360236,None,1388.4982903040363,None,1388.4982903040363,None,0.9833251480013132,1390.2996207350516,None,1390.2996207350516,None,6,1,0.8846446289680898,1391.2697751880041,None,1391.2697751880041,None,1391.2697751880041,None,1392.1710464010248,None,1,0.38465730898315087,1392.1710464010248,None,140,1392.5723754850333,None,111,A,1,2021_May_24_0932,GazeFlow,2020.1.2,59.982104939414135,
11,Block512.xls,A,12,7,12,12,11,congruent,Left,Left,Right,76,79,3,blue,2,6,/home/docky/apps/exp/images/76B.jpeg,/home/docky/apps/exp/images/79Bi.jpeg,0,10,10,10,0,6,6,6,1393.5738660970237,None,1393.5738660970237,None,1,3.3739740509772673,1393.5738660970237,None,1396.9813265920384,None,1396.9813265920384,None,1399.4863739740103,None,1399.4863739740103,None,1.0168087390484288,1401.2900656240527,None,1401.2900656240527,None,6,1,0.8343138379859738,1402.2915014570463,None,1402.2915014570463,None,1402.2915014570463,None,1403.1423185070162,None,1,0.3843189590261318,1403.1423185070162,None,142,1403.5431260900223,None,111,A,1,2021_May_24_0932,GazeFlow,2020.1.2,59.982104939414135,
11,Block512.xls,A,12,8,49,49,12,congruent,Right,Right,Left,39,38,1,yellow,2,5,/home/docky/apps/exp/images/39Y.jpeg,/home/docky/apps/exp/images/38Yi.jpeg,0,10,10,10,0,7,7,7,1404.545372170047,None,1404.545372170047,None,1,3.7248034230433404,1404.545372170047,None,1408.3035606170306,None,1408.3035606170306,None,1410.8084966190509,None,1410.8084966190509,None,0.9335913709946908,1412.6094343400327,None,1412.6094343400327,None,5,1,0.9178096859832294,1413.5298296560068,None,1413.5298296560068,None,1413.5298296560068,None,1414.4642388170469,None,1,0.8357497580000199,1414.4642388170469,None,144,1415.316431439016,None,111,A,1,2021_May_24_0932,GazeFlow,2020.1.2,59.982104939414135,
11,Block512.xls,A,,,,,,,,,,,,,,,,,,0,10,10,10,,,,,,,,,,,,,,,,,,,,,,,,,,,,,,,,,,,,,,,,,,,,111,A,1,2021_May_24_0932,GazeFlow,2020.1.2,59.982104939414135,
12,Block503.xls,A,3,1,22,22,11,congruent,Left,Left,Right,62,65,3,yellow,2,6,/home/docky/apps/exp/images/38Bi.jpeg,/home/docky/apps/exp/images/35B.jpeg,0,11,11,11,0,0,0,0,1436.124920863018,None,1436.124920863018,None,1,5.064639167045243,1436.124920863018,None,1441.2178220910137,None,1441.2178220910137,None,1443.739706007007,None,1443.739706007007,None,0.9660118549945764,1445.540972553019,None,1445.540972553019,None,6,1,0.9011872140108608,1446.493976257043,None,1446.493976257043,None,1446.493976257043,None,1447.4116423230153,None,1,0.38416331104235724,1447.4116423230153,None,146,1447.8123623110005,None,111,A,1,2021_May_24_0932,GazeFlow,2020.1.2,59.982104939414135,
12,Block503.xls,A,3,2,65,5,21,incongruent,Right,Left,Right,65,66,1,blue,2,6,/home/docky/apps/exp/images/35Y.jpeg,/home/docky/apps/exp/images/66Bi.jpeg,0,11,11,11,0,1,1,1,1448.8144300400163,None,1448.8144300400163,None,1,3.691112697008066,1448.8144300400163,None,1452.5410975880222,None,1452.5410975880222,None,1455.0441442770534,None,1455.0441442770534,None,0.6326404709834605,1456.8457975890487,None,1456.8457975890487,None,5,0,1.0679104389855638,1457.4653295170283,None,1457.4653295170283,None,1457.4653295170283,None,1458.5498952130438,None,1,0.518016321992036,1458.5498952130438,None,144,1459.0853287120117,None,111,A,1,2021_May_24_0932,GazeFlow,2020.1.2,59.982104939414135,
12,Block503.xls,A,3,3,76,16,21,incongruent,Right,Left,Right,33,35,2,yellow,2,6,/home/docky/apps/exp/images/33Y.jpeg,/home/docky/apps/exp/images/35Yi.jpeg,0,11,11,11,0,2,2,2,1460.0864279750385,None,1460.0864279750385,None,1,2.8228635439882055,1460.0864279750385,None,1462.9412523480132,None,1462.9412523480132,None,1465.448038706032,None,1465.448038706032,None,0.883092334959656,1467.2472504840116,None,1467.2472504840116,None,6,1,0.9844663980184123,1468.1191876780358,None,1468.1191876780358,None,1468.1191876780358,None,1469.1206493590144,None,1,0.3840582119883038,1469.1206493590144,None,146,1469.5211570460233,None,111,A,1,2021_May_24_0932,GazeFlow,2020.1.2,59.982104939414135,
12,Block503.xls,A,3,4,29,29,11,congruent,Left,Left,Right,79,82,3,yellow,2,6,/home/docky/apps/exp/images/79Y.jpeg,/home/docky/apps/exp/images/80Yi.jpeg,0,11,11,11,0,3,3,3,1470.52345758304,None,1470.52345758304,None,1,3.2569023920223117,1470.52345758304,None,1473.8140836270177,None,1473.8140836270177,None,1476.317325978016,None,1476.317325978016,None,0.8832021940033883,1478.1150825470104,None,1478.1150825470104,None,5,0,0.884605256957002,1478.9903155920329,None,1478.9903155920329,None,1478.9903155920329,None,1479.8911982640275,None,1,0.4344959409791045,1479.8911982640275,None,144,1480.3423508210108,None,111,A,1,2021_May_24_0932,GazeFlow,2020.1.2,59.982104939414135,
12,Block503.xls,A,3,5,103,43,22,incongruent,Left,Right,Left,39,38,1,blue,2,5,/home/docky/apps/exp/images/39Bi.jpeg,/home/docky/apps/exp/images/38B.jpeg,0,11,11,11,0,4,4,4,1481.344082893047,None,1481.344082893047,None,1,2.839768302976154,1481.344082893047,None,1484.217350245046,None,1484.217350245046,None,1486.7203925690264,None,1486.7203925690264,None,1.0837860379833728,1488.524397324014,None,1488.524397324014,None,6,0,1.0347564910189249,1489.594129753008,None,1489.594129753008,None,1489.594129753008,None,1490.6455999660539,None,1,0.41828143800375983,1490.6455999660539,None,142,1491.0800210720045,None,111,A,1,2021_May_24_0932,GazeFlow,2020.1.2,59.982104939414135,
12,Block503.xls,A,3,6,47,47,12,congruent,Right,Right,Left,35,33,2,yellow,2,5,/home/docky/apps/exp/images/35Yi.jpeg,/home/docky/apps/exp/images/33Y.jpeg,0,11,11,11,0,5,5,5,1492.0818798789987,None,1492.0818798789987,None,1,3.3069733710144646,1492.0818798789987,None,1495.422528744035,None,1495.422528744035,None,1497.9255191940465,None,1497.9255191940465,None,0.7497322239796631,1499.7296489690198,None,1499.7296489690198,None,5,1,0.9014336529653519,1500.465262725018,None,1500.465262725018,None,1500.465262725018,None,1501.3828563720454,None,1,0.46795126399956644,1501.3828563720454,None,144,1501.8674847820075,None,111,A,1,2021_May_24_0932,GazeFlow,2020.1.2,59.982104939414135,
12,Block503.xls,A,3,7,20,20,11,congruent,Left,Left,Right,65,66,1,yellow,2,6,/home/docky/apps/exp/images/35Bi.jpeg,/home/docky/apps/exp/images/66Y.jpeg,0,11,11,11,0,6,6,6,1502.8694777030032,None,1502.8694777030032,None,1,3.4577389489859343,1502.8694777030032,None,1506.3605142110027,None,1506.3605142110027,None,1508.8654674340505,None,1508.8654674340505,None,0.816225711023435,1510.668894188013,None,1510.668894188013,None,5,0,0.8850488080061041,1511.4697413490503,None,1511.4697413490503,None,1511.4697413490503,None,1512.3711612210027,None,1,0.45095312100602314,1512.3711612210027,None,142,1512.838651334052,None,111,A,1,2021_May_24_0932,GazeFlow,2020.1.2,59.982104939414135,
12,Block503.xls,A,3,8,27,27,11,congruent,Left,Left,Right,72,77,5,yellow,2,6,/home/docky/apps/exp/images/72Yi.jpeg,/home/docky/apps/exp/images/77Y.jpeg,0,11,11,11,0,7,7,7,1513.8407569900155,None,1513.8407569900155,None,1,4.275697862962261,1513.8407569900155,None,1518.1510097460123,None,1518.1510097460123,None,1520.6548911770224,None,1520.6548911770224,None,1.0504090689937584,1522.4579753639991,None,1522.4579753639991,None,6,1,0.9012866010307334,1523.4934700930025,None,1523.4934700930025,None,1523.4934700930025,None,1524.4115360820433,None,1,0.4512391239986755,1524.4115360820433,None,144,1524.8792066129972,None,111,A,1,2021_May_24_0932,GazeFlow,2020.1.2,59.982104939414135,
12,Block503.xls,A,,,,,,,,,,,,,,,,,,0,11,11,11,,,,,,,,,,,,,,,,,,,,,,,,,,,,,,,,,,,,,,,,,,,,111,A,1,2021_May_24_0932,GazeFlow,2020.1.2,59.982104939414135,
13,Block501.xls,A,1,1,54,54,12,congruent,Right,Right,Left,75,69,6,yellow,2,5,/home/docky/apps/exp/images/76Y.jpeg,/home/docky/apps/exp/images/69Yi.jpeg,0,12,12,12,0,0,0,0,1548.5100618250435,None,1548.5100618250435,None,1,4.483553279016633,1548.5100618250435,None,1553.0163956470205,None,1553.0163956470205,None,1555.5396760030417,None,1555.5396760030417,None,0.9660378909902647,1557.342972426035,None,1557.342972426035,None,5,1,1.0850542080006562,1558.2942828670493,None,1558.2942828670493,None,1558.2942828670493,None,1559.3960586740286,None,1,0.48496448196237907,1559.3960586740286,None,146,1559.896767697006,None,111,A,1,2021_May_24_0932,GazeFlow,2020.1.2,59.982104939414135,
13,Block501.xls,A,1,2,70,10,21,incongruent,Right,Left,Right,73,76,3,blue,2,6,/home/docky/apps/exp/images/73Bi.jpeg,/home/docky/apps/exp/images/76B.jpeg,0,12,12,12,0,1,1,1,1560.899031597015,None,1560.899031597015,None,1,3.857992050005123,1560.899031597015,None,1564.7907911020448,None,1564.7907911020448,None,1567.2940132259973,None,1567.2940132259973,None,0.9836635200190358,1569.0926807200303,None,1569.0926807200303,None,6,1,0.9679422359913588,1570.0671753060305,None,1570.0671753060305,None,1570.0671753060305,None,1571.0517190450337,None,1,0.3684649500064552,1571.0517190450337,None,148,1571.4362709440175,None,111,A,1,2021_May_24_0932,GazeFlow,2020.1.2,59.982104939414135,
13,Block501.xls,A,1,3,84,24,21,incongruent,Right,Left,Right,69,76,7,yellow,2,6,/home/docky/apps/exp/images/69Yi.jpeg,/home/docky/apps/exp/images/76Y.jpeg,0,12,12,12,0,2,2,2,1572.4380943040014,None,1572.4380943040014,None,1,3.306830838031601,1572.4380943040014,None,1575.7787804990076,None,1575.7787804990076,None,1578.28164504905,None,1578.28164504905,None,0.8999088740092702,1580.080665282032,None,1580.080665282032,None,6,1,0.9515653099515475,1580.971721657028,None,1580.971721657028,None,1580.971721657028,None,1581.939803159039,None,1,0.4013006589957513,1581.939803159039,None,150,1582.3577749950346,None,111,A,1,2021_May_24_0932,GazeFlow,2020.1.2,59.982104939414135,
13,Block501.xls,A,1,4,26,26,11,congruent,Left,Left,Right,69,75,6,yellow,2,6,/home/docky/apps/exp/images/69Y.jpeg,/home/docky/apps/exp/images/76Yi.jpeg,0,12,12,12,0,3,3,3,1583.3590868600295,None,1583.3590868600295,None,1,3.6076624739798717,1583.3590868600295,None,1587.0003478630097,None,1587.0003478630097,None,1589.505168194999,None,1589.505168194999,None,1.1504849379998632,1591.3089127940475,None,1591.3089127940475,None,6,1,0.9347249870188534,1592.443947857013,None,1592.443947857013,None,1592.443947857013,None,1593.3951542210416,None,1,0.41818102000979707,1593.3951542210416,None,152,1593.829727021046,None,111,A,1,2021_May_24_0932,GazeFlow,2020.1.2,59.982104939414135,
13,Block501.xls,A,1,5,97,37,22,incongruent,Left,Right,Left,79,73,6,blue,2,5,/home/docky/apps/exp/images/79B.jpeg,/home/docky/apps/exp/images/73Bi.jpeg,0,12,12,12,0,4,4,4,1594.8313646360184,None,1594.8313646360184,None,1,3.2407063860446215,1594.8313646360184,None,1598.105362317001,None,1598.105362317001,None,1600.6086861010408,None,1600.6086861010408,None,1.100158209039364,1602.4122839570045,None,1602.4122839570045,None,5,1,0.834543579025194,1603.4987157650176,None,1603.4987157650176,None,1603.4987157650176,None,1604.3498426100123,None,1,0.43424306000815704,1604.3498426100123,None,154,1604.8005863320432,None,111,A,1,2021_May_24_0932,GazeFlow,2020.1.2,59.982104939414135,
13,Block501.xls,A,1,6,98,38,22,incongruent,Left,Right,Left,79,73,6,blue,2,5,/home/docky/apps/exp/images/79B.jpeg,/home/docky/apps/exp/images/73Bi.jpeg,0,12,12,12,0,5,5,5,1605.8027104689972,None,1605.8027104689972,None,1,2.7729797959909774,1605.8027104689972,None,1608.6092377730529,None,1608.6092377730529,None,1611.112304614042,None,1611.112304614042,None,0.9003235789714381,1612.9155545020476,None,1612.9155545020476,None,5,1,0.8014883809955791,1613.8020873510395,None,1613.8020873510395,None,1613.8020873510395,None,1614.61965603102,None,1,0.43435858603334054,1614.61965603102,None,156,1615.0706293190015,None,111,A,1,2021_May_24_0932,GazeFlow,2020.1.2,59.982104939414135,
13,Block501.xls,A,1,7,77,17,21,incongruent,Right,Left,Right,65,66,1,yellow,2,6,/home/docky/apps/exp/images/35B.jpeg,/home/docky/apps/exp/images/66Yi.jpeg,0,12,12,12,0,6,6,6,1616.0724667460308,None,1616.0724667460308,None,1,3.357263209996745,1616.0724667460308,None,1619.463624526048,None,1619.463624526048,None,1621.9686047190335,None,1621.9686047190335,None,2.3534223859896883,1623.770015038026,None,1623.770015038026,None,5,0,1.0172808350180276,1626.1098214640515,None,1626.1098214640515,None,1626.1098214640515,None,1627.1439250000403,None,1,0.6016101809800602,1627.1439250000403,None,154,1627.7619324480183,None,111,A,1,2021_May_24_0932,GazeFlow,2020.1.2,59.982104939414135,
13,Block501.xls,A,1,8,50,50,12,congruent,Right,Right,Left,66,65,1,yellow,2,5,/home/docky/apps/exp/images/66Y.jpeg,/home/docky/apps/exp/images/35Bi.jpeg,0,12,12,12,0,7,7,7,1628.764301767049,None,1628.764301767049,None,1,2.989316782040987,1628.764301767049,None,1631.7857729190146,None,1631.7857729190146,None,1634.2922295900062,None,1634.2922295900062,None,0.8325995320337825,1636.0897062260192,None,1636.0897062260192,None,6,0,0.8340902760392055,1636.9136169030098,None,1636.9136169030098,None,1636.9136169030098,None,1637.7643076170352,None,1,0.40138413797831163,1637.7643076170352,None,152,1638.1823144810041,None,111,A,1,2021_May_24_0932,GazeFlow,2020.1.2,59.982104939414135,
13,Block501.xls,A,,,,,,,,,,,,,,,,,,0,12,12,12,,,,,,,,,,,,,,,,,,,,,,,,,,,,,,,,,,,,,,,,,,,,111,A,1,2021_May_24_0932,GazeFlow,2020.1.2,59.982104939414135,
14,Block513.xls,A,13,1,32,32,12,congruent,Right,Right,Left,19,16,3,blue,2,5,/home/docky/apps/exp/images/19B.jpeg,/home/docky/apps/exp/images/16Bi.jpeg,0,13,13,13,0,0,0,0,1658.4738501090324,None,1658.4738501090324,None,1,4.5474191139801405,1658.4738501090324,None,1663.0488529750146,None,1663.0488529750146,None,1665.5693900230108,None,1665.5693900230108,None,0.7822516360320151,1667.3733871020377,None,1667.3733871020377,None,5,1,0.8844980529975146,1668.1409149400424,None,1668.1409149400424,None,1668.1409149400424,None,1669.0422818030347,None,1,1.2525146310217679,1669.0422818030347,None,154,1670.311147896049,None,111,A,1,2021_May_24_0932,GazeFlow,2020.1.2,59.982104939414135,
14,Block513.xls,A,13,2,81,21,21,incongruent,Right,Left,Right,38,39,1,yellow,2,6,/home/docky/apps/exp/images/38Yi.jpeg,/home/docky/apps/exp/images/39Y.jpeg,0,13,13,13,0,1,1,1,1671.3132430420374,None,1671.3132430420374,None,1,3.8080761099699885,1671.3132430420374,None,1675.1549657210126,None,1675.1549657210126,None,1677.6596682660165,None,1677.6596682660165,None,1.0669251729850657,1679.4617948770174,None,1679.4617948770174,None,6,1,0.9016835600486957,1680.514853376022,None,1680.514853376022,None,1680.514853376022,None,1681.432757824019,None,1,0.40077620500233024,1681.432757824019,None,156,1681.850193172053,None,111,A,1,2021_May_24_0932,GazeFlow,2020.1.2,59.982104939414135,
14,Block513.xls,A,13,3,92,32,22,incongruent,Left,Right,Left,19,16,3,blue,2,5,/home/docky/apps/exp/images/19B.jpeg,/home/docky/apps/exp/images/16Bi.jpeg,0,13,13,13,0,2,2,2,1682.852211207035,None,1682.852211207035,None,1,3.87551003403496,1682.852211207035,None,1686.7610168060055,None,1686.7610168060055,None,1689.2642266780022,None,1689.2642266780022,None,1.0167686030035838,1691.0626270510256,None,1691.0626270510256,None,5,1,0.8511549629620276,1692.0706251790398,None,1692.0706251790398,None,1692.0706251790398,None,1692.9385527140112,None,1,0.4345249730395153,1692.9385527140112,None,158,1693.3892751130043,None,111,A,1,2021_May_24_0932,GazeFlow,2020.1.2,59.982104939414135,
14,Block513.xls,A,13,4,6,6,11,congruent,Left,Left,Right,65,66,1,blue,2,6,/home/docky/apps/exp/images/35Y.jpeg,/home/docky/apps/exp/images/66Bi.jpeg,0,13,13,13,0,3,3,3,1694.391102174006,None,1694.391102174006,None,1,3.307345930021256,1694.391102174006,None,1697.7318841850501,None,1697.7318841850501,None,1700.2376482710242,None,1700.2376482710242,None,0.98315055295825,1702.0341678990517,None,1702.0341678990517,None,6,1,0.8343676190124825,1703.0084376040031,None,1703.0084376040031,None,1703.0084376040031,None,1703.8594573430018,None,1,0.4010607969830744,1703.8594573430018,None,160,1704.277078719053,None,111,A,1,2021_May_24_0932,GazeFlow,2020.1.2,59.982104939414135,
14,Block513.xls,A,13,5,67,7,21,incongruent,Right,Left,Right,38,39,1,blue,2,6,/home/docky/apps/exp/images/38Bi.jpeg,/home/docky/apps/exp/images/39B.jpeg,0,13,13,13,0,4,4,4,1705.2789859930053,None,1705.2789859930053,None,1,3.6583577760029584,1705.2789859930053,None,1708.9708123350283,None,1708.9708123350283,None,1711.473697242036,None,1711.473697242036,None,0.9332248540013097,1713.2768206440378,None,1713.2768206440378,None,6,1,0.8176261219778098,1714.1969804340042,None,1714.1969804340042,None,1714.1969804340042,None,1715.0315583250485,None,1,0.3676101649762131,1715.0315583250485,None,162,1715.4156533940113,None,111,A,1,2021_May_24_0932,GazeFlow,2020.1.2,59.982104939414135,
14,Block513.xls,A,13,6,111,51,22,incongruent,Left,Right,Left,66,65,1,yellow,2,5,/home/docky/apps/exp/images/66Yi.jpeg,/home/docky/apps/exp/images/35B.jpeg,0,13,13,13,0,5,5,5,1716.4173126240494,None,1716.4173126240494,None,1,3.27382076397771,1716.4173126240494,None,1719.724991538038,None,1719.724991538038,None,1722.2276041300502,None,1722.2276041300502,None,0.9003690539975651,1724.031797128031,None,1724.031797128031,None,5,1,0.834400721010752,1724.9178058100515,None,1724.9178058100515,None,1724.9178058100515,None,1725.7689285230008,None,1,0.48460798105224967,1725.7689285230008,None,164,1726.2697312520468,None,111,A,1,2021_May_24_0932,GazeFlow,2020.1.2,59.982104939414135,
14,Block513.xls,A,13,7,88,28,21,incongruent,Right,Left,Right,79,82,3,yellow,2,6,/home/docky/apps/exp/images/79Y.jpeg,/home/docky/apps/exp/images/80Yi.jpeg,0,13,13,13,0,6,6,6,1727.2718450600514,None,1727.2718450600514,None,1,2.7395059220143594,1727.2718450600514,None,1730.0448986030533,None,1730.0448986030533,None,1732.548252053035,None,1732.548252053035,None,1.4008259039837867,1734.3514336690423,None,1734.3514336690423,None,5,0,1.403276976023335,1735.7387872410472,None,1735.7387872410472,None,1735.7387872410472,None,1737.158127022034,None,1,0.4672430020291358,1737.158127022034,None,162,1737.6419568569981,None,111,A,1,2021_May_24_0932,GazeFlow,2020.1.2,59.982104939414135,
14,Block513.xls,A,13,8,14,14,11,congruent,Left,Left,Right,80,83,3,blue,2,6,/home/docky/apps/exp/images/80B.jpeg,/home/docky/apps/exp/images/83Bi.jpeg,0,13,13,13,0,7,7,7,1738.6441571890027,None,1738.6441571890027,None,1,2.8226771479821764,1738.6441571890027,None,1741.5036586190108,None,1741.5036586190108,None,1744.0035904810065,None,1744.0035904810065,None,1.0502623309730552,1745.8074497040361,None,1745.8074497040361,None,6,1,0.9009645240148529,1746.8439033830073,None,1746.8439033830073,None,1746.8439033830073,None,1747.7616034730454,None,1,0.43471210304414853,1747.7616034730454,None,164,1748.2129645970417,None,111,A,1,2021_May_24_0932,GazeFlow,2020.1.2,59.982104939414135,
14,Block513.xls,A,,,,,,,,,,,,,,,,,,0,13,13,13,,,,,,,,,,,,,,,,,,,,,,,,,,,,,,,,,,,,,,,,,,,,111,A,1,2021_May_24_0932,GazeFlow,2020.1.2,59.982104939414135,
15,Block514.xls,A,14,1,113,53,22,incongruent,Left,Right,Left,75,69,6,yellow,2,5,/home/docky/apps/exp/images/76Y.jpeg,/home/docky/apps/exp/images/69Yi.jpeg,0,14,14,14,0,0,0,0,1768.6706109420047,None,1768.6706109420047,None,1,4.834472903981805,1768.6706109420047,None,1773.5307238840032,None,1773.5307238840032,None,1776.0511764050461,None,1776.0511764050461,None,0.9995837599853985,1777.8548399340361,None,1777.8548399340361,None,5,1,0.8510982230072841,1778.839403719001,None,1778.839403719001,None,1778.839403719001,None,1779.7072498460184,None,1,0.4846555889816955,1779.7072498460184,None,166,1780.2085639870493,None,111,A,1,2021_May_24_0932,GazeFlow,2020.1.2,59.982104939414135,
15,Block514.xls,A,14,2,45,45,12,congruent,Right,Right,Left,39,38,1,blue,2,5,/home/docky/apps/exp/images/39B.jpeg,/home/docky/apps/exp/images/38Bi.jpeg,0,14,14,14,0,1,1,1,1781.2099632840254,None,1781.2099632840254,None,1,2.9069484350038692,1781.2099632840254,None,1784.1528357010102,None,1784.1528357010102,None,1786.6531864569988,None,1786.6531864569988,None,0.9167058019666001,1788.4564515370294,None,1788.4564515370294,None,5,1,0.8346163789974526,1789.3598012960283,None,1789.3598012960283,None,1789.3598012960283,None,1790.2107367480057,None,1,0.45102386199869215,1790.2107367480057,None,168,1790.6785430040327,None,111,A,1,2021_May_24_0932,GazeFlow,2020.1.2,59.982104939414135,
15,Block514.xls,A,14,3,52,52,12,congruent,Right,Right,Left,75,69,6,yellow,2,5,/home/docky/apps/exp/images/76Y.jpeg,/home/docky/apps/exp/images/69Yi.jpeg,0,14,14,14,0,2,2,2,1791.6804574110429,None,1791.6804574110429,None,1,2.889653805003036,1791.6804574110429,None,1794.6057700960082,None,1794.6057700960082,None,1797.107277670002,None,1797.107277670002,None,0.8827505589579232,1798.9100690630148,None,1798.9100690630148,None,5,1,0.9513507019728422,1799.779965283,None,1799.779965283,None,1799.779965283,None,1800.7481858590036,None,1,0.5846989279962145,1800.7481858590036,None,170,1801.3494952710462,None,111,A,1,2021_May_24_0932,GazeFlow,2020.1.2,59.982104939414135,
15,Block514.xls,A,14,4,106,46,22,incongruent,Left,Right,Left,35,33,2,yellow,2,5,/home/docky/apps/exp/images/35Yi.jpeg,/home/docky/apps/exp/images/33Y.jpeg,0,14,14,14,0,3,3,3,1802.3513138400158,None,1802.3513138400158,None,1,2.6056295120506547,1802.3513138400158,None,1804.990561498038,None,1804.990561498038,None,1807.4953198190196,None,1807.4953198190196,None,0.9836781090125442,1809.2974684540532,None,1809.2974684540532,None,5,1,0.8007976000080816,1810.2670129020116,None,1810.2670129020116,None,1810.2670129020116,None,1811.0847257460118,None,1,0.4341611730051227,1811.0847257460118,None,172,1811.5357245100313,None,111,A,1,2021_May_24_0932,GazeFlow,2020.1.2,59.982104939414135,
15,Block514.xls,A,14,5,109,49,22,incongruent,Left,Right,Left,39,38,1,yellow,2,5,/home/docky/apps/exp/images/39Yi.jpeg,/home/docky/apps/exp/images/38Y.jpeg,0,14,14,14,0,4,4,4,1812.5374457700527,None,1812.5374457700527,None,1,2.6559081159648485,1812.5374457700527,None,1815.2274353210232,None,1815.2274353210232,None,1817.7301440440351,None,1817.7301440440351,None,1.0503000790486112,1819.5340648840065,None,1819.5340648840065,None,5,1,0.8513997370027937,1820.570399778022,None,1820.570399778022,None,1820.570399778022,None,1821.4381212020526,None,1,0.4174164329888299,1821.4381212020526,None,174,1821.8720102400403,None,111,A,1,2021_May_24_0932,GazeFlow,2020.1.2,59.982104939414135,
15,Block514.xls,A,14,6,89,29,21,incongruent,Right,Left,Right,79,82,3,yellow,2,6,/home/docky/apps/exp/images/79Yi.jpeg,/home/docky/apps/exp/images/80Y.jpeg,0,14,14,14,0,5,5,5,1822.8743855450302,None,1822.8743855450302,None,1,3.3069787260028534,1822.8743855450302,None,1826.2152858110494,None,1826.2152858110494,None,1828.7198190960335,None,1828.7198190960335,None,0.9667748549836688,1830.523386972025,None,1830.523386972025,None,6,1,0.8849223739816807,1831.4748436500086,None,1831.4748436500086,None,1831.4748436500086,None,1832.3762605650118,None,1,0.4172804609988816,1832.3762605650118,None,176,1832.811536705005,None,111,A,1,2021_May_24_0932,GazeFlow,2020.1.2,59.982104939414135,
15,Block514.xls,A,14,7,91,31,22,incongruent,Left,Right,Left,19,16,3,blue,2,5,/home/docky/apps/exp/images/19Bi.jpeg,/home/docky/apps/exp/images/16B.jpeg,0,14,14,14,0,6,6,6,1833.8122904820484,None,1833.8122904820484,None,1,2.922743560979143,1833.8122904820484,None,1836.7689906260348,None,1836.7689906260348,None,1839.27220421104,None,1839.27220421104,None,1.117176918021869,1841.0701375729986,None,1841.0701375729986,None,5,1,0.8177887970232405,1842.1790365860215,None,1842.1790365860215,None,1842.1790365860215,None,1843.0133683310123,None,1,0.4349831330473535,1843.0133683310123,None,178,1843.4647075190442,None,111,A,1,2021_May_24_0932,GazeFlow,2020.1.2,59.982104939414135,
15,Block514.xls,A,14,8,79,19,21,incongruent,Right,Left,Right,62,65,3,yellow,2,6,/home/docky/apps/exp/images/38B.jpeg,/home/docky/apps/exp/images/35Bi.jpeg,0,14,14,14,0,7,7,7,1844.4663305330323,None,1844.4663305330323,None,1,3.3573721469729207,1844.4663305330323,None,1847.8572985310457,None,1847.8572985310457,None,1850.3605398220243,None,1850.3605398220243,None,0.9001567399827763,1852.158708966046,None,1852.158708966046,None,6,1,0.8509059869684279,1853.0503520460334,None,1853.0503520460334,None,1853.0503520460334,None,1853.9179563590442,None,1,0.3673746090498753,1853.9179563590442,None,180,1854.3022026350372,None,111,A,1,2021_May_24_0932,GazeFlow,2020.1.2,59.982104939414135,
15,Block514.xls,A,,,,,,,,,,,,,,,,,,0,14,14,14,,,,,,,,,,,,,,,,,,,,,,,,,,,,,,,,,,,,,,,,,,,,111,A,1,2021_May_24_0932,GazeFlow,2020.1.2,59.982104939414135,
