Nblock,condsFile,grouping,Block,TrialBlock,N,trialN,trialCond,gazeCon,gazedirR,corrBinR,corrBinP,valLBY,valRBY,diff,colorCube,feedbacktext,corrAns,imageL,imageR,SelBlocks.thisRepN,SelBlocks.thisTrialN,SelBlocks.thisN,SelBlocks.thisIndex,Trials.thisRepN,Trials.thisTrialN,Trials.thisN,Trials.thisIndex,waitCube.started,waitCube.stopped,text_3.started,text_3.stopped,StartKeyPress.keys,StartKeyPress.rt,StartKeyPress.started,StartKeyPress.stopped,StimL.started,StimL.stopped,StimR.started,StimR.stopped,imageStim2L.started,imageStim2L.stopped,imageStim2R.started,imageStim2R.stopped,RTkeyRelease,imageStim3L.started,imageStim3L.stopped,imageStim3R.started,imageStim3R.stopped,dropResp.keys,dropResp.corr,dropResp.rt,dropResp.started,dropResp.stopped,imageStim5L.started,imageStim5L.stopped,imageStim5R.started,imageStim5R.stopped,text_2.started,text_2.stopped,ReturnSpace.keys,ReturnSpace.rt,ReturnSpace.started,ReturnSpace.stopped,totalpoints,textFeedback.started,textFeedback.stopped,participant,group,session,date,expName,psychopyVersion,frameRate,
1,Block809.xls,B,9,1,93,93,None,congruent,Right,Right,Left,80,79,1,yellow,2,5,/home/docky/apps/exp/images/80Y.jpeg,/home/docky/apps/exp/images/79Yi.jpeg,0,0,0,0,0,0,0,0,44.543032664980274,None,44.543032664980274,None,1,6.751348177029286,44.543032664980274,None,51.32782991300337,None,51.32782991300337,None,53.84437811298994,None,53.84437811298994,None,1.583880849997513,55.64219934900757,None,55.64219934900757,None,6,0,1.08552405401133,57.21445244498318,None,57.21445244498318,None,57.21445244498318,None,58.31640189397149,None,1,0.6674365330254659,58.31640189397149,None,-2,59.00066976802191,None,112,B,1,2021_May_24_1058,GazeFlow,2020.1.2,59.85503410075262,
1,Block809.xls,B,9,2,15,15,None,congruent,Left,Left,Right,38,39,1,blue,2,6,/home/docky/apps/exp/images/38B.jpeg,/home/docky/apps/exp/images/39Bi.jpeg,0,0,0,0,0,1,1,1,60.00248664000537,None,60.00248664000537,None,1,6.930858458974399,60.00248664000537,None,66.96720351197291,None,66.96720351197291,None,69.46964259701781,None,69.46964259701781,None,1.7352778799831867,71.27246902202023,None,71.27246902202023,None,6,1,0.9348555880133063,72.995041948976,None,72.995041948976,None,72.995041948976,None,73.94622279697796,None,1,0.9521345029934309,73.94622279697796,None,0,74.91485348099377,None,112,B,1,2021_May_24_1058,GazeFlow,2020.1.2,59.85503410075262,
1,Block809.xls,B,9,3,117,21,None,incongruent,Left,Right,Left,39,38,1,yellow,2,5,/home/docky/apps/exp/images/39Yi.jpeg,/home/docky/apps/exp/images/38Y.jpeg,0,0,0,0,0,2,2,2,75.91706949600484,None,75.91706949600484,None,1,7.248345051018987,75.91706949600484,None,83.19863096397603,None,83.19863096397603,None,85.7035377669963,None,85.7035377669963,None,1.5512882720213383,87.50002912001219,None,87.50002912001219,None,6,0,1.1019918789970689,89.04303845099639,None,89.04303845099639,None,89.04303845099639,None,90.16105049598264,None,1,1.0689779610256664,90.16105049598264,None,-2,91.24648351600626,None,112,B,1,2021_May_24_1058,GazeFlow,2020.1.2,59.85503410075262,
1,Block809.xls,B,9,4,94,94,None,congruent,Right,Right,Left,80,79,1,yellow,2,5,/home/docky/apps/exp/images/80Y.jpeg,/home/docky/apps/exp/images/79Yi.jpeg,0,0,0,0,0,3,3,3,92.24893743899884,None,92.24893743899884,None,1,6.9642845669877715,92.24893743899884,None,99.24668445700081,None,99.24668445700081,None,101.74958150199382,None,101.74958150199382,None,1.4840944060124457,103.54872323200107,None,103.54872323200107,None,5,1,1.202730151009746,105.023886956973,None,105.023886956973,None,105.023886956973,None,106.24284968699794,None,1,1.0516437659971416,106.24284968699794,None,0,107.31116007297533,None,112,B,1,2021_May_24_1058,GazeFlow,2020.1.2,59.85503410075262,
1,Block809.xls,B,9,5,41,41,None,congruent,Right,Right,Left,79,76,3,blue,2,5,/home/docky/apps/exp/images/79Bi.jpeg,/home/docky/apps/exp/images/76B.jpeg,0,0,0,0,0,4,4,4,108.31342256796779,None,108.31342256796779,None,1,7.548251047031954,108.31342256796779,None,115.89556042599725,None,115.89556042599725,None,118.39897398801986,None,118.39897398801986,None,1.2841364559717476,120.2020973439794,None,120.2020973439794,None,6,0,1.0184743579593487,121.47250853601145,None,121.47250853601145,None,121.47250853601145,None,122.50765407201834,None,1,0.8512630650075153,122.50765407201834,None,-2,123.37582308601122,None,112,B,1,2021_May_24_1058,GazeFlow,2020.1.2,59.85503410075262,
1,Block809.xls,B,9,6,36,36,None,congruent,Right,Right,Left,79,73,6,blue,2,5,/home/docky/apps/exp/images/79Bi.jpeg,/home/docky/apps/exp/images/73B.jpeg,0,0,0,0,0,5,5,5,124.37759464100236,None,124.37759464100236,None,1,6.864056724996772,124.37759464100236,None,131.27639497001655,None,131.27639497001655,None,133.78030831401702,None,133.78030831401702,None,1.9854053090093657,135.57738572900416,None,135.57738572900416,None,5,1,1.1179844190482982,137.55394576198887,None,137.55394576198887,None,137.55394576198887,None,138.68854156997986,None,1,1.1023123629856855,138.68854156997986,None,0,139.80772401299328,None,112,B,1,2021_May_24_1058,GazeFlow,2020.1.2,59.85503410075262,
1,Block809.xls,B,9,7,78,78,None,congruent,Right,Right,Left,39,38,1,yellow,2,5,/home/docky/apps/exp/images/39Yi.jpeg,/home/docky/apps/exp/images/38Y.jpeg,0,0,0,0,0,6,6,6,140.80989322200185,None,140.80989322200185,None,1,6.546822561009321,140.80989322200185,None,147.38985792500898,None,147.38985792500898,None,149.89492706698366,None,149.89492706698366,None,2.0524317260133103,151.69848492898745,None,151.69848492898745,None,6,0,1.6531793529866263,153.73511099099414,None,153.73511099099414,None,153.73511099099414,None,155.40463594801258,None,1,0.6349567479919642,155.40463594801258,None,-2,156.0562034189934,None,112,B,1,2021_May_24_1058,GazeFlow,2020.1.2,59.85503410075262,
1,Block809.xls,B,9,8,29,29,None,congruent,Right,Right,Left,38,35,3,blue,2,5,/home/docky/apps/exp/images/38B.jpeg,/home/docky/apps/exp/images/35Bi.jpeg,0,0,0,0,0,7,7,7,157.05813668196788,None,157.05813668196788,None,1,6.362750774016604,157.05813668196788,None,163.45451297500404,None,163.45451297500404,None,165.95796327496646,None,165.95796327496646,None,1.233567569986917,167.76164527097717,None,167.76164527097717,None,5,1,0.9513700680108741,168.98142156301765,None,168.98142156301765,None,168.98142156301765,None,169.94944979296997,None,1,0.8516479359823279,169.94944979296997,None,0,170.81794862099923,None,112,B,1,2021_May_24_1058,GazeFlow,2020.1.2,59.85503410075262,
1,Block809.xls,B,,,,,,,,,,,,,,,,,,0,0,0,0,,,,,,,,,,,,,,,,,,,,,,,,,,,,,,,,,,,,,,,,,,,,112,B,1,2021_May_24_1058,GazeFlow,2020.1.2,59.85503410075262,
2,Block805.xls,B,5,1,16,16,None,congruent,Left,Left,Right,73,76,3,blue,2,6,/home/docky/apps/exp/images/73B.jpeg,/home/docky/apps/exp/images/76Bi.jpeg,0,1,1,1,0,0,0,0,193.3140150050167,None,193.3140150050167,None,1,5.399128619988915,193.3140150050167,None,198.74484522198327,None,198.74484522198327,None,201.26155161001952,None,201.26155161001952,None,1.4835456879809499,203.0648705229978,None,203.0648705229978,None,6,1,1.152739560988266,204.53378498798702,None,204.53378498798702,None,204.53378498798702,None,205.70271013799356,None,1,0.734633690037299,205.70271013799356,None,2,206.45379821199458,None,112,B,1,2021_May_24_1058,GazeFlow,2020.1.2,59.85503410075262,
2,Block805.xls,B,5,2,2,2,None,congruent,Left,Left,Right,16,19,3,blue,2,6,/home/docky/apps/exp/images/16B.jpeg,/home/docky/apps/exp/images/19Bi.jpeg,0,1,1,1,0,1,1,1,207.4558724060189,None,207.4558724060189,None,1,5.979167150973808,207.4558724060189,None,213.46837444999255,None,213.46837444999255,None,215.97126272297464,None,215.97126272297464,None,1.9352123709977604,217.77506231499137,None,217.77506231499137,None,6,1,0.9357816620031372,219.6964646630222,None,219.6964646630222,None,219.6964646630222,None,220.64836490497692,None,1,0.884754559956491,220.64836490497692,None,4,221.54965379199712,None,112,B,1,2021_May_24_1058,GazeFlow,2020.1.2,59.85503410075262,
2,Block805.xls,B,5,3,64,64,None,congruent,Left,Left,Right,69,76,7,yellow,2,6,/home/docky/apps/exp/images/69Y.jpeg,/home/docky/apps/exp/images/76Yi.jpeg,0,1,1,1,0,2,2,2,222.5516811540001,None,222.5516811540001,None,1,6.3128844710299745,222.5516811540001,None,228.89834299101494,None,228.89834299101494,None,231.40303105599014,None,231.40303105599014,None,1.351166988024488,233.20473285898333,None,233.20473285898333,None,6,1,1.3024652589811012,234.54210445698118,None,234.54210445698118,None,234.54210445698118,None,235.8606516579748,None,1,0.8185963290161453,235.8606516579748,None,6,236.69580454699462,None,112,B,1,2021_May_24_1058,GazeFlow,2020.1.2,59.85503410075262,
2,Block805.xls,B,5,4,61,61,None,congruent,Left,Left,Right,38,39,1,yellow,2,6,/home/docky/apps/exp/images/38Yi.jpeg,/home/docky/apps/exp/images/39Y.jpeg,0,1,1,1,0,3,3,3,237.69784811499994,None,237.69784811499994,None,1,5.945783620991278,237.69784811499994,None,243.6771323789726,None,243.6771323789726,None,246.17969431501115,None,246.17969431501115,None,2.971100819995627,247.9831036470132,None,247.9831036470132,None,6,1,1.1683264459716156,250.95739432098344,None,250.95739432098344,None,250.95739432098344,None,252.14227899396792,None,1,0.718353884993121,252.14227899396792,None,8,252.8772601520177,None,112,B,1,2021_May_24_1058,GazeFlow,2020.1.2,59.85503410075262,
2,Block805.xls,B,5,5,23,23,None,congruent,Left,Left,Right,80,83,3,blue,2,6,/home/docky/apps/exp/images/80B.jpeg,/home/docky/apps/exp/images/83Bi.jpeg,0,1,1,1,0,4,4,4,253.8795214049751,None,253.8795214049751,None,1,6.245792983972933,253.8795214049751,None,260.1591904319939,None,260.1591904319939,None,262.6618811999797,None,262.6618811999797,None,1.8350635310052894,264.4599181889789,None,264.4599181889789,None,5,0,0.9518866520375013,266.28710854199016,None,266.28710854199016,None,266.28710854199016,None,267.2552862240118,None,1,0.9852097209659405,267.2552862240118,None,6,268.2569748900132,None,112,B,1,2021_May_24_1058,GazeFlow,2020.1.2,59.85503410075262,
2,Block805.xls,B,5,6,87,87,None,congruent,Right,Right,Left,76,69,7,yellow,2,5,/home/docky/apps/exp/images/76Yi.jpeg,/home/docky/apps/exp/images/69Y.jpeg,0,1,1,1,0,5,5,5,269.2590686089825,None,269.2590686089825,None,1,6.6472551000188105,269.2590686089825,None,275.93953004002105,None,275.93953004002105,None,278.4485882620211,None,278.4485882620211,None,3.7406326130148955,280.2480750220129,None,280.2480750220129,None,5,1,1.001234711962752,283.98870140797226,None,283.98870140797226,None,283.98870140797226,None,285.00607615098124,None,1,0.6347383210086264,285.00607615098124,None,8,285.6573720049928,None,112,B,1,2021_May_24_1058,GazeFlow,2020.1.2,59.85503410075262,
2,Block805.xls,B,5,7,4,4,None,congruent,Left,Left,Right,35,38,3,blue,2,6,/home/docky/apps/exp/images/35B.jpeg,/home/docky/apps/exp/images/38Bi.jpeg,0,1,1,1,0,6,6,6,286.659919223981,None,286.659919223981,None,1,6.045276494987775,286.659919223981,None,292.739111797011,None,292.739111797011,None,295.241712256975,None,295.241712256975,None,1.6681927680037916,297.04552879498806,None,297.04552879498806,None,5,0,1.4690703070373274,298.69990983296884,None,298.69990983296884,None,298.69990983296884,None,300.1857287180028,None,1,0.7011474769678898,300.1857287180028,None,6,300.90343499497976,None,112,B,1,2021_May_24_1058,GazeFlow,2020.1.2,59.85503410075262,
2,Block805.xls,B,5,8,114,18,None,incongruent,Right,Left,Right,79,82,3,yellow,2,6,/home/docky/apps/exp/images/79Y.jpeg,/home/docky/apps/exp/images/80Yi.jpeg,0,1,1,1,0,7,7,7,301.9061256669811,None,301.9061256669811,None,1,5.5110120520112105,301.9061256669811,None,307.4489858470042,None,307.4489858470042,None,309.9556236509816,None,309.9556236509816,None,1.30126558203483,311.7570855040103,None,311.7570855040103,None,6,1,1.0687411749968305,313.0445946789696,None,313.0445946789696,None,313.0445946789696,None,314.12984029296786,None,1,0.5180412560002878,314.12984029296786,None,8,314.6640432049753,None,112,B,1,2021_May_24_1058,GazeFlow,2020.1.2,59.85503410075262,
2,Block805.xls,B,,,,,,,,,,,,,,,,,,0,1,1,1,,,,,,,,,,,,,,,,,,,,,,,,,,,,,,,,,,,,,,,,,,,,112,B,1,2021_May_24_1058,GazeFlow,2020.1.2,59.85503410075262,
3,Block804.xls,B,4,1,95,95,None,congruent,Right,Right,Left,80,79,1,yellow,2,5,/home/docky/apps/exp/images/80Yi.jpeg,/home/docky/apps/exp/images/79Y.jpeg,0,2,2,2,0,0,0,0,337.4364894889877,None,337.4364894889877,None,1,5.404076058010105,337.4364894889877,None,342.8675423039822,None,342.8675423039822,None,345.391264543985,None,345.391264543985,None,1.3169526980491355,347.1948792950134,None,347.1948792950134,None,5,1,0.9854254209785722,348.4968664890039,None,348.4968664890039,None,348.4968664890039,None,349.49858670600224,None,1,0.834739219979383,349.49858670600224,None,10,350.3497637229739,None,112,B,1,2021_May_24_1058,GazeFlow,2020.1.2,59.85503410075262,
3,Block804.xls,B,4,2,107,11,None,incongruent,Left,Right,Left,83,80,3,blue,2,5,/home/docky/apps/exp/images/83Bi.jpeg,/home/docky/apps/exp/images/80B.jpeg,0,2,2,2,0,1,1,1,351.35175604600227,None,351.35175604600227,None,1,5.6615590379806235,351.35175604600227,None,357.04714964999584,None,357.04714964999584,None,359.5504787489772,None,359.5504787489772,None,1.3674413900007494,361.3539299679687,None,361.3539299679687,None,6,0,0.9689196060062386,362.70774038601667,None,362.70774038601667,None,362.70774038601667,None,363.69263415201567,None,1,0.7013819490093738,363.69263415201567,None,8,364.41042396699777,None,112,B,1,2021_May_24_1058,GazeFlow,2020.1.2,59.85503410075262,
3,Block804.xls,B,4,3,27,27,None,congruent,Right,Right,Left,19,16,3,blue,2,5,/home/docky/apps/exp/images/19Bi.jpeg,/home/docky/apps/exp/images/16B.jpeg,0,2,2,2,0,2,2,2,365.413109607005,None,365.413109607005,None,1,6.011758693028241,365.413109607005,None,371.4587384519982,None,371.4587384519982,None,373.96177234500647,None,373.96177234500647,None,1.3840951719903387,375.7665760049713,None,375.7665760049713,None,5,1,1.0358085129992105,377.1357595769805,None,377.1357595769805,None,377.1357595769805,None,378.1877589329961,None,1,1.3186943809851073,378.1877589329961,None,10,379.5230792569928,None,112,B,1,2021_May_24_1058,GazeFlow,2020.1.2,59.85503410075262,
3,Block804.xls,B,4,4,101,5,None,incongruent,Right,Left,Right,76,79,3,blue,2,6,/home/docky/apps/exp/images/76B.jpeg,/home/docky/apps/exp/images/79Bi.jpeg,0,2,2,2,0,3,3,3,380.5254198819748,None,380.5254198819748,None,1,6.947137678973377,380.5254198819748,None,387.50640909397043,None,387.50640909397043,None,390.0110693689785,None,390.0110693689785,None,1.2173615660285577,391.8129789470113,None,391.8129789470113,None,5,0,0.9178675649454817,393.0165994199924,None,393.0165994199924,None,393.0165994199924,None,393.95112857298227,None,1,0.8349880389869213,393.95112857298227,None,8,394.8026524329907,None,112,B,1,2021_May_24_1058,GazeFlow,2020.1.2,59.85503410075262,
3,Block804.xls,B,4,5,47,47,None,congruent,Right,Right,Left,39,38,1,blue,2,5,/home/docky/apps/exp/images/39Bi.jpeg,/home/docky/apps/exp/images/38B.jpeg,0,2,2,2,0,4,4,4,395.8050187189947,None,395.8050187189947,None,1,6.880369620979764,395.8050187189947,None,402.71924914798,None,402.71924914798,None,405.22427783202147,None,405.22427783202147,None,1.7181388849858195,407.0276826709742,None,407.0276826709742,None,5,1,0.9350291470182128,408.7305963819963,None,408.7305963819963,None,408.7305963819963,None,409.6821146659786,None,1,0.6674580450053327,409.6821146659786,None,10,410.36632098600967,None,112,B,1,2021_May_24_1058,GazeFlow,2020.1.2,59.85503410075262,
3,Block804.xls,B,4,6,90,90,None,congruent,Right,Right,Left,77,72,5,yellow,2,5,/home/docky/apps/exp/images/77Yi.jpeg,/home/docky/apps/exp/images/72Y.jpeg,0,2,2,2,0,5,5,5,411.3687635620008,None,411.3687635620008,None,1,5.511338080978021,411.3687635620008,None,416.9153358709882,None,416.9153358709882,None,419.41661542101065,None,419.41661542101065,None,1.384546664019581,421.2193331029848,None,421.2193331029848,None,5,1,0.9185494469711557,422.59061839198694,None,422.59061839198694,None,422.59061839198694,None,423.52537918702,None,1,2.505707873031497,423.52537918702,None,12,426.0472140699858,None,112,B,1,2021_May_24_1058,GazeFlow,2020.1.2,59.85503410075262,
3,Block804.xls,B,4,7,12,12,None,congruent,Left,Left,Right,38,39,1,blue,2,6,/home/docky/apps/exp/images/38B.jpeg,/home/docky/apps/exp/images/39Bi.jpeg,0,2,2,2,0,6,6,6,427.0492168869823,None,427.0492168869823,None,1,4.910286566009745,427.0492168869823,None,431.99333226901945,None,431.99333226901945,None,434.4960912609822,None,434.4960912609822,None,1.417604541988112,436.299592691008,None,436.299592691008,None,6,1,1.0356177799985744,437.70348818198545,None,437.70348818198545,None,437.70348818198545,None,438.755211673968,None,1,2.7389633569982834,438.755211673968,None,14,441.5105177750229,None,112,B,1,2021_May_24_1058,GazeFlow,2020.1.2,59.85503410075262,
3,Block804.xls,B,4,8,20,20,None,congruent,Left,Left,Right,76,79,3,blue,2,6,/home/docky/apps/exp/images/76Bi.jpeg,/home/docky/apps/exp/images/79B.jpeg,0,2,2,2,0,7,7,7,442.5123689909815,None,442.5123689909815,None,1,4.092269933957141,442.5123689909815,None,446.6378015850205,None,446.6378015850205,None,449.1428724459838,None,449.1428724459838,None,1.9016733859898522,450.944762766012,None,450.944762766012,None,6,1,1.1016159470309503,452.8328111509909,None,452.8328111509909,None,452.8328111509909,None,453.9508985329885,None,1,1.3194916190113872,453.9508985329885,None,16,455.287221112987,None,112,B,1,2021_May_24_1058,GazeFlow,2020.1.2,59.85503410075262,
3,Block804.xls,B,,,,,,,,,,,,,,,,,,0,2,2,2,,,,,,,,,,,,,,,,,,,,,,,,,,,,,,,,,,,,,,,,,,,,112,B,1,2021_May_24_1058,GazeFlow,2020.1.2,59.85503410075262,
4,Block814.xls,B,14,1,99,3,None,incongruent,Right,Left,Right,65,66,1,blue,2,6,/home/docky/apps/exp/images/35Yi.jpeg,/home/docky/apps/exp/images/66B.jpeg,0,3,3,3,0,0,0,0,474.17589814402163,None,474.17589814402163,None,1,5.03382083500037,474.17589814402163,None,479.23442308901576,None,479.23442308901576,None,481.7543339669937,None,481.7543339669937,None,1.3335911139729433,483.55323858198244,None,483.55323858198244,None,6,1,0.9177931459853426,484.8784102179925,None,484.8784102179925,None,484.8784102179925,None,485.8133107770118,None,1,1.0348751179990359,485.8133107770118,None,18,486.8649013050017,None,112,B,1,2021_May_24_1058,GazeFlow,2020.1.2,59.85503410075262,
4,Block814.xls,B,14,2,34,34,None,congruent,Right,Right,Left,66,65,1,blue,2,5,/home/docky/apps/exp/images/66B.jpeg,/home/docky/apps/exp/images/35Yi.jpeg,0,3,3,3,0,1,1,1,487.8670781959663,None,487.8670781959663,None,1,5.51163634902332,487.8670781959663,None,493.41196573898196,None,493.41196573898196,None,495.9166371729807,None,495.9166371729807,None,1.3508482109755278,497.7206217609928,None,497.7206217609928,None,5,1,0.901119319954887,499.056038856972,None,499.056038856972,None,499.056038856972,None,499.974113794975,None,1,0.8013415340101346,499.974113794975,None,20,500.79182658100035,None,112,B,1,2021_May_24_1058,GazeFlow,2020.1.2,59.85503410075262,
4,Block814.xls,B,14,3,91,91,None,congruent,Right,Right,Left,77,72,5,yellow,2,5,/home/docky/apps/exp/images/77Yi.jpeg,/home/docky/apps/exp/images/72Y.jpeg,0,3,3,3,0,2,2,2,501.7941382419667,None,501.7941382419667,None,1,5.044117312994786,501.7941382419667,None,506.87179306696635,None,506.87179306696635,None,509.3746526669711,None,509.3746526669711,None,1.5176696670241654,511.1779432729818,None,511.1779432729818,None,6,0,0.835033793002367,512.6823846949846,None,512.6823846949846,None,512.6823846949846,None,513.5338742149761,None,1,0.5840684249997139,513.5338742149761,None,18,514.1346472050063,None,112,B,1,2021_May_24_1058,GazeFlow,2020.1.2,59.85503410075262,
4,Block814.xls,B,14,4,68,68,None,congruent,Left,Left,Right,72,77,5,yellow,2,6,/home/docky/apps/exp/images/72Yi.jpeg,/home/docky/apps/exp/images/77Y.jpeg,0,3,3,3,0,3,3,3,515.1362835859763,None,515.1362835859763,None,1,5.060614387039095,515.1362835859763,None,520.2286462669726,None,520.2286462669726,None,522.7355386979762,None,522.7355386979762,None,1.2673402820364572,524.5323018049821,None,524.5323018049821,None,6,1,1.034582471998874,525.7911966380198,None,525.7911966380198,None,525.7911966380198,None,526.8425861819996,None,1,1.7369052789872512,526.8425861819996,None,20,528.5959877410205,None,112,B,1,2021_May_24_1058,GazeFlow,2020.1.2,59.85503410075262,
4,Block814.xls,B,14,5,66,66,None,congruent,Left,Left,Right,69,76,7,yellow,2,6,/home/docky/apps/exp/images/69Yi.jpeg,/home/docky/apps/exp/images/76Y.jpeg,0,3,3,3,0,4,4,4,529.5983690629946,None,529.5983690629946,None,1,4.759373901004437,529.5983690629946,None,534.3916689460166,None,534.3916689460166,None,536.8964912099764,None,536.8964912099764,None,1.1843730100081302,538.6970387889887,None,538.6970387889887,None,6,1,0.9683011680026539,539.8682173179695,None,539.8682173179695,None,539.8682173179695,None,540.8531636630069,None,1,1.2693115469883196,540.8531636630069,None,22,542.1387741049984,None,112,B,1,2021_May_24_1058,GazeFlow,2020.1.2,59.85503410075262,
4,Block814.xls,B,14,6,115,19,None,incongruent,Left,Right,Left,80,79,1,yellow,2,5,/home/docky/apps/exp/images/80Yi.jpeg,/home/docky/apps/exp/images/79Y.jpeg,0,3,3,3,0,5,5,5,543.141633444,None,543.141633444,None,1,5.310345300997142,543.141633444,None,548.4856931350078,None,548.4856931350078,None,550.9887033099658,None,550.9887033099658,None,1.3006144310347736,552.7919788910076,None,552.7919788910076,None,5,1,0.9345675780205056,554.0794399229926,None,554.0794399229926,None,554.0794399229926,None,555.0307456859737,None,1,0.6017314070486464,555.0307456859737,None,24,555.6490206189919,None,112,B,1,2021_May_24_1058,GazeFlow,2020.1.2,59.85503410075262,
4,Block814.xls,B,14,7,9,9,None,congruent,Left,Left,Right,65,66,1,blue,2,6,/home/docky/apps/exp/images/35Yi.jpeg,/home/docky/apps/exp/images/66B.jpeg,0,3,3,3,0,6,6,6,556.6506360549829,None,556.6506360549829,None,1,5.6117712770355865,556.6506360549829,None,562.2958139610128,None,562.2958139610128,None,564.7987262330134,None,564.7987262330134,None,1.3006035480066203,566.5978008609964,None,566.5978008609964,None,6,1,0.9350346510182135,567.8896687499946,None,567.8896687499946,None,567.8896687499946,None,568.8409306529793,None,1,2.2047397270216607,568.8409306529793,None,26,571.0622791710193,None,112,B,1,2021_May_24_1058,GazeFlow,2020.1.2,59.85503410075262,
4,Block814.xls,B,14,8,14,14,None,congruent,Left,Left,Right,38,39,1,blue,2,6,/home/docky/apps/exp/images/38Bi.jpeg,/home/docky/apps/exp/images/39B.jpeg,0,3,3,3,0,7,7,7,572.064203158021,None,572.064203158021,None,1,5.110582222987432,572.064203158021,None,577.209802212019,None,577.209802212019,None,579.7127802320174,None,579.7127802320174,None,1.3004779340117238,581.5096046829713,None,581.5096046829713,None,5,0,1.4028209560201503,582.8018417009735,None,582.8018417009735,None,582.8018417009735,None,584.2210574389901,None,1,0.7176645239815116,584.2210574389901,None,24,584.9551151159685,None,112,B,1,2021_May_24_1058,GazeFlow,2020.1.2,59.85503410075262,
4,Block814.xls,B,,,,,,,,,,,,,,,,,,0,3,3,3,,,,,,,,,,,,,,,,,,,,,,,,,,,,,,,,,,,,,,,,,,,,112,B,1,2021_May_24_1058,GazeFlow,2020.1.2,59.85503410075262,
5,Block812.xls,B,12,1,18,18,None,congruent,Left,Left,Right,73,76,3,blue,2,6,/home/docky/apps/exp/images/73B.jpeg,/home/docky/apps/exp/images/76Bi.jpeg,0,4,4,4,0,0,0,0,608.0519396949676,None,608.0519396949676,None,1,4.765349482011516,608.0519396949676,None,612.8544625329669,None,612.8544625329669,None,615.3655441409792,None,615.3655441409792,None,1.584219423995819,617.1689238150138,None,617.1689238150138,None,6,1,1.05166709900368,618.7381994560128,None,618.7381994560128,None,618.7381994560128,None,619.8065192099893,None,1,1.5030544649926014,619.8065192099893,None,26,621.3262016939698,None,112,B,1,2021_May_24_1058,GazeFlow,2020.1.2,59.85503410075262,
5,Block812.xls,B,12,2,3,3,None,congruent,Left,Left,Right,16,19,3,blue,2,6,/home/docky/apps/exp/images/16Bi.jpeg,/home/docky/apps/exp/images/19B.jpeg,0,4,4,4,0,1,1,1,622.3285238050157,None,622.3285238050157,None,1,4.99345720600104,622.3285238050157,None,627.3555548079894,None,627.3555548079894,None,629.8576074140146,None,629.8576074140146,None,1.3175687129842117,631.6593336139922,None,631.6593336139922,None,6,1,1.0018503529718146,632.9658022489748,None,632.9658022489748,None,632.9658022489748,None,633.9838388739736,None,1,2.2211584899923764,633.9838388739736,None,28,636.2217559079872,None,112,B,1,2021_May_24_1058,GazeFlow,2020.1.2,59.85503410075262,
5,Block812.xls,B,12,3,56,56,None,congruent,Left,Left,Right,62,65,3,yellow,2,6,/home/docky/apps/exp/images/38Bi.jpeg,/home/docky/apps/exp/images/35B.jpeg,0,4,4,4,0,2,2,2,637.224040808971,None,637.224040808971,None,1,5.39438135898672,637.224040808971,None,642.6495690870215,None,642.6495690870215,None,645.1562844989821,None,645.1562844989821,None,1.6016206400236115,646.9578408019734,None,646.9578408019734,None,5,0,1.1185921740252525,648.5462488569901,None,648.5462488569901,None,648.5462488569901,None,649.6813048219774,None,1,0.8350900780060329,649.6813048219774,None,26,650.5330794070032,None,112,B,1,2021_May_24_1058,GazeFlow,2020.1.2,59.85503410075262,
5,Block812.xls,B,12,4,11,11,None,congruent,Left,Left,Right,38,39,1,blue,2,6,/home/docky/apps/exp/images/38B.jpeg,/home/docky/apps/exp/images/39Bi.jpeg,0,4,4,4,0,3,3,3,651.5351494150236,None,651.5351494150236,None,1,6.363219245977234,651.5351494150236,None,657.9318561569671,None,657.9318561569671,None,660.4332552229753,None,660.4332552229753,None,1.417754298017826,662.2381316280225,None,662.2381316280225,None,6,1,3.891394133970607,663.642235981999,None,663.642235981999,None,663.642235981999,None,667.5496659249766,None,1,2.287949933030177,667.5496659249766,None,28,669.8540703040198,None,112,B,1,2021_May_24_1058,GazeFlow,2020.1.2,59.85503410075262,
5,Block812.xls,B,12,5,116,20,None,incongruent,Left,Right,Left,35,33,2,yellow,2,5,/home/docky/apps/exp/images/35Yi.jpeg,/home/docky/apps/exp/images/33Y.jpeg,0,4,4,4,0,4,4,4,670.8561005009688,None,670.8561005009688,None,1,5.995688400988001,670.8561005009688,None,676.887918042019,None,676.887918042019,None,679.3900164290098,None,679.3900164290098,None,1.7181494469987229,681.1916232859949,None,681.1916232859949,None,6,0,0.9021395599702373,682.8964216460008,None,682.8964216460008,None,682.8964216460008,None,683.8146232069703,None,1,0.9514288380159996,683.8146232069703,None,26,684.7826124730054,None,112,B,1,2021_May_24_1058,GazeFlow,2020.1.2,59.85503410075262,
5,Block812.xls,B,12,6,40,40,None,congruent,Right,Right,Left,79,76,3,blue,2,5,/home/docky/apps/exp/images/79Bi.jpeg,/home/docky/apps/exp/images/76B.jpeg,0,4,4,4,0,5,5,5,685.7847343439935,None,685.7847343439935,None,1,5.3113697890075855,685.7847343439935,None,691.1276839739876,None,691.1276839739876,None,693.6343491909793,None,693.6343491909793,None,1.4845100399688818,695.4312666699989,None,695.4312666699989,None,5,1,1.1690478390082717,696.906865729019,None,696.906865729019,None,696.906865729019,None,698.0922986229998,None,1,1.2356167410034686,698.0922986229998,None,28,699.3444195549819,None,112,B,1,2021_May_24_1058,GazeFlow,2020.1.2,59.85503410075262,
5,Block812.xls,B,12,7,76,76,None,congruent,Right,Right,Left,39,38,1,yellow,2,5,/home/docky/apps/exp/images/39Yi.jpeg,/home/docky/apps/exp/images/38Y.jpeg,0,4,4,4,0,6,6,6,700.3467182589811,None,700.3467182589811,None,1,5.160409171017818,700.3467182589811,None,705.5407353200135,None,705.5407353200135,None,708.0439430460101,None,708.0439430460101,None,1.6681815299671143,709.847639915999,None,709.847639915999,None,5,1,1.0356935320305638,711.5019027579692,None,711.5019027579692,None,711.5019027579692,None,712.5537867120001,None,1,1.2854666109778918,712.5537867120001,None,30,713.8558516500052,None,112,B,1,2021_May_24_1058,GazeFlow,2020.1.2,59.85503410075262,
5,Block812.xls,B,12,8,77,77,None,congruent,Right,Right,Left,39,38,1,yellow,2,5,/home/docky/apps/exp/images/39Y.jpeg,/home/docky/apps/exp/images/38Yi.jpeg,0,4,4,4,0,7,7,7,714.8582855539862,None,714.8582855539862,None,1,5.477758752997033,714.8582855539862,None,720.3696462819935,None,720.3696462819935,None,722.8731053230003,None,722.8731053230003,None,1.3174866589833982,724.6759692979977,None,724.6759692979977,None,6,0,1.0691442390088923,725.9800675910083,None,725.9800675910083,None,725.9800675910083,None,727.0652227490209,None,1,0.9350362170371227,727.0652227490209,None,28,728.0168551310198,None,112,B,1,2021_May_24_1058,GazeFlow,2020.1.2,59.85503410075262,
5,Block812.xls,B,,,,,,,,,,,,,,,,,,0,4,4,4,,,,,,,,,,,,,,,,,,,,,,,,,,,,,,,,,,,,,,,,,,,,112,B,1,2021_May_24_1058,GazeFlow,2020.1.2,59.85503410075262,
6,Block803.xls,B,3,1,84,84,None,congruent,Right,Right,Left,75,69,6,yellow,2,5,/home/docky/apps/exp/images/76Yi.jpeg,/home/docky/apps/exp/images/69Y.jpeg,0,5,5,5,0,0,0,0,752.0654587749741,None,752.0654587749741,None,1,5.482768465008121,752.0654587749741,None,757.5801664479659,None,757.5801664479659,None,760.0969134299667,None,760.0969134299667,None,1.667511284002103,761.9002934090095,None,761.9002934090095,None,5,1,0.9352748210076243,763.5529222619953,None,763.5529222619953,None,763.5529222619953,None,764.5047330909874,None,1,1.335560749983415,764.5047330909874,None,30,765.8566463720053,None,112,B,1,2021_May_24_1058,GazeFlow,2020.1.2,59.85503410075262,
6,Block803.xls,B,3,2,82,82,None,congruent,Right,Right,Left,66,65,1,yellow,2,5,/home/docky/apps/exp/images/66Y.jpeg,/home/docky/apps/exp/images/35Bi.jpeg,0,5,5,5,0,1,1,1,766.8593955939868,None,766.8593955939868,None,1,5.243717276956886,766.8593955939868,None,772.1366950200172,None,772.1366950200172,None,774.6394153820002,None,774.6394153820002,None,1.2173424620414153,776.437627864012,None,776.437627864012,None,5,1,1.1523119950434193,777.6471113350126,None,777.6471113350126,None,777.6471113350126,None,778.8158981549786,None,1,0.7343739159987308,778.8158981549786,None,32,779.5668338139658,None,112,B,1,2021_May_24_1058,GazeFlow,2020.1.2,59.85503410075262,
6,Block803.xls,B,3,3,80,80,None,congruent,Right,Right,Left,66,65,1,yellow,2,5,/home/docky/apps/exp/images/66Yi.jpeg,/home/docky/apps/exp/images/35B.jpeg,0,5,5,5,0,2,2,2,780.5689713329775,None,780.5689713329775,None,1,4.776537184952758,780.5689713329775,None,785.3794123679982,None,785.3794123679982,None,787.8823350839666,None,787.8823350839666,None,1.5677999830222689,789.6877146199695,None,789.6877146199695,None,5,1,1.0519249080098234,791.2402916550054,None,791.2402916550054,None,791.2402916550054,None,792.3086985619739,None,1,0.6844818450044841,792.3086985619739,None,34,793.0097324490198,None,112,B,1,2021_May_24_1058,GazeFlow,2020.1.2,59.85503410075262,
6,Block803.xls,B,3,4,79,79,None,congruent,Right,Right,Left,66,65,1,yellow,2,5,/home/docky/apps/exp/images/66Y.jpeg,/home/docky/apps/exp/images/35Bi.jpeg,0,5,5,5,0,3,3,3,794.011719491973,None,794.011719491973,None,1,4.8103014310472645,794.011719491973,None,798.8553720130003,None,798.8553720130003,None,801.3585613589967,None,801.3585613589967,None,1.200400873029139,803.1619577960228,None,803.1619577960228,None,5,1,1.0013228740426712,804.3490412340034,None,804.3490412340034,None,804.3490412340034,None,805.3671250129701,None,1,2.438911213015672,805.3671250129701,None,36,807.8222266500234,None,112,B,1,2021_May_24_1058,GazeFlow,2020.1.2,59.85503410075262,
6,Block803.xls,B,3,5,92,92,None,congruent,Right,Right,Left,77,72,5,yellow,2,5,/home/docky/apps/exp/images/77Y.jpeg,/home/docky/apps/exp/images/72Yi.jpeg,0,5,5,5,0,4,4,4,808.8242726689787,None,808.8242726689787,None,1,5.0433407130185515,808.8242726689787,None,813.9012912790058,None,813.9012912790058,None,816.4044189300039,None,816.4044189300039,None,1.3675721380277537,818.208045944979,None,818.208045944979,None,6,0,0.902141471975483,819.5619312690105,None,819.5619312690105,None,819.5619312690105,None,820.479988178995,None,1,0.7178939569857903,820.479988178995,None,34,821.2146274870029,None,112,B,1,2021_May_24_1058,GazeFlow,2020.1.2,59.85503410075262,
6,Block803.xls,B,3,6,106,10,None,incongruent,Left,Right,Left,79,76,3,blue,2,5,/home/docky/apps/exp/images/79Bi.jpeg,/home/docky/apps/exp/images/76B.jpeg,0,5,5,5,0,5,5,5,822.2165944040171,None,822.2165944040171,None,1,5.678299188031815,822.2165944040171,None,827.928469683975,None,827.928469683975,None,830.4333033749717,None,830.4333033749717,None,1.668183150992263,832.2349540559808,None,832.2349540559808,None,5,1,1.4020289370091632,833.889944576018,None,833.889944576018,None,833.889944576018,None,835.3084911020123,None,1,0.584509821026586,835.3084911020123,None,36,835.9097005570075,None,112,B,1,2021_May_24_1058,GazeFlow,2020.1.2,59.85503410075262,
6,Block803.xls,B,3,7,25,25,None,congruent,Right,Right,Left,19,16,3,blue,2,5,/home/docky/apps/exp/images/19Bi.jpeg,/home/docky/apps/exp/images/16B.jpeg,0,5,5,5,0,6,6,6,836.9119319249876,None,836.9119319249876,None,1,5.979188926052302,836.9119319249876,None,842.9248145360034,None,842.9248145360034,None,845.4293882870115,None,845.4293882870115,None,1.951996537973173,847.2313386779861,None,847.2313386779861,None,5,1,0.9021376409800723,849.1694856769755,None,849.1694856769755,None,849.1694856769755,None,850.0877276120009,None,1,0.9679727570037358,850.0877276120009,None,38,851.0722396710189,None,112,B,1,2021_May_24_1058,GazeFlow,2020.1.2,59.85503410075262,
6,Block803.xls,B,3,8,46,46,None,congruent,Right,Right,Left,39,38,1,blue,2,5,/home/docky/apps/exp/images/39B.jpeg,/home/docky/apps/exp/images/38Bi.jpeg,0,5,5,5,0,7,7,7,852.074932907999,None,852.074932907999,None,1,4.97658792801667,852.074932907999,None,857.0838678099681,None,857.0838678099681,None,859.588401023997,None,859.588401023997,None,1.7179276769747958,861.3922724199947,None,861.3922724199947,None,6,0,0.8677577310008928,863.0964863529662,None,863.0964863529662,None,863.0964863529662,None,863.981137291994,None,1,0.6342658249777742,863.981137291994,None,36,864.6322047389694,None,112,B,1,2021_May_24_1058,GazeFlow,2020.1.2,59.85503410075262,
6,Block803.xls,B,,,,,,,,,,,,,,,,,,0,5,5,5,,,,,,,,,,,,,,,,,,,,,,,,,,,,,,,,,,,,,,,,,,,,112,B,1,2021_May_24_1058,GazeFlow,2020.1.2,59.85503410075262,
7,Block810.xls,B,10,1,119,23,None,incongruent,Left,Right,Left,76,69,7,yellow,2,5,/home/docky/apps/exp/images/76Yi.jpeg,/home/docky/apps/exp/images/69Y.jpeg,0,6,6,6,0,0,0,0,885.6579838679754,None,885.6579838679754,None,1,4.74952407903038,885.6579838679754,None,890.4385651759803,None,890.4385651759803,None,892.9551109700114,None,892.9551109700114,None,1.400079214014113,894.7587131439941,None,894.7587131439941,None,5,1,0.8509793760022148,896.1442689640098,None,896.1442689640098,None,896.1442689640098,None,897.0120331639773,None,1,0.6843347999965772,897.0120331639773,None,38,897.7130832439871,None,112,B,1,2021_May_24_1058,GazeFlow,2020.1.2,59.85503410075262,
7,Block810.xls,B,10,2,43,43,None,congruent,Right,Right,Left,83,80,3,blue,2,5,/home/docky/apps/exp/images/83B.jpeg,/home/docky/apps/exp/images/80Bi.jpeg,0,6,6,6,0,1,1,1,898.7148857230204,None,898.7148857230204,None,1,4.811295912018977,898.7148857230204,None,903.5630492059863,None,903.5630492059863,None,906.0622598939808,None,906.0622598939808,None,1.267413477995433,907.8653294820106,None,907.8653294820106,None,5,1,0.967765273002442,909.1194039609982,None,909.1194039609982,None,909.1194039609982,None,910.1042671090108,None,1,0.801125944009982,910.1042671090108,None,40,910.9221816940117,None,112,B,1,2021_May_24_1058,GazeFlow,2020.1.2,59.85503410075262,
7,Block810.xls,B,10,3,53,53,None,congruent,Left,Left,Right,65,66,1,yellow,2,6,/home/docky/apps/exp/images/35Bi.jpeg,/home/docky/apps/exp/images/66Y.jpeg,0,6,6,6,0,2,2,2,911.9240319429664,None,911.9240319429664,None,1,4.559553164988756,911.9240319429664,None,916.5160280870041,None,916.5160280870041,None,919.0206184249837,None,919.0206184249837,None,1.2507539269863628,920.8257289130124,None,920.8257289130124,None,6,1,0.9016856870148331,922.0610740950215,None,922.0610740950215,None,922.0610740950215,None,922.9789525980013,None,1,0.6853318189969286,922.9789525980013,None,42,923.6805890820106,None,112,B,1,2021_May_24_1058,GazeFlow,2020.1.2,59.85503410075262,
7,Block810.xls,B,10,4,74,74,None,congruent,Right,Right,Left,35,33,2,yellow,2,5,/home/docky/apps/exp/images/35Y.jpeg,/home/docky/apps/exp/images/33Yi.jpeg,0,6,6,6,0,3,3,3,924.6822972139926,None,924.6822972139926,None,1,4.693538932013325,924.6822972139926,None,929.4093134489958,None,929.4093134489958,None,931.9153509429889,None,931.9153509429889,None,1.116828344995156,933.7148520930205,None,933.7148520930205,None,6,0,0.8343452360131778,934.8191755809821,None,934.8191755809821,None,934.8191755809821,None,935.6702285410138,None,1,0.5853058120119385,935.6702285410138,None,40,936.2718539420166,None,112,B,1,2021_May_24_1058,GazeFlow,2020.1.2,59.85503410075262,
7,Block810.xls,B,10,5,21,21,None,congruent,Left,Left,Right,76,79,3,blue,2,6,/home/docky/apps/exp/images/76B.jpeg,/home/docky/apps/exp/images/79Bi.jpeg,0,6,6,6,0,4,4,4,937.273454389011,None,937.273454389011,None,1,5.37902223697165,937.273454389011,None,942.6854544809903,None,942.6854544809903,None,945.1883352959994,None,945.1883352959994,None,1.4007946099736728,946.9913583319867,None,946.9913583319867,None,6,1,0.8179426179849543,948.3787636120105,None,948.3787636120105,None,948.3787636120105,None,949.2131801709766,None,1,0.6687169899814762,949.2131801709766,None,42,949.8983486549696,None,112,B,1,2021_May_24_1058,GazeFlow,2020.1.2,59.85503410075262,
7,Block810.xls,B,10,6,85,85,None,congruent,Right,Right,Left,75,69,6,yellow,2,5,/home/docky/apps/exp/images/76Y.jpeg,/home/docky/apps/exp/images/69Yi.jpeg,0,6,6,6,0,5,5,5,950.8998036310077,None,950.8998036310077,None,1,4.0421907879645005,950.8998036310077,None,954.9754741439829,None,954.9754741439829,None,957.4805084429681,None,957.4805084429681,None,1.1504884480382316,959.2825366330217,None,959.2825366330217,None,5,1,1.001524626975879,960.4187965249876,None,960.4187965249876,None,960.4187965249876,None,961.4371095449897,None,1,0.834614788996987,961.4371095449897,None,44,962.2885987799964,None,112,B,1,2021_May_24_1058,GazeFlow,2020.1.2,59.85503410075262,
7,Block810.xls,B,10,7,49,49,None,congruent,Left,Left,Right,33,35,2,yellow,2,6,/home/docky/apps/exp/images/33Yi.jpeg,/home/docky/apps/exp/images/35Y.jpeg,0,6,6,6,0,6,6,6,963.2909740770119,None,963.2909740770119,None,1,5.010153967014048,963.2909740770119,None,968.3349358480191,None,968.3349358480191,None,970.8394587889779,None,970.8394587889779,None,1.2342666309559718,972.6393713519792,None,972.6393713519792,None,5,0,0.9179893149994314,973.8617371169967,None,973.8617371169967,None,973.8617371169967,None,974.7962300729705,None,1,0.8350198300322518,974.7962300729705,None,42,975.6479184689815,None,112,B,1,2021_May_24_1058,GazeFlow,2020.1.2,59.85503410075262,
7,Block810.xls,B,10,8,63,63,None,congruent,Left,Left,Right,38,39,1,yellow,2,6,/home/docky/apps/exp/images/38Y.jpeg,/home/docky/apps/exp/images/39Yi.jpeg,0,6,6,6,0,7,7,7,976.6502696960233,None,976.6502696960233,None,1,4.32543980400078,976.6502696960233,None,981.0095338440151,None,981.0095338440151,None,983.514285177982,None,983.514285177982,None,1.1171149000292644,985.3178936350159,None,985.3178936350159,None,6,1,0.9345271490165032,986.4194886459736,None,986.4194886459736,None,986.4194886459736,None,987.3706049059983,None,1,0.785997266008053,987.3706049059983,None,44,988.1727114639943,None,112,B,1,2021_May_24_1058,GazeFlow,2020.1.2,59.85503410075262,
7,Block810.xls,B,,,,,,,,,,,,,,,,,,0,6,6,6,,,,,,,,,,,,,,,,,,,,,,,,,,,,,,,,,,,,,,,,,,,,112,B,1,2021_May_24_1058,GazeFlow,2020.1.2,59.85503410075262,
8,Block801.xls,B,1,1,1,1,None,congruent,Left,Left,Right,16,19,3,blue,2,6,/home/docky/apps/exp/images/16Bi.jpeg,/home/docky/apps/exp/images/19B.jpeg,0,7,7,7,0,0,0,0,1013.4510100369807,None,1013.4510100369807,None,1,4.588213573035318,1013.4510100369807,None,1018.0645405920222,None,1018.0645405920222,None,1020.586186052009,None,1020.586186052009,None,1.2166533659910783,1022.3900654999889,None,1022.3900654999889,None,5,0,0.9179187720292248,1023.5915707200184,None,1023.5915707200184,None,1023.5915707200184,None,1024.526161880989,None,1,0.7188124700332992,1024.526161880989,None,42,1025.2614089089911,None,112,B,1,2021_May_24_1058,GazeFlow,2020.1.2,59.85503410075262,
8,Block801.xls,B,1,2,105,9,None,incongruent,Left,Right,Left,79,73,6,blue,2,5,/home/docky/apps/exp/images/79B.jpeg,/home/docky/apps/exp/images/73Bi.jpeg,0,7,7,7,0,1,1,1,1026.262944918999,None,1026.262944918999,None,1,5.2779537799651735,1026.262944918999,None,1031.5744876309764,None,1031.5744876309764,None,1034.0775022759917,None,1034.0775022759917,None,1.6014461820013821,1035.8803986409912,None,1035.8803986409912,None,5,1,0.8519011180032976,1037.4687238229671,None,1037.4687238229671,None,1037.4687238229671,None,1038.3367881089798,None,1,0.6006911919685081,1038.3367881089798,None,44,1038.9541894500144,None,112,B,1,2021_May_24_1058,GazeFlow,2020.1.2,59.85503410075262,
8,Block801.xls,B,1,3,62,62,None,congruent,Left,Left,Right,38,39,1,yellow,2,6,/home/docky/apps/exp/images/38Y.jpeg,/home/docky/apps/exp/images/39Yi.jpeg,0,7,7,7,0,2,2,2,1039.956188287004,None,1039.956188287004,None,1,4.843407712003682,1039.956188287004,None,1044.8335249379743,None,1044.8335249379743,None,1047.3363996620174,None,1047.3363996620174,None,1.5177895040251315,1049.1400603479706,None,1049.1400603479706,None,6,1,0.8351909819757566,1050.6440710279858,None,1050.6440710279858,None,1050.6440710279858,None,1051.4957865140168,None,1,1.1182906850008294,1051.4957865140168,None,46,1052.630895033013,None,112,B,1,2021_May_24_1058,GazeFlow,2020.1.2,59.85503410075262,
8,Block801.xls,B,1,4,38,38,None,congruent,Right,Right,Left,79,73,6,blue,2,5,/home/docky/apps/exp/images/79B.jpeg,/home/docky/apps/exp/images/73Bi.jpeg,0,7,7,7,0,3,3,3,1053.632780059008,None,1053.632780059008,None,1,4.142072536051273,1053.632780059008,None,1057.8087424159748,None,1057.8087424159748,None,1060.3111281269812,None,1060.3111281269812,None,1.1001722289947793,1062.114949868992,None,1062.114949868992,None,5,1,0.8845948240486905,1063.2019274780178,None,1063.2019274780178,None,1063.2019274780178,None,1064.1029456930119,None,1,0.9684974419651553,1064.1029456930119,None,48,1065.0880826339708,None,112,B,1,2021_May_24_1058,GazeFlow,2020.1.2,59.85503410075262,
8,Block801.xls,B,1,5,6,6,None,congruent,Left,Left,Right,35,38,3,blue,2,6,/home/docky/apps/exp/images/35Bi.jpeg,/home/docky/apps/exp/images/38B.jpeg,0,7,7,7,0,4,4,4,1066.0907351290225,None,1066.0907351290225,None,1,4.375919318990782,1066.0907351290225,None,1070.4999285039958,None,1070.4999285039958,None,1073.003352632979,None,1073.003352632979,None,1.0332201640121639,1074.8081407739664,None,1074.8081407739664,None,6,1,0.9179125989903696,1075.8264248010237,None,1075.8264248010237,None,1075.8264248010237,None,1076.7609592379886,None,1,0.7186456000199541,1076.7609592379886,None,50,1077.4962536969688,None,112,B,1,2021_May_24_1058,GazeFlow,2020.1.2,59.85503410075262,
8,Block801.xls,B,1,6,51,51,None,congruent,Left,Left,Right,33,35,2,yellow,2,6,/home/docky/apps/exp/images/33Yi.jpeg,/home/docky/apps/exp/images/35Y.jpeg,0,7,7,7,0,5,5,5,1078.4976598839858,None,1078.4976598839858,None,1,4.192525428021327,1078.4976598839858,None,1082.723835145007,None,1082.723835145007,None,1085.2293440129724,None,1085.2293440129724,None,1.400941550033167,1087.0302743780194,None,1087.0302743780194,None,6,1,0.91801858501276,1088.417640587024,None,1088.417640587024,None,1088.417640587024,None,1089.352517332998,None,1,1.385704165964853,1089.352517332998,None,52,1090.7550442119827,None,112,B,1,2021_May_24_1058,GazeFlow,2020.1.2,59.85503410075262,
8,Block801.xls,B,1,7,73,73,None,congruent,Right,Right,Left,35,33,2,yellow,2,5,/home/docky/apps/exp/images/35Yi.jpeg,/home/docky/apps/exp/images/33Y.jpeg,0,7,7,7,0,6,6,6,1091.7573696739855,None,1091.7573696739855,None,1,4.275521968957037,1091.7573696739855,None,1096.0664763689856,None,1096.0664763689856,None,1098.5692159680184,None,1098.5692159680184,None,1.150504429009743,1100.3728670289856,None,1100.3728670289856,None,5,1,0.9513083670171909,1101.50979838497,None,1101.50979838497,None,1101.50979838497,None,1102.4776313360198,None,1,0.9853163060033694,1102.4776313360198,None,54,1103.4797390269814,None,112,B,1,2021_May_24_1058,GazeFlow,2020.1.2,59.85503410075262,
8,Block801.xls,B,1,8,96,96,None,congruent,Right,Right,Left,80,79,1,yellow,2,5,/home/docky/apps/exp/images/80Yi.jpeg,/home/docky/apps/exp/images/79Y.jpeg,0,7,7,7,0,7,7,7,1104.4815546529717,None,1104.4815546529717,None,1,5.177778634009883,1104.4815546529717,None,1109.6927756210207,None,1109.6927756210207,None,1112.195700561977,None,1112.195700561977,None,1.083579752012156,1113.9992655619862,None,1113.9992655619862,None,5,1,1.0681633630301803,1115.0694233970135,None,1115.0694233970135,None,1115.0694233970135,None,1116.1542354740086,None,1,0.7857314390130341,1116.1542354740086,None,56,1116.9557805639924,None,112,B,1,2021_May_24_1058,GazeFlow,2020.1.2,59.85503410075262,
8,Block801.xls,B,,,,,,,,,,,,,,,,,,0,7,7,7,,,,,,,,,,,,,,,,,,,,,,,,,,,,,,,,,,,,,,,,,,,,112,B,1,2021_May_24_1058,GazeFlow,2020.1.2,59.85503410075262,
9,Block802.xls,B,2,1,30,30,None,congruent,Right,Right,Left,38,35,3,blue,2,5,/home/docky/apps/exp/images/38B.jpeg,/home/docky/apps/exp/images/35Bi.jpeg,0,8,8,8,0,0,0,0,1140.7863218570128,None,1140.7863218570128,None,1,6.654772935959045,1140.7863218570128,None,1147.46213765,None,1147.46213765,None,1149.9855462369742,None,1149.9855462369742,None,1.4503907600301318,1151.7890969219734,None,1151.7890969219734,None,6,0,0.9016965050250292,1153.22679590201,None,1153.22679590201,None,1153.22679590201,None,1154.1449741260149,None,1,1.703132982016541,1154.1449741260149,None,54,1155.864723463019,None,112,B,1,2021_May_24_1058,GazeFlow,2020.1.2,59.85503410075262,
9,Block802.xls,B,2,2,5,5,None,congruent,Left,Left,Right,35,38,3,blue,2,6,/home/docky/apps/exp/images/35B.jpeg,/home/docky/apps/exp/images/38Bi.jpeg,0,8,8,8,0,1,1,1,1156.8671554439934,None,1156.8671554439934,None,1,4.943574471981265,1156.8671554439934,None,1161.8441704160068,None,1161.8441704160068,None,1164.3475228970055,None,1164.3475228970055,None,1.0168970749946311,1166.150929644995,None,1166.150929644995,None,6,1,0.868000774004031,1167.1538869129727,None,1167.1538869129727,None,1167.1538869129727,None,1168.0382464639843,None,1,0.7855224630329758,1168.0382464639843,None,56,1168.8404620949877,None,112,B,1,2021_May_24_1058,GazeFlow,2020.1.2,59.85503410075262,
9,Block802.xls,B,2,3,103,7,None,incongruent,Left,Right,Left,19,16,3,blue,2,5,/home/docky/apps/exp/images/19Bi.jpeg,/home/docky/apps/exp/images/16B.jpeg,0,8,8,8,0,2,2,2,1169.84183403902,None,1169.84183403902,None,1,4.760361399035901,1169.84183403902,None,1174.6358915069723,None,1174.6358915069723,None,1177.1389613220235,None,1177.1389613220235,None,1.2674920150311664,1178.942281376978,None,1178.942281376978,None,5,1,0.9679508159752004,1180.195665918989,None,1180.195665918989,None,1180.195665918989,None,1181.1805666540167,None,1,0.701480268035084,1181.1805666540167,None,58,1181.8985518969712,None,112,B,1,2021_May_24_1058,GazeFlow,2020.1.2,59.85503410075262,
9,Block802.xls,B,2,4,35,35,None,congruent,Right,Right,Left,66,65,1,blue,2,5,/home/docky/apps/exp/images/66B.jpeg,/home/docky/apps/exp/images/35Yi.jpeg,0,8,8,8,0,3,3,3,1182.9004289630102,None,1182.9004289630102,None,1,4.626563468948007,1182.9004289630102,None,1187.5605883870157,None,1187.5605883870157,None,1190.0634065869963,None,1190.0634065869963,None,1.4677419710205868,1191.8673527659848,None,1191.8673527659848,None,5,1,0.9853696700301953,1193.3214864659822,None,1193.3214864659822,None,1193.3214864659822,None,1194.323224887019,None,1,0.7176019389880821,1194.323224887019,None,60,1195.0575155609986,None,112,B,1,2021_May_24_1058,GazeFlow,2020.1.2,59.85503410075262,
9,Block802.xls,B,2,5,42,42,None,congruent,Right,Right,Left,83,80,3,blue,2,5,/home/docky/apps/exp/images/83Bi.jpeg,/home/docky/apps/exp/images/80B.jpeg,0,8,8,8,0,4,4,4,1196.0595267139724,None,1196.0595267139724,None,1,4.709790178982075,1196.0595267139724,None,1200.8028273269883,None,1200.8028273269883,None,1203.3076427929918,None,1203.3076427929918,None,1.5679311260464601,1205.109364398988,None,1205.109364398988,None,6,0,21.358153271023184,1206.664093528001,None,1206.664093528001,None,1206.664093528001,None,1228.0388249359676,None,1,2.154543935030233,1228.0388249359676,None,58,1230.2096556589822,None,112,B,1,2021_May_24_1058,GazeFlow,2020.1.2,59.85503410075262,
9,Block802.xls,B,2,6,104,8,None,incongruent,Left,Right,Left,38,35,3,blue,2,5,/home/docky/apps/exp/images/38B.jpeg,/home/docky/apps/exp/images/35Bi.jpeg,0,8,8,8,0,5,5,5,1231.2115391599946,None,1231.2115391599946,None,1,3.406915614963509,1231.2115391599946,None,1234.6504818879766,None,1234.6504818879766,None,1237.1571785850101,None,1237.1571785850101,None,1.434431217960082,1238.958881708968,None,1238.958881708968,None,6,0,1.5522833949653432,1240.3794712939998,None,1240.3794712939998,None,1240.3794712939998,None,1241.9487633869867,None,1,0.8850005710264668,1241.9487633869867,None,56,1242.8504435979994,None,112,B,1,2021_May_24_1058,GazeFlow,2020.1.2,59.85503410075262,
9,Block802.xls,B,2,7,22,22,None,congruent,Left,Left,Right,80,83,3,blue,2,6,/home/docky/apps/exp/images/80Bi.jpeg,/home/docky/apps/exp/images/83B.jpeg,0,8,8,8,0,6,6,6,1243.8528039060184,None,1243.8528039060184,None,1,4.20839901000727,1243.8528039060184,None,1248.09500024101,None,1248.09500024101,None,1250.5993525250233,None,1250.5993525250233,None,1.2672903829952702,1252.40111207898,None,1252.40111207898,None,5,0,0.9013266609981656,1253.6553421759745,None,1253.6553421759745,None,1253.6553421759745,None,1254.5728630920057,None,1,0.7852207309915684,1254.5728630920057,None,54,1255.3746458860114,None,112,B,1,2021_May_24_1058,GazeFlow,2020.1.2,59.85503410075262,
9,Block802.xls,B,2,8,54,54,None,congruent,Left,Left,Right,65,66,1,yellow,2,6,/home/docky/apps/exp/images/35Bi.jpeg,/home/docky/apps/exp/images/66Y.jpeg,0,8,8,8,0,7,7,7,1256.3763765890035,None,1256.3763765890035,None,1,11.690702669962775,1256.3763765890035,None,1268.1003718730062,None,1268.1003718730062,None,1270.6074609740172,None,1270.6074609740172,None,0.2986720569897443,1272.4068214480067,None,1272.4068214480067,None,5,0,7.3634443310438655,1272.6930116969743,None,1272.6930116969743,None,1272.6930116969743,None,1280.073147225019,None,1,0.6181292529799975,1280.073147225019,None,52,1280.7077352610067,None,112,B,1,2021_May_24_1058,GazeFlow,2020.1.2,59.85503410075262,
9,Block802.xls,B,,,,,,,,,,,,,,,,,,0,8,8,8,,,,,,,,,,,,,,,,,,,,,,,,,,,,,,,,,,,,,,,,,,,,112,B,1,2021_May_24_1058,GazeFlow,2020.1.2,59.85503410075262,
10,Block813.xls,B,13,1,70,70,None,congruent,Left,Left,Right,79,82,3,yellow,2,6,/home/docky/apps/exp/images/79Yi.jpeg,/home/docky/apps/exp/images/80Y.jpeg,0,9,9,9,0,0,0,0,1305.2402990480186,None,1305.2402990480186,None,1,4.630407443968579,1305.2402990480186,None,1309.9026912350091,None,1309.9026912350091,None,1312.4204050339758,None,1312.4204050339758,None,1.7182406620122492,1314.2233532409882,None,1314.2233532409882,None,5,0,1.6357580040348694,1315.9439985890058,None,1315.9439985890058,None,1315.9439985890058,None,1317.59584733902,None,1,1.2530476920073852,1317.59584733902,None,50,1318.8651186170173,None,112,B,1,2021_May_24_1058,GazeFlow,2020.1.2,59.85503410075262,
10,Block813.xls,B,13,2,60,60,None,congruent,Left,Left,Right,38,39,1,yellow,2,6,/home/docky/apps/exp/images/38Yi.jpeg,/home/docky/apps/exp/images/39Y.jpeg,0,9,9,9,0,1,1,1,1319.8672170009813,None,1319.8672170009813,None,1,6.246029031986836,1319.8672170009813,None,1326.1469601190183,None,1326.1469601190183,None,1328.651362376986,None,1328.651362376986,None,1.4682048310060054,1330.447874060017,None,1330.447874060017,None,6,1,1.085345256025903,1331.9242824980174,None,1331.9242824980174,None,1331.9242824980174,None,1333.0260876980028,None,1,0.9521687400410883,1333.0260876980028,None,52,1333.9945335239754,None,112,B,1,2021_May_24_1058,GazeFlow,2020.1.2,59.85503410075262,
10,Block813.xls,B,13,3,81,81,None,congruent,Right,Right,Left,66,65,1,yellow,2,5,/home/docky/apps/exp/images/66Y.jpeg,/home/docky/apps/exp/images/35Bi.jpeg,0,9,9,9,0,2,2,2,1334.9963650080026,None,1334.9963650080026,None,1,5.511179700959474,1334.9963650080026,None,1340.540882766014,None,1340.540882766014,None,1343.047589097987,None,1343.047589097987,None,3.7056040299939923,1344.8474271370214,None,1344.8474271370214,None,6,0,1.0852092300192453,1348.5395908369683,None,1348.5395908369683,None,1348.5395908369683,None,1349.6411472500185,None,1,1.4534990930114873,1349.6411472500185,None,50,1351.1111411320162,None,112,B,1,2021_May_24_1058,GazeFlow,2020.1.2,59.85503410075262,
10,Block813.xls,B,13,4,110,14,None,incongruent,Right,Left,Right,65,66,1,yellow,2,6,/home/docky/apps/exp/images/35B.jpeg,/home/docky/apps/exp/images/66Yi.jpeg,0,9,9,9,0,3,3,3,1352.1131450299872,None,1352.1131450299872,None,1,4.3920529640163295,1352.1131450299872,None,1356.538894629979,None,1356.538894629979,None,1359.0414391260128,None,1359.0414391260128,None,1.8685815570061095,1360.8452149779769,None,1360.8452149779769,None,6,1,0.968409149965737,1362.7004477430019,None,1362.7004477430019,None,1362.7004477430019,None,1363.685600575991,None,1,0.7677396009676158,1363.685600575991,None,52,1364.4699761099764,None,112,B,1,2021_May_24_1058,GazeFlow,2020.1.2,59.85503410075262,
10,Block813.xls,B,13,5,17,17,None,congruent,Left,Left,Right,73,76,3,blue,2,6,/home/docky/apps/exp/images/73Bi.jpeg,/home/docky/apps/exp/images/76B.jpeg,0,9,9,9,0,4,4,4,1365.4723498009844,None,1365.4723498009844,None,1,4.976985165034421,1365.4723498009844,None,1370.4828660659841,None,1370.4828660659841,None,1372.9875669030007,None,1372.9875669030007,None,1.567991720046848,1374.78946859797,None,1374.78946859797,None,6,1,0.8851119930041023,1376.343684941996,None,1376.343684941996,None,1376.343684941996,None,1377.2452288739732,None,1,1.753071793995332,1377.2452288739732,None,54,1379.0148458260228,None,112,B,1,2021_May_24_1058,GazeFlow,2020.1.2,59.85503410075262,
10,Block813.xls,B,13,6,111,15,None,incongruent,Right,Left,Right,62,65,3,yellow,2,6,/home/docky/apps/exp/images/38B.jpeg,/home/docky/apps/exp/images/35Bi.jpeg,0,9,9,9,0,5,5,5,1380.0173627209733,None,1380.0173627209733,None,1,4.558820286008995,1380.0173627209733,None,1384.6099987499765,None,1384.6099987499765,None,1387.1130170469987,None,1387.1130170469987,None,1.2504795049899258,1388.9179277259973,None,1388.9179277259973,None,6,1,0.8508365720044822,1390.1540385229746,None,1390.1540385229746,None,1390.1540385229746,None,1391.0214666009997,None,1,0.702394156018272,1391.0214666009997,None,56,1391.74007036502,None,112,B,1,2021_May_24_1058,GazeFlow,2020.1.2,59.85503410075262,
10,Block813.xls,B,13,7,55,55,None,congruent,Left,Left,Right,65,66,1,yellow,2,6,/home/docky/apps/exp/images/35B.jpeg,/home/docky/apps/exp/images/66Yi.jpeg,0,9,9,9,0,6,6,6,1392.7418111989973,None,1392.7418111989973,None,1,5.828455927025061,1392.7418111989973,None,1398.6038621669868,None,1398.6038621669868,None,1401.1087431259803,None,1401.1087431259803,None,1.4343557870015502,1402.9110257679713,None,1402.9110257679713,None,6,1,0.8845859990105964,1404.3315527929808,None,1404.3315527929808,None,1404.3315527929808,None,1405.2331509899814,None,1,1.0682593149831519,1405.2331509899814,None,58,1406.3178855699953,None,112,B,1,2021_May_24_1058,GazeFlow,2020.1.2,59.85503410075262,
10,Block813.xls,B,13,8,26,26,None,congruent,Right,Right,Left,19,16,3,blue,2,5,/home/docky/apps/exp/images/19B.jpeg,/home/docky/apps/exp/images/16Bi.jpeg,0,9,9,9,0,7,7,7,1407.320196043991,None,1407.320196043991,None,1,5.2441053470247425,1407.320196043991,None,1412.5979349139961,None,1412.5979349139961,None,1415.1008038090076,None,1415.1008038090076,None,1.8687174340011552,1416.9035484089982,None,1416.9035484089982,None,5,1,0.9184874059865251,1418.7594384009717,None,1418.7594384009717,None,1418.7594384009717,None,1419.6943342789891,None,1,0.7346983759780414,1419.6943342789891,None,60,1420.4450442909729,None,112,B,1,2021_May_24_1058,GazeFlow,2020.1.2,59.85503410075262,
10,Block813.xls,B,,,,,,,,,,,,,,,,,,0,9,9,9,,,,,,,,,,,,,,,,,,,,,,,,,,,,,,,,,,,,,,,,,,,,112,B,1,2021_May_24_1058,GazeFlow,2020.1.2,59.85503410075262,
11,Block806.xls,B,6,1,10,10,None,congruent,Left,Left,Right,65,66,1,blue,2,6,/home/docky/apps/exp/images/35Y.jpeg,/home/docky/apps/exp/images/66Bi.jpeg,0,10,10,10,0,0,0,0,1440.352712685999,None,1440.352712685999,None,1,4.7981325119617395,1440.352712685999,None,1445.180711428984,None,1445.180711428984,None,1447.6994375949726,None,1447.6994375949726,None,1.500735609966796,1449.4967010859982,None,1449.4967010859982,None,6,1,1.1855335729778744,1450.9887131960131,None,1450.9887131960131,None,1450.9887131960131,None,1452.190743551997,None,1,0.9515890920301899,1452.190743551997,None,62,1453.158836385992,None,112,B,1,2021_May_24_1058,GazeFlow,2020.1.2,59.85503410075262,
11,Block806.xls,B,6,2,89,89,None,congruent,Right,Right,Left,76,69,7,yellow,2,5,/home/docky/apps/exp/images/76Yi.jpeg,/home/docky/apps/exp/images/69Y.jpeg,0,10,10,10,0,1,1,1,1454.1611769570154,None,1454.1611769570154,None,1,7.999276396993082,1454.1611769570154,None,1462.191927596985,None,1462.191927596985,None,1464.697317689017,None,1464.697317689017,None,1.317420031002257,1466.4951086119981,None,1466.4951086119981,None,5,1,0.9521389290457591,1467.8044834319735,None,1467.8044834319735,None,1467.8044834319735,None,1468.77318976901,None,1,1.352103429962881,1468.77318976901,None,64,1470.141763351974,None,112,B,1,2021_May_24_1058,GazeFlow,2020.1.2,59.85503410075262,
11,Block806.xls,B,6,3,88,88,None,congruent,Right,Right,Left,76,69,7,yellow,2,5,/home/docky/apps/exp/images/76Y.jpeg,/home/docky/apps/exp/images/69Yi.jpeg,0,10,10,10,0,2,2,2,1471.1443136020098,None,1471.1443136020098,None,1,3.9246060729492456,1471.1443136020098,None,1475.1028493960039,None,1475.1028493960039,None,1477.6074252839899,None,1477.6074252839899,None,1.4178235110011883,1479.4096284200205,None,1479.4096284200205,None,5,1,1.0686989999958314,1480.8133840530063,None,1480.8133840530063,None,1480.8133840530063,None,1481.8985557329725,None,1,0.8012392270029522,1481.8985557329725,None,66,1482.7164056180045,None,112,B,1,2021_May_24_1058,GazeFlow,2020.1.2,59.85503410075262,
11,Block806.xls,B,6,4,109,13,None,incongruent,Right,Left,Right,33,35,2,yellow,2,6,/home/docky/apps/exp/images/33Yi.jpeg,/home/docky/apps/exp/images/35Y.jpeg,0,10,10,10,0,3,3,3,1483.7187508689822,None,1483.7187508689822,None,1,5.077169610012788,1483.7187508689822,None,1488.8278012520168,None,1488.8278012520168,None,1491.3325215959921,None,1491.3325215959921,None,1.4677116409875453,1493.1351798200049,None,1493.1351798200049,None,5,0,0.8511413980158977,1494.590029576968,None,1494.590029576968,None,1494.590029576968,None,1495.4582186610205,None,1,1.1852066990104504,1495.4582186610205,None,64,1496.660123627982,None,112,B,1,2021_May_24_1058,GazeFlow,2020.1.2,59.85503410075262,
11,Block806.xls,B,6,5,37,37,None,congruent,Right,Right,Left,79,73,6,blue,2,5,/home/docky/apps/exp/images/79Bi.jpeg,/home/docky/apps/exp/images/73B.jpeg,0,10,10,10,0,4,4,4,1497.6626073410152,None,1497.6626073410152,None,1,4.375165409001056,1497.6626073410152,None,1502.0717010059743,None,1502.0717010059743,None,1504.5750783910044,None,1504.5750783910044,None,1.1337134719942696,1506.378200666979,None,1506.378200666979,None,5,1,1.2025743969716132,1507.4983988779713,None,1507.4983988779713,None,1507.4983988779713,None,1508.7172595309676,None,1,0.7680257780011743,1508.7172595309676,None,66,1509.5015723020188,None,112,B,1,2021_May_24_1058,GazeFlow,2020.1.2,59.85503410075262,
11,Block806.xls,B,6,6,108,12,None,incongruent,Left,Right,Left,39,38,1,blue,2,5,/home/docky/apps/exp/images/39Bi.jpeg,/home/docky/apps/exp/images/38B.jpeg,0,10,10,10,0,5,5,5,1510.503790510993,None,1510.503790510993,None,1,5.394516226020642,1510.503790510993,None,1515.9320383340237,None,1515.9320383340237,None,1518.4367802420165,None,1518.4367802420165,None,1.3012573580490425,1520.2381750809727,None,1520.2381750809727,None,5,1,1.0018649389967322,1521.5256399710197,None,1521.5256399710197,None,1521.5256399710197,None,1522.543633510999,None,1,0.7517560250125825,1522.543633510999,None,68,1523.3118307379773,None,112,B,1,2021_May_24_1058,GazeFlow,2020.1.2,59.85503410075262,
11,Block806.xls,B,6,7,52,52,None,congruent,Left,Left,Right,65,66,1,yellow,2,6,/home/docky/apps/exp/images/35B.jpeg,/home/docky/apps/exp/images/66Yi.jpeg,0,10,10,10,0,6,6,6,1524.3145154869999,None,1524.3145154869999,None,1,4.341606328031048,1524.3145154869999,None,1528.6897123180097,None,1528.6897123180097,None,1531.1973732839688,None,1531.1973732839688,None,1.6182820289977826,1532.996272045013,None,1532.996272045013,None,5,0,1.034672467969358,1534.6011787860189,None,1534.6011787860189,None,1534.6011787860189,None,1535.6524009860004,None,1,0.7015939839766361,1535.6524009860004,None,66,1536.370562414988,None,112,B,1,2021_May_24_1058,GazeFlow,2020.1.2,59.85503410075262,
11,Block806.xls,B,6,8,75,75,None,congruent,Right,Right,Left,35,33,2,yellow,2,5,/home/docky/apps/exp/images/35Yi.jpeg,/home/docky/apps/exp/images/33Y.jpeg,0,10,10,10,0,7,7,7,1537.3728341539972,None,1537.3728341539972,None,1,5.0435936220455915,1537.3728341539972,None,1542.450092440995,None,1542.450092440995,None,1544.953603967966,None,1544.953603967966,None,2.2189603950246237,1546.7571003640187,None,1546.7571003640187,None,5,1,1.4522009789943695,1548.96231322299,None,1548.96231322299,None,1548.96231322299,None,1550.431326541002,None,1,0.7517294280114584,1550.431326541002,None,68,1551.1995967520052,None,112,B,1,2021_May_24_1058,GazeFlow,2020.1.2,59.85503410075262,
11,Block806.xls,B,,,,,,,,,,,,,,,,,,0,10,10,10,,,,,,,,,,,,,,,,,,,,,,,,,,,,,,,,,,,,,,,,,,,,112,B,1,2021_May_24_1058,GazeFlow,2020.1.2,59.85503410075262,
12,Block811.xls,B,11,1,86,86,None,congruent,Right,Right,Left,75,69,6,yellow,2,5,/home/docky/apps/exp/images/76Y.jpeg,/home/docky/apps/exp/images/69Yi.jpeg,0,11,11,11,0,0,0,0,1572.292941171967,None,1572.292941171967,None,1,5.530691453022882,1572.292941171967,None,1577.8481593289762,None,1577.8481593289762,None,1580.3738959120237,None,1580.3738959120237,None,1.3335221949964762,1582.1755634319852,None,1582.1755634319852,None,5,1,1.001851484994404,1583.4960098380107,None,1583.4960098380107,None,1583.4960098380107,None,1584.5146086679888,None,1,1.485505037009716,1584.5146086679888,None,70,1586.0167697590077,None,112,B,1,2021_May_24_1058,GazeFlow,2020.1.2,59.85503410075262,
12,Block811.xls,B,11,2,83,83,None,congruent,Right,Right,Left,75,69,6,yellow,2,5,/home/docky/apps/exp/images/76Yi.jpeg,/home/docky/apps/exp/images/69Y.jpeg,0,11,11,11,0,1,1,1,1587.0192252129782,None,1587.0192252129782,None,1,3.974742738995701,1587.0192252129782,None,1591.02787476097,None,1591.02787476097,None,1593.5327470090124,None,1593.5327470090124,None,1.467922968964558,1595.3360415089992,None,1595.3360415089992,None,5,1,1.0192049350007437,1596.7885609110235,None,1596.7885609110235,None,1596.7885609110235,None,1597.8237673389958,None,1,1.3522256930009462,1597.8237673389958,None,72,1599.1927447459893,None,112,B,1,2021_May_24_1058,GazeFlow,2020.1.2,59.85503410075262,
12,Block811.xls,B,11,3,28,28,None,congruent,Right,Right,Left,38,35,3,blue,2,5,/home/docky/apps/exp/images/38Bi.jpeg,/home/docky/apps/exp/images/35B.jpeg,0,11,11,11,0,2,2,2,1600.1950185059686,None,1600.1950185059686,None,1,4.625862055981997,1600.1950185059686,None,1604.854716664995,None,1604.854716664995,None,1607.3573167949799,None,1607.3573167949799,None,1.1672334180329926,1609.1607052829931,None,1609.1607052829931,None,5,1,0.9345908950199373,1610.3148591549834,None,1610.3148591549834,None,1610.3148591549834,None,1611.2659726800048,None,1,0.9356546779745258,1611.2659726800048,None,74,1612.2178154200083,None,112,B,1,2021_May_24_1058,GazeFlow,2020.1.2,59.85503410075262,
12,Block811.xls,B,11,4,58,58,None,congruent,Left,Left,Right,62,65,3,yellow,2,6,/home/docky/apps/exp/images/38B.jpeg,/home/docky/apps/exp/images/35Bi.jpeg,0,11,11,11,0,3,3,3,1613.2197786389734,None,1613.2197786389734,None,1,3.991882796981372,1613.2197786389734,None,1617.2455312630045,None,1617.2455312630045,None,1619.7484377759974,None,1619.7484377759974,None,1.1336515209986828,1621.5470985979773,None,1621.5470985979773,None,6,1,0.9514303000178188,1622.6719199839863,None,1622.6719199839863,None,1622.6719199839863,None,1623.6400044289767,None,1,0.9022132579702884,1623.6400044289767,None,76,1624.558404675976,None,112,B,1,2021_May_24_1058,GazeFlow,2020.1.2,59.85503410075262,
12,Block811.xls,B,11,5,32,32,None,congruent,Right,Right,Left,66,65,1,blue,2,5,/home/docky/apps/exp/images/66Bi.jpeg,/home/docky/apps/exp/images/35Y.jpeg,0,11,11,11,0,4,4,4,1625.560693745967,None,1625.560693745967,None,1,4.743176685995422,1625.560693745967,None,1630.3375558459666,None,1630.3375558459666,None,1632.842195292993,None,1632.842195292993,None,1.4010164520004764,1634.6427150910022,None,1634.6427150910022,None,6,0,0.9018261829623953,1636.0315574440174,None,1636.0315574440174,None,1636.0315574440174,None,1636.9496247649658,None,1,0.6674259200226516,1636.9496247649658,None,74,1637.633774145972,None,112,B,1,2021_May_24_1058,GazeFlow,2020.1.2,59.85503410075262,
12,Block811.xls,B,11,6,67,67,None,congruent,Left,Left,Right,72,77,5,yellow,2,6,/home/docky/apps/exp/images/72Y.jpeg,/home/docky/apps/exp/images/77Yi.jpeg,0,11,11,11,0,5,5,5,1638.6360699139768,None,1638.6360699139768,None,1,4.609485235996544,1638.6360699139768,None,1643.2795825389912,None,1643.2795825389912,None,1645.7818882510182,None,1645.7818882510182,None,1.5677910899976268,1647.5799762019888,None,1647.5799762019888,None,6,1,0.9021724349586293,1649.1401324039907,None,1649.1401324039907,None,1649.1401324039907,None,1650.0584878569935,None,1,1.0850571610499173,1650.0584878569935,None,76,1651.159912388015,None,112,B,1,2021_May_24_1058,GazeFlow,2020.1.2,59.85503410075262,
12,Block811.xls,B,11,7,120,24,None,incongruent,Left,Right,Left,77,72,5,yellow,2,5,/home/docky/apps/exp/images/77Y.jpeg,/home/docky/apps/exp/images/72Yi.jpeg,0,11,11,11,0,6,6,6,1652.1626348510035,None,1652.1626348510035,None,1,3.5071608180296607,1652.1626348510035,None,1655.7034707490238,None,1655.7034707490238,None,1658.206492370984,None,1658.206492370984,None,1.1673525479855016,1660.0120012550033,None,1660.0120012550033,None,5,1,1.0185995529755019,1661.163450698019,None,1661.163450698019,None,1661.163450698019,None,1662.198344837001,None,1,0.6351933230180293,1662.198344837001,None,78,1662.8500059329672,None,112,B,1,2021_May_24_1058,GazeFlow,2020.1.2,59.85503410075262,
12,Block811.xls,B,11,8,57,57,None,congruent,Left,Left,Right,62,65,3,yellow,2,6,/home/docky/apps/exp/images/38Bi.jpeg,/home/docky/apps/exp/images/35B.jpeg,0,11,11,11,0,7,7,7,1663.851490675006,None,1663.851490675006,None,1,4.960992134991102,1663.851490675006,None,1668.8459580269991,None,1668.8459580269991,None,1671.3478762719897,None,1671.3478762719897,None,1.8183843370061368,1673.1517752439831,None,1673.1517752439831,None,6,1,1.1020757229998708,1674.957160342019,None,1674.957160342019,None,1674.957160342019,None,1676.0754095989978,None,1,0.5509970059501939,1676.0754095989978,None,80,1676.643030976993,None,112,B,1,2021_May_24_1058,GazeFlow,2020.1.2,59.85503410075262,
12,Block811.xls,B,,,,,,,,,,,,,,,,,,0,11,11,11,,,,,,,,,,,,,,,,,,,,,,,,,,,,,,,,,,,,,,,,,,,,112,B,1,2021_May_24_1058,GazeFlow,2020.1.2,59.85503410075262,
13,Block808.xls,B,8,1,118,22,None,incongruent,Left,Right,Left,75,69,6,yellow,2,5,/home/docky/apps/exp/images/76Y.jpeg,/home/docky/apps/exp/images/69Yi.jpeg,0,12,12,12,0,0,0,0,1697.4179500790196,None,1697.4179500790196,None,1,4.345386783999857,1697.4179500790196,None,1701.7940404139808,None,1701.7940404139808,None,1704.3146148439846,None,1704.3146148439846,None,1.3999570369487628,1706.101590469014,None,1706.101590469014,None,5,1,0.8846485360409133,1707.4869905610103,None,1707.4869905610103,None,1707.4869905610103,None,1708.3881613590056,None,1,0.7683154719998129,1708.3881613590056,None,82,1709.1732409480028,None,112,B,1,2021_May_24_1058,GazeFlow,2020.1.2,59.85503410075262,
13,Block808.xls,B,8,2,7,7,None,congruent,Left,Left,Right,65,66,1,blue,2,6,/home/docky/apps/exp/images/35Yi.jpeg,/home/docky/apps/exp/images/66B.jpeg,0,12,12,12,0,1,1,1,1710.1754177779658,None,1710.1754177779658,None,1,5.126744340988807,1710.1754177779658,None,1715.3391745429835,None,1715.3391745429835,None,1717.8394666889799,None,1717.8394666889799,None,1.3844181189779192,1719.6408807699918,None,1719.6408807699918,None,5,0,1.0687771430239081,1721.0133334290003,None,1721.0133334290003,None,1721.0133334290003,None,1722.098507668008,None,1,0.8180949880043045,1722.098507668008,None,80,1722.9329681639792,None,112,B,1,2021_May_24_1058,GazeFlow,2020.1.2,59.85503410075262,
13,Block808.xls,B,8,3,112,16,None,incongruent,Right,Left,Right,69,76,7,yellow,2,6,/home/docky/apps/exp/images/69Yi.jpeg,/home/docky/apps/exp/images/76Y.jpeg,0,12,12,12,0,2,2,2,1723.9354779580026,None,1723.9354779580026,None,1,4.225210628006607,1723.9354779580026,None,1728.1944052350009,None,1728.1944052350009,None,1730.6974186860025,None,1730.6974186860025,None,1.5017640290316194,1732.4950565879699,None,1732.4950565879699,None,6,1,0.8517129920073785,1733.9883629260003,None,1733.9883629260003,None,1733.9883629260003,None,1734.8564746240154,None,1,0.5850851919967681,1734.8564746240154,None,82,1735.4573352090083,None,112,B,1,2021_May_24_1058,GazeFlow,2020.1.2,59.85503410075262,
13,Block808.xls,B,8,4,97,1,None,incongruent,Right,Left,Right,16,19,3,blue,2,6,/home/docky/apps/exp/images/16Bi.jpeg,/home/docky/apps/exp/images/19B.jpeg,0,12,12,12,0,3,3,3,1736.4592511900119,None,1736.4592511900119,None,1,4.59285464201821,1736.4592511900119,None,1741.0839150300017,None,1741.0839150300017,None,1743.5909578789724,None,1743.5909578789724,None,1.8181646809680387,1745.393050624989,None,1745.393050624989,None,6,1,0.8515122820390388,1747.1974768149666,None,1747.1974768149666,None,1747.1974768149666,None,1748.0656304949662,None,1,0.884846382017713,1748.0656304949662,None,84,1748.9666959799943,None,112,B,1,2021_May_24_1058,GazeFlow,2020.1.2,59.85503410075262,
13,Block808.xls,B,8,5,24,24,None,congruent,Left,Left,Right,80,83,3,blue,2,6,/home/docky/apps/exp/images/80Bi.jpeg,/home/docky/apps/exp/images/83B.jpeg,0,12,12,12,0,4,4,4,1749.9691432319814,None,1749.9691432319814,None,1,4.242075223010033,1749.9691432319814,None,1754.2445438680006,None,1754.2445438680006,None,1756.7497297759983,None,1756.7497297759983,None,1.88526259601349,1758.546079340973,None,1758.546079340973,None,6,1,0.9017319480190054,1760.4230065349839,None,1760.4230065349839,None,1760.4230065349839,None,1761.341305140988,None,1,0.867784286965616,1761.341305140988,None,86,1762.2259552999749,None,112,B,1,2021_May_24_1058,GazeFlow,2020.1.2,59.85503410075262,
13,Block808.xls,B,8,6,13,13,None,congruent,Left,Left,Right,38,39,1,blue,2,6,/home/docky/apps/exp/images/38Bi.jpeg,/home/docky/apps/exp/images/39B.jpeg,0,12,12,12,0,5,5,5,1763.228399191983,None,1763.228399191983,None,1,3.9913037630030885,1763.228399191983,None,1767.253574569011,None,1767.253574569011,None,1769.7602962530218,None,1769.7602962530218,None,1.4171865649987012,1771.5552273970097,None,1771.5552273970097,None,6,1,0.8679543889593333,1772.9639447299996,None,1772.9639447299996,None,1772.9639447299996,None,1773.8484866329818,None,1,1.0358641229686327,1773.8484866329818,None,88,1774.9006233600085,None,112,B,1,2021_May_24_1058,GazeFlow,2020.1.2,59.85503410075262,
13,Block808.xls,B,8,7,8,8,None,congruent,Left,Left,Right,65,66,1,blue,2,6,/home/docky/apps/exp/images/35Y.jpeg,/home/docky/apps/exp/images/66Bi.jpeg,0,12,12,12,0,6,6,6,1775.9027169729816,None,1775.9027169729816,None,1,4.208743864030112,1775.9027169729816,None,1780.1483961149934,None,1780.1483961149934,None,1782.648127847002,None,1782.648127847002,None,1.2339454309549183,1784.4468067879789,None,1784.4468067879789,None,5,0,0.8011561140301637,1785.6721079060226,None,1785.6721079060226,None,1785.6721079060226,None,1786.4897657179972,None,1,0.7354613320203498,1786.4897657179972,None,86,1787.2415961769875,None,112,B,1,2021_May_24_1058,GazeFlow,2020.1.2,59.85503410075262,
13,Block808.xls,B,8,8,31,31,None,congruent,Right,Right,Left,66,65,1,blue,2,5,/home/docky/apps/exp/images/66B.jpeg,/home/docky/apps/exp/images/35Yi.jpeg,0,12,12,12,0,7,7,7,1788.243287906982,None,1788.243287906982,None,1,46.1571729350253,1788.243287906982,None,1834.4339149469743,None,1834.4339149469743,None,1836.9369324690197,None,1836.9369324690197,None,1.2672593609895557,1838.740645125974,None,1838.740645125974,None,5,1,1.0853882090304978,1839.9942749839975,None,1839.9942749839975,None,1839.9942749839975,None,1841.0963055419852,None,1,1.1686059950152412,1841.0963055419852,None,88,1842.2814788770047,None,112,B,1,2021_May_24_1058,GazeFlow,2020.1.2,59.85503410075262,
13,Block808.xls,B,,,,,,,,,,,,,,,,,,0,12,12,12,,,,,,,,,,,,,,,,,,,,,,,,,,,,,,,,,,,,,,,,,,,,112,B,1,2021_May_24_1058,GazeFlow,2020.1.2,59.85503410075262,
14,Block815.xls,B,15,1,65,65,None,congruent,Left,Left,Right,69,76,7,yellow,2,6,/home/docky/apps/exp/images/69Yi.jpeg,/home/docky/apps/exp/images/76Y.jpeg,0,13,13,13,0,0,0,0,1877.2346940930001,None,1877.2346940930001,None,1,4.8331187380244955,1877.2346940930001,None,1882.0963894239976,None,1882.0963894239976,None,1884.613167472009,None,1884.613167472009,None,1.166944678989239,1886.4163395459764,None,1886.4163395459764,None,6,1,1.0349991630064324,1887.569983132009,None,1887.569983132009,None,1887.569983132009,None,1888.6212709239917,None,1,1.3696177990059368,1888.6212709239917,None,90,1890.007415916014,None,112,B,1,2021_May_24_1058,GazeFlow,2020.1.2,59.85503410075262,
14,Block815.xls,B,15,2,102,6,None,incongruent,Right,Left,Right,80,83,3,blue,2,6,/home/docky/apps/exp/images/80B.jpeg,/home/docky/apps/exp/images/83Bi.jpeg,0,13,13,13,0,1,1,1,1891.0096701880102,None,1891.0096701880102,None,1,4.4095227509969845,1891.0096701880102,None,1895.4523914129823,None,1895.4523914129823,None,1897.9556246079737,None,1897.9556246079737,None,1.165967722015921,1899.7611061829957,None,1899.7611061829957,None,6,1,0.834279366012197,1900.9126411430188,None,1900.9126411430188,None,1900.9126411430188,None,1901.7636689299834,None,1,0.6686285060131922,1901.7636689299834,None,92,1902.4486971289734,None,112,B,1,2021_May_24_1058,GazeFlow,2020.1.2,59.85503410075262,
14,Block815.xls,B,15,3,33,33,None,congruent,Right,Right,Left,66,65,1,blue,2,5,/home/docky/apps/exp/images/66Bi.jpeg,/home/docky/apps/exp/images/35Y.jpeg,0,13,13,13,0,2,2,2,1903.450550530979,None,1903.450550530979,None,1,4.075150012969971,1903.450550530979,None,1907.5594218759798,None,1907.5594218759798,None,1910.0623165009893,None,1910.0623165009893,None,1.3340022769989446,1911.866201855999,None,1911.866201855999,None,6,0,0.8340645889984444,1913.1865461649722,None,1913.1865461649722,None,1913.1865461649722,None,1914.0376583060133,None,1,0.6017675190232694,1914.0376583060133,None,90,1914.6558262699982,None,112,B,1,2021_May_24_1058,GazeFlow,2020.1.2,59.85503410075262,
14,Block815.xls,B,15,4,72,72,None,congruent,Left,Left,Right,79,82,3,yellow,2,6,/home/docky/apps/exp/images/79Yi.jpeg,/home/docky/apps/exp/images/80Y.jpeg,0,13,13,13,0,3,3,3,1915.6573200969724,None,1915.6573200969724,None,1,3.674816553015262,1915.6573200969724,None,1919.366382091015,None,1919.366382091015,None,1921.8705556609784,None,1921.8705556609784,None,1.5845366179710254,1923.6721724920208,None,1923.6721724920208,None,5,0,0.78457655798411,1925.2432997109718,None,1925.2432997109718,None,1925.2432997109718,None,1926.0446108190226,None,1,0.7009658219758421,1926.0446108190226,None,88,1926.762292961008,None,112,B,1,2021_May_24_1058,GazeFlow,2020.1.2,59.85503410075262,
14,Block815.xls,B,15,5,100,4,None,incongruent,Right,Left,Right,73,76,3,blue,2,6,/home/docky/apps/exp/images/73B.jpeg,/home/docky/apps/exp/images/76Bi.jpeg,0,13,13,13,0,4,4,4,1927.7644436670234,None,1927.7644436670234,None,1,5.060763506975491,1927.7644436670234,None,1932.8585091889836,None,1932.8585091889836,None,1935.3617694550194,None,1935.3617694550194,None,1.2508082250133157,1937.1654932320234,None,1937.1654932320234,None,5,0,0.8843853750149719,1938.402164358995,None,1938.402164358995,None,1938.402164358995,None,1939.3032469379832,None,1,2.4721659130300395,1939.3032469379832,None,86,1941.7918670159997,None,112,B,1,2021_May_24_1058,GazeFlow,2020.1.2,59.85503410075262,
14,Block815.xls,B,15,6,45,45,None,congruent,Right,Right,Left,39,38,1,blue,2,5,/home/docky/apps/exp/images/39B.jpeg,/home/docky/apps/exp/images/38Bi.jpeg,0,13,13,13,0,5,5,5,1942.793781935994,None,1942.793781935994,None,1,4.509088538005017,1942.793781935994,None,1947.336736568017,None,1947.336736568017,None,1949.8398837699788,None,1949.8398837699788,None,1.7184382270206697,1951.6405054039788,None,1951.6405054039788,None,6,0,0.9019296170445159,1953.3475557559868,None,1953.3475557559868,None,1953.3475557559868,None,1954.2659577989834,None,1,1.118689319002442,1954.2659577989834,None,84,1955.4011699400144,None,112,B,1,2021_May_24_1058,GazeFlow,2020.1.2,59.85503410075262,
14,Block815.xls,B,15,7,98,2,None,incongruent,Right,Left,Right,35,38,3,blue,2,6,/home/docky/apps/exp/images/35Bi.jpeg,/home/docky/apps/exp/images/38B.jpeg,0,13,13,13,0,6,6,6,1956.4036264289753,None,1956.4036264289753,None,1,4.141626529977657,1956.4036264289753,None,1960.579133334977,None,1960.579133334977,None,1963.086475868011,None,1963.086475868011,None,1.417614968959242,1964.8860284260008,None,1964.8860284260008,None,5,0,1.0184219679795206,1966.2897293809801,None,1966.2897293809801,None,1966.2897293809801,None,1967.3248046499793,None,1,1.0516581669799052,1967.3248046499793,None,82,1968.392942284001,None,112,B,1,2021_May_24_1058,GazeFlow,2020.1.2,59.85503410075262,
14,Block815.xls,B,15,8,59,59,None,congruent,Left,Left,Right,38,39,1,yellow,2,6,/home/docky/apps/exp/images/38Yi.jpeg,/home/docky/apps/exp/images/39Y.jpeg,0,13,13,13,0,7,7,7,1969.3954116990208,None,1969.3954116990208,None,1,5.444294210989028,1969.3954116990208,None,1974.8735086909728,None,1974.8735086909728,None,1977.3766964959796,None,1977.3766964959796,None,2.152464332000818,1979.179970897967,None,1979.179970897967,None,5,0,0.9349878689972684,1981.3187192920013,None,1981.3187192920013,None,1981.3187192920013,None,1982.2703008200042,None,1,0.8849058480118401,1982.2703008200042,None,80,1983.171893308987,None,112,B,1,2021_May_24_1058,GazeFlow,2020.1.2,59.85503410075262,
14,Block815.xls,B,,,,,,,,,,,,,,,,,,0,13,13,13,,,,,,,,,,,,,,,,,,,,,,,,,,,,,,,,,,,,,,,,,,,,112,B,1,2021_May_24_1058,GazeFlow,2020.1.2,59.85503410075262,
15,Block807.xls,B,7,1,71,71,None,congruent,Left,Left,Right,79,82,3,yellow,2,6,/home/docky/apps/exp/images/79Y.jpeg,/home/docky/apps/exp/images/80Yi.jpeg,0,14,14,14,0,0,0,0,2003.9135609950172,None,2003.9135609950172,None,1,4.2483866879483685,2003.9135609950172,None,2008.1871707990067,None,2008.1871707990067,None,2010.709767274966,None,2010.709767274966,None,1.7675882239709608,2012.5068151489832,None,2012.5068151489832,None,6,1,0.8686062279739417,2014.266252327012,None,2014.266252327012,None,2014.266252327012,None,2015.1505807010108,None,1,1.1856338279903866,2015.1505807010108,None,82,2016.352973577974,None,112,B,1,2021_May_24_1058,GazeFlow,2020.1.2,59.85503410075262,
15,Block807.xls,B,7,2,44,44,None,congruent,Right,Right,Left,83,80,3,blue,2,5,/home/docky/apps/exp/images/83Bi.jpeg,/home/docky/apps/exp/images/80B.jpeg,0,14,14,14,0,1,1,1,2017.3553374650073,None,2017.3553374650073,None,1,4.943180154019501,2017.3553374650073,None,2022.3323709180113,None,2022.3323709180113,None,2024.8350187019678,None,2024.8350187019678,None,1.4175345320254564,2026.637077382009,None,2026.637077382009,None,5,1,0.9858700719778426,2028.0427384449868,None,2028.0427384449868,None,2028.0427384449868,None,2029.0445427260129,None,1,1.4691013650153764,2029.0445427260129,None,84,2030.5305233059917,None,112,B,1,2021_May_24_1058,GazeFlow,2020.1.2,59.85503410075262,
15,Block807.xls,B,7,3,48,48,None,congruent,Right,Right,Left,39,38,1,blue,2,5,/home/docky/apps/exp/images/39Bi.jpeg,/home/docky/apps/exp/images/38B.jpeg,0,14,14,14,0,2,2,2,2031.5329296949785,None,2031.5329296949785,None,1,4.475907870975789,2031.5329296949785,None,2036.0421910940204,None,2036.0421910940204,None,2038.5444748359732,None,2038.5444748359732,None,2.7707595819956623,2040.348378174007,None,2040.348378174007,None,5,1,1.0359811650123447,2043.121117267001,None,2043.121117267001,None,2043.121117267001,None,2044.1735009750118,None,1,0.8019068929716013,2044.1735009750118,None,86,2044.992383416975,None,112,B,1,2021_May_24_1058,GazeFlow,2020.1.2,59.85503410075262,
15,Block807.xls,B,7,4,113,17,None,incongruent,Right,Left,Right,72,77,5,yellow,2,6,/home/docky/apps/exp/images/72Yi.jpeg,/home/docky/apps/exp/images/77Y.jpeg,0,14,14,14,0,3,3,3,2045.9942767280154,None,2045.9942767280154,None,1,4.40918994997628,2045.9942767280154,None,2050.4395773269935,None,2050.4395773269935,None,2052.941418553004,None,2052.941418553004,None,1.3341297499719076,2054.743149615999,None,2054.743149615999,None,6,1,0.9355471049784683,2056.0637561560143,None,2056.0637561560143,None,2056.0637561560143,None,2057.015930189984,None,1,1.0349413939984515,2057.015930189984,None,88,2058.0670276570017,None,112,B,1,2021_May_24_1058,GazeFlow,2020.1.2,59.85503410075262,
15,Block807.xls,B,7,5,69,69,None,congruent,Left,Left,Right,72,77,5,yellow,2,6,/home/docky/apps/exp/images/72Y.jpeg,/home/docky/apps/exp/images/77Yi.jpeg,0,14,14,14,0,4,4,4,2059.069529653003,None,2059.069529653003,None,1,4.091434574977029,2059.069529653003,None,2063.193423171004,None,2063.193423171004,None,2065.7008885340183,None,2065.7008885340183,None,1.1337995110079646,2067.4950587190106,None,2067.4950587190106,None,6,1,1.051701107993722,2068.621728872007,None,2068.621728872007,None,2068.621728872007,None,2069.689905848005,None,1,1.052056309999898,2069.689905848005,None,90,2070.758592066006,None,112,B,1,2021_May_24_1058,GazeFlow,2020.1.2,59.85503410075262,
15,Block807.xls,B,7,6,39,39,None,congruent,Right,Right,Left,79,76,3,blue,2,5,/home/docky/apps/exp/images/79B.jpeg,/home/docky/apps/exp/images/76Bi.jpeg,0,14,14,14,0,5,5,5,2071.7608285140013,None,2071.7608285140013,None,1,4.308694540988654,2071.7608285140013,None,2076.101883079973,None,2076.101883079973,None,2078.607961800997,None,2078.607961800997,None,1.3507965420139953,2080.4103587769787,None,2080.4103587769787,None,5,1,1.0019112069858238,2081.7473442109767,None,2081.7473442109767,None,2081.7473442109767,None,2082.765764091979,None,1,1.603058748994954,2082.765764091979,None,92,2084.3850475560175,None,112,B,1,2021_May_24_1058,GazeFlow,2020.1.2,59.85503410075262,
15,Block807.xls,B,7,7,50,50,None,congruent,Left,Left,Right,33,35,2,yellow,2,6,/home/docky/apps/exp/images/33Y.jpeg,/home/docky/apps/exp/images/35Yi.jpeg,0,14,14,14,0,6,6,6,2085.3874459289946,None,2085.3874459289946,None,1,4.709766508021858,2085.3874459289946,None,2090.128585417988,None,2090.128585417988,None,2092.6353112229845,None,2092.6353112229845,None,1.5849606950068846,2094.431926727004,None,2094.431926727004,None,6,1,0.9686354660079814,2096.0083681549877,None,2096.0083681549877,None,2096.0083681549877,None,2096.9933017099975,None,1,1.5530861169681884,2096.9933017099975,None,94,2098.562586501008,None,112,B,1,2021_May_24_1058,GazeFlow,2020.1.2,59.85503410075262,
15,Block807.xls,B,7,8,19,19,None,congruent,Left,Left,Right,76,79,3,blue,2,6,/home/docky/apps/exp/images/76B.jpeg,/home/docky/apps/exp/images/79Bi.jpeg,0,14,14,14,0,7,7,7,2099.564840250998,None,2099.564840250998,None,1,4.926650598004926,2099.564840250998,None,2104.525436226977,None,2104.525436226977,None,2107.028457921988,None,2107.028457921988,None,1.2505646860226989,2108.832030821999,None,2108.832030821999,None,6,1,1.0182795659638941,2110.068863380002,None,2110.068863380002,None,2110.068863380002,None,2111.1037684360053,None,1,1.6363347239675932,2111.1037684360053,None,96,2112.756764345977,None,112,B,1,2021_May_24_1058,GazeFlow,2020.1.2,59.85503410075262,
15,Block807.xls,B,,,,,,,,,,,,,,,,,,0,14,14,14,,,,,,,,,,,,,,,,,,,,,,,,,,,,,,,,,,,,,,,,,,,,112,B,1,2021_May_24_1058,GazeFlow,2020.1.2,59.85503410075262,
