Nblock,condsFile,grouping,Block,TrialBlock,N,trialN,trialCond,gazeCon,gazedirR,corrBinR,corrBinP,valLBY,valRBY,diff,colorCube,feedbacktext,corrAns,imageL,imageR,SelBlocks.thisRepN,SelBlocks.thisTrialN,SelBlocks.thisN,SelBlocks.thisIndex,Trials.thisRepN,Trials.thisTrialN,Trials.thisN,Trials.thisIndex,waitCube.started,waitCube.stopped,text_3.started,text_3.stopped,StartKeyPress.keys,StartKeyPress.rt,StartKeyPress.started,StartKeyPress.stopped,StimL.started,StimL.stopped,StimR.started,StimR.stopped,imageStim2L.started,imageStim2L.stopped,imageStim2R.started,imageStim2R.stopped,RTkeyRelease,imageStim3L.started,imageStim3L.stopped,imageStim3R.started,imageStim3R.stopped,dropResp.keys,dropResp.corr,dropResp.rt,dropResp.started,dropResp.stopped,imageStim5L.started,imageStim5L.stopped,imageStim5R.started,imageStim5R.stopped,text_2.started,text_2.stopped,ReturnSpace.keys,ReturnSpace.rt,ReturnSpace.started,ReturnSpace.stopped,totalpoints,textFeedback.started,textFeedback.stopped,participant,group,session,date,expName,psychopyVersion,frameRate,
1,Block502.xls,A,2,1,93,33,22,incongruent,Left,Right,Left,38,35,3,blue,2,5,/home/docky/apps/exp/images/38B.jpeg,/home/docky/apps/exp/images/35Bi.jpeg,0,0,0,0,0,0,0,0,48.69874250900466,None,48.69874250900466,None,1,3.7255134279839694,48.69874250900466,None,52.457575111009646,None,52.457575111009646,None,54.977992537023965,None,54.977992537023965,None,0.8658651459845714,56.7661781909992,None,56.7661781909992,None,5,1,1.1015844870125875,57.61370487802196,None,57.61370487802196,None,57.61370487802196,None,58.73188110801857,None,1,0.701059581944719,58.73188110801857,None,2,59.45062678202521,None,113,A,1,2021_May_24_1321,GazeFlow,2020.1.2,59.81496670151176,
1,Block502.xls,A,2,2,42,42,12,congruent,Right,Right,Left,83,80,3,blue,2,5,/home/docky/apps/exp/images/83Bi.jpeg,/home/docky/apps/exp/images/80B.jpeg,0,0,0,0,0,1,1,1,60.45192671800032,None,60.45192671800032,None,1,5.395128483010922,60.45192671800032,None,65.88036346202716,None,65.88036346202716,None,68.383219551004,None,68.383219551004,None,0.8666369789862074,70.18303233303595,None,70.18303233303595,None,5,1,3.3896162810269743,71.04031093104277,None,71.04031093104277,None,71.04031093104277,None,74.44656527001644,None,1,0.7190838000387885,74.44656527001644,None,4,75.18168192805024,None,113,A,1,2021_May_24_1321,GazeFlow,2020.1.2,59.81496670151176,
1,Block502.xls,A,2,3,9,9,11,congruent,Left,Left,Right,38,39,1,blue,2,6,/home/docky/apps/exp/images/38Bi.jpeg,/home/docky/apps/exp/images/39B.jpeg,0,0,0,0,0,2,2,2,76.18379587202799,None,76.18379587202799,None,1,5.461607170989737,76.18379587202799,None,81.67864461900899,None,81.67864461900899,None,84.18201605899958,None,84.18201605899958,None,0.8330854690284468,85.98559669899987,None,85.98559669899987,None,6,1,1.0849118779879063,86.80514969403157,None,86.80514969403157,None,86.80514969403157,None,87.90660930500599,None,1,0.7518611259874888,87.90660930500599,None,6,88.67528599500656,None,113,A,1,2021_May_24_1321,GazeFlow,2020.1.2,59.81496670151176,
1,Block502.xls,A,2,4,23,23,11,congruent,Left,Left,Right,38,39,1,yellow,2,6,/home/docky/apps/exp/images/38Yi.jpeg,/home/docky/apps/exp/images/39Y.jpeg,0,0,0,0,0,3,3,3,89.6769612870412,None,89.6769612870412,None,1,4.893805798026733,89.6769612870412,None,94.60464755503926,None,94.60464755503926,None,97.10753290803405,None,97.10753290803405,None,0.7831184699898586,98.91146343504079,None,98.91146343504079,None,6,1,1.1017921869643033,99.68063839804381,None,99.68063839804381,None,99.68063839804381,None,100.79921284900047,None,1,0.8691256979946047,100.79921284900047,None,8,101.68474730104208,None,113,A,1,2021_May_24_1321,GazeFlow,2020.1.2,59.81496670151176,
1,Block502.xls,A,2,5,57,57,12,congruent,Right,Right,Left,77,72,5,yellow,2,5,/home/docky/apps/exp/images/77Y.jpeg,/home/docky/apps/exp/images/72Yi.jpeg,0,0,0,0,0,4,4,4,102.68628041900229,None,102.68628041900229,None,1,4.94392460497329,102.68628041900229,None,107.66413849504897,None,107.66413849504897,None,110.16759834403638,None,110.16759834403638,None,0.8832910559722222,111.97078052104916,None,111.97078052104916,None,5,1,1.101842145959381,112.84050441003637,None,112.84050441003637,None,112.84050441003637,None,113.9590744409943,None,1,0.6515893570031039,113.9590744409943,None,10,114.62734523101244,None,113,A,1,2021_May_24_1321,GazeFlow,2020.1.2,59.81496670151176,
1,Block502.xls,A,2,6,118,58,22,incongruent,Left,Right,Left,80,79,1,yellow,2,5,/home/docky/apps/exp/images/80Yi.jpeg,/home/docky/apps/exp/images/79Y.jpeg,0,0,0,0,0,5,5,5,115.62885608302895,None,115.62885608302895,None,1,5.428271976008546,115.62885608302895,None,121.09093435003888,None,121.09093435003888,None,123.59598388004815,None,123.59598388004815,None,0.9167052209959365,125.39802469604183,None,125.39802469604183,None,5,1,1.1021257619722746,126.30093473702436,None,126.30093473702436,None,126.30093473702436,None,127.41911724105012,None,1,0.7188672519987449,127.41911724105012,None,12,128.15440994303208,None,113,A,1,2021_May_24_1321,GazeFlow,2020.1.2,59.81496670151176,
1,Block502.xls,A,2,7,101,41,22,incongruent,Left,Right,Left,83,80,3,blue,2,5,/home/docky/apps/exp/images/83Bi.jpeg,/home/docky/apps/exp/images/80B.jpeg,0,0,0,0,0,6,6,6,129.15608864702517,None,129.15608864702517,None,1,5.394822849018965,129.15608864702517,None,134.58326954505173,None,134.58326954505173,None,137.0880070560379,None,137.0880070560379,None,0.7496342700324021,138.89121609402355,None,138.89121609402355,None,5,1,1.1185850460315123,139.62770864000777,None,139.62770864000777,None,139.62770864000777,None,140.76268084801268,None,1,0.8189082299941219,140.76268084801268,None,14,141.59802571404725,None,113,A,1,2021_May_24_1321,GazeFlow,2020.1.2,59.81496670151176,
1,Block502.xls,A,2,8,69,9,21,incongruent,Right,Left,Right,73,76,3,blue,2,6,/home/docky/apps/exp/images/73B.jpeg,/home/docky/apps/exp/images/76Bi.jpeg,0,0,0,0,0,7,7,7,142.5999509030371,None,142.5999509030371,None,1,5.795902410987765,142.5999509030371,None,148.42914021702018,None,148.42914021702018,None,150.93239626701688,None,150.93239626701688,None,0.7995587649638765,152.73572766099824,None,152.73572766099824,None,5,0,1.1351616799947806,153.52218487602659,None,153.52218487602659,None,153.52218487602659,None,154.67401599901496,None,1,0.651541339000687,154.67401599901496,None,12,155.34252869803458,None,113,A,1,2021_May_24_1321,GazeFlow,2020.1.2,59.81496670151176,
1,Block502.xls,A,,,,,,,,,,,,,,,,,,0,0,0,0,,,,,,,,,,,,,,,,,,,,,,,,,,,,,,,,,,,,,,,,,,,,113,A,1,2021_May_24_1321,GazeFlow,2020.1.2,59.81496670151176,
2,Block506.xls,A,6,1,120,60,22,incongruent,Left,Right,Left,80,79,1,yellow,2,5,/home/docky/apps/exp/images/80Yi.jpeg,/home/docky/apps/exp/images/79Y.jpeg,0,1,1,1,0,0,0,0,174.86536065500695,None,174.86536065500695,None,1,5.601761459023692,174.86536065500695,None,180.4969255590113,None,180.4969255590113,None,183.01551183999982,None,183.01551183999982,None,0.6652799699804746,184.81931033200817,None,184.81931033200817,None,6,0,1.285844853031449,185.46998867200455,None,185.46998867200455,None,185.46998867200455,None,186.77172711701132,None,1,0.6022632829844952,186.77172711701132,None,10,187.39030359999742,None,113,A,1,2021_May_24_1321,GazeFlow,2020.1.2,59.81496670151176,
2,Block506.xls,A,6,2,51,51,12,congruent,Right,Right,Left,66,65,1,yellow,2,5,/home/docky/apps/exp/images/66Y.jpeg,/home/docky/apps/exp/images/35Bi.jpeg,0,1,1,1,0,1,1,1,188.39194101601606,None,188.39194101601606,None,1,5.462326094973832,188.39194101601606,None,193.88737473002402,None,193.88737473002402,None,196.3907047980465,None,196.3907047980465,None,0.9668403359828517,198.1885240030242,None,198.1885240030242,None,5,1,1.2524215849698521,199.1477267880109,None,199.1477267880109,None,199.1477267880109,None,200.41655033599818,None,1,0.617807095986791,200.41655033599818,None,12,201.0508928259951,None,113,A,1,2021_May_24_1321,GazeFlow,2020.1.2,59.81496670151176,
2,Block506.xls,A,6,3,119,59,22,incongruent,Left,Right,Left,80,79,1,yellow,2,5,/home/docky/apps/exp/images/80Y.jpeg,/home/docky/apps/exp/images/79Yi.jpeg,0,1,1,1,0,2,2,2,202.05344576801872,None,202.05344576801872,None,1,5.444862022995949,202.05344576801872,None,207.5318697350449,None,207.5318697350449,None,210.0351334400475,None,210.0351334400475,None,0.7332639439846389,211.83903358899988,None,211.83903358899988,None,5,1,1.1020604639779776,212.55809950904222,None,212.55809950904222,None,212.55809950904222,None,213.67630175803788,None,1,0.6357637810287997,213.67630175803788,None,14,214.32803064701147,None,113,A,1,2021_May_24_1321,GazeFlow,2020.1.2,59.81496670151176,
2,Block506.xls,A,6,4,28,28,11,congruent,Left,Left,Right,72,77,5,yellow,2,6,/home/docky/apps/exp/images/72Y.jpeg,/home/docky/apps/exp/images/77Yi.jpeg,0,1,1,1,0,3,3,3,215.32995617302367,None,215.32995617302367,None,1,5.07781604398042,215.32995617302367,None,220.44130756804952,None,220.44130756804952,None,222.94399832299678,None,222.94399832299678,None,1.0502958139986731,224.74832070805132,None,224.74832070805132,None,6,1,1.1183674050262198,225.7847676440142,None,225.7847676440142,None,225.7847676440142,None,226.91986232600175,None,1,0.5347623870475218,226.91986232600175,None,16,227.4712309150491,None,113,A,1,2021_May_24_1321,GazeFlow,2020.1.2,59.81496670151176,
2,Block506.xls,A,6,5,85,25,21,incongruent,Right,Left,Right,69,75,6,yellow,2,6,/home/docky/apps/exp/images/69Y.jpeg,/home/docky/apps/exp/images/76Yi.jpeg,0,1,1,1,0,4,4,4,228.47289442602778,None,228.47289442602778,None,1,5.344981649017427,228.47289442602778,None,233.8516212120303,None,233.8516212120303,None,236.35515953804133,None,236.35515953804133,None,0.916617943032179,238.15239256201312,None,238.15239256201312,None,6,1,1.1684284709626809,239.0617717440473,None,239.0617717440473,None,239.0617717440473,None,240.2466648380505,None,1,0.6524170199991204,240.2466648380505,None,18,240.9151813830249,None,113,A,1,2021_May_24_1321,GazeFlow,2020.1.2,59.81496670151176,
2,Block506.xls,A,6,6,71,11,21,incongruent,Right,Left,Right,76,79,3,blue,2,6,/home/docky/apps/exp/images/76B.jpeg,/home/docky/apps/exp/images/79Bi.jpeg,0,1,1,1,0,5,5,5,241.91663500200957,None,241.91663500200957,None,1,5.178388732951134,241.91663500200957,None,247.12851355300518,None,247.12851355300518,None,249.63194648403442,None,249.63194648403442,None,0.8666579370037653,251.4351841970347,None,251.4351841970347,None,6,1,1.1017682059900835,252.28835635702126,None,252.28835635702126,None,252.28835635702126,None,253.40673179604346,None,1,0.5353067949763499,253.40673179604346,None,20,253.95835909002926,None,113,A,1,2021_May_24_1321,GazeFlow,2020.1.2,59.81496670151176,
2,Block506.xls,A,6,7,56,56,12,congruent,Right,Right,Left,76,69,7,yellow,2,5,/home/docky/apps/exp/images/76Yi.jpeg,/home/docky/apps/exp/images/69Y.jpeg,0,1,1,1,0,6,6,6,254.95957345003262,None,254.95957345003262,None,1,4.8775671439943835,254.95957345003262,None,259.87098492402583,None,259.87098492402583,None,262.3744598960038,None,262.3744598960038,None,1.3175421070191078,264.1725322470302,None,264.1725322470302,None,5,1,1.052221001998987,265.481571877026,None,265.481571877026,None,265.481571877026,None,266.55028698104434,None,1,0.5675881530041806,266.55028698104434,None,22,267.13441967300605,None,113,A,1,2021_May_24_1321,GazeFlow,2020.1.2,59.81496670151176,
2,Block506.xls,A,6,8,33,33,12,congruent,Right,Right,Left,38,35,3,blue,2,5,/home/docky/apps/exp/images/38B.jpeg,/home/docky/apps/exp/images/35Bi.jpeg,0,1,1,1,0,7,7,7,268.1370626260177,None,268.1370626260177,None,1,5.795393251988571,268.1370626260177,None,273.966211046034,None,273.966211046034,None,276.4755642070086,None,276.4755642070086,None,1.2005373809952289,278.26752636104356,None,278.26752636104356,None,5,1,0.9349939579842612,279.4600979220122,None,279.4600979220122,None,279.4600979220122,None,280.41127367899753,None,1,0.5517795730265789,280.41127367899753,None,24,280.97964823199436,None,113,A,1,2021_May_24_1321,GazeFlow,2020.1.2,59.81496670151176,
2,Block506.xls,A,,,,,,,,,,,,,,,,,,0,1,1,1,,,,,,,,,,,,,,,,,,,,,,,,,,,,,,,,,,,,,,,,,,,,113,A,1,2021_May_24_1321,GazeFlow,2020.1.2,59.81496670151176,
3,Block505.xls,A,5,1,1,1,11,congruent,Left,Left,Right,16,19,3,blue,2,6,/home/docky/apps/exp/images/16Bi.jpeg,/home/docky/apps/exp/images/19B.jpeg,0,2,2,2,0,0,0,0,303.94459241704317,None,303.94459241704317,None,1,5.668613392976113,303.94459241704317,None,309.64209184399806,None,309.64209184399806,None,312.16021672904026,None,312.16021672904026,None,0.8158390109892935,313.96416292502545,None,313.96416292502545,None,6,1,1.1019648640067317,314.7648641639971,None,314.7648641639971,None,314.7648641639971,None,315.88327309302986,None,1,0.5019718870171346,315.88327309302986,None,26,316.4014129450079,None,113,A,1,2021_May_24_1321,GazeFlow,2020.1.2,59.81496670151176,
3,Block505.xls,A,5,2,10,10,11,congruent,Left,Left,Right,73,76,3,blue,2,6,/home/docky/apps/exp/images/73B.jpeg,/home/docky/apps/exp/images/76Bi.jpeg,0,2,2,2,0,1,1,1,317.4030426350073,None,317.4030426350073,None,1,5.094789104012307,317.4030426350073,None,322.5310460940236,None,322.5310460940236,None,325.03617627202766,None,325.03617627202766,None,0.900049390969798,326.8399556160439,None,326.8399556160439,None,6,1,1.0351503829588182,327.72443976800423,None,327.72443976800423,None,327.72443976800423,None,328.7763462100411,None,1,0.5349240209907293,328.7763462100411,None,28,329.32766385399736,None,113,A,1,2021_May_24_1321,GazeFlow,2020.1.2,59.81496670151176,
3,Block505.xls,A,5,3,95,35,22,incongruent,Left,Right,Left,66,65,1,blue,2,5,/home/docky/apps/exp/images/66B.jpeg,/home/docky/apps/exp/images/35Yi.jpeg,0,2,2,2,0,2,2,2,330.3291708659963,None,330.3291708659963,None,1,5.078161099983845,330.3291708659963,None,335.44133703404805,None,335.44133703404805,None,337.9457625200157,None,337.9457625200157,None,0.8497187950415537,339.74913113500224,None,339.74913113500224,None,5,1,1.0513289740192704,340.58370402804576,None,340.58370402804576,None,340.58370402804576,None,341.6518350150436,None,1,0.5845589179662056,341.6518350150436,None,30,342.25310710200574,None,113,A,1,2021_May_24_1321,GazeFlow,2020.1.2,59.81496670151176,
3,Block505.xls,A,5,4,46,46,12,congruent,Right,Right,Left,35,33,2,yellow,2,5,/home/docky/apps/exp/images/35Yi.jpeg,/home/docky/apps/exp/images/33Y.jpeg,0,2,2,2,0,3,3,3,343.25466394703835,None,343.25466394703835,None,1,5.310005960986018,343.25466394703835,None,348.59696660900954,None,348.59696660900954,None,351.10180773900356,None,351.10180773900356,None,1.1837329299887642,352.904665242997,None,352.904665242997,None,5,1,1.0859188720351085,354.0748815650004,None,354.0748815650004,None,354.0748815650004,None,355.1768623670214,None,1,0.5348359059426002,355.1768623670214,None,32,355.7277695540106,None,113,A,1,2021_May_24_1321,GazeFlow,2020.1.2,59.81496670151176,
3,Block505.xls,A,5,5,78,18,21,incongruent,Right,Left,Right,65,66,1,yellow,2,6,/home/docky/apps/exp/images/35Bi.jpeg,/home/docky/apps/exp/images/66Y.jpeg,0,2,2,2,0,4,4,4,356.7292620600201,None,356.7292620600201,None,1,5.794591272016987,356.7292620600201,None,362.5571891940199,None,362.5571891940199,None,365.06448260199977,None,365.06448260199977,None,0.9501552250003442,366.8656970880111,None,366.8656970880111,None,5,0,1.1186243640258908,367.8001060720417,None,367.8001060720417,None,367.8001060720417,None,368.93498248804826,None,1,0.6018831860274076,368.93498248804826,None,30,369.55309056304395,None,113,A,1,2021_May_24_1321,GazeFlow,2020.1.2,59.81496670151176,
3,Block505.xls,A,5,6,43,43,12,congruent,Right,Right,Left,83,80,3,blue,2,5,/home/docky/apps/exp/images/83B.jpeg,/home/docky/apps/exp/images/80Bi.jpeg,0,2,2,2,0,5,5,5,370.5546209560125,None,370.5546209560125,None,1,5.361184959998354,370.5546209560125,None,375.9502105450374,None,375.9502105450374,None,378.4517764490447,None,378.4517764490447,None,1.0500900519546121,380.2497479460435,None,380.2497479460435,None,5,1,1.1350916430237703,381.2918828910333,None,381.2918828910333,None,381.2918828910333,None,382.4432932230411,None,1,0.5520833340124227,382.4432932230411,None,32,383.01160290202824,None,113,A,1,2021_May_24_1321,GazeFlow,2020.1.2,59.81496670151176,
3,Block505.xls,A,5,7,44,44,12,congruent,Right,Right,Left,39,38,1,blue,2,5,/home/docky/apps/exp/images/39Bi.jpeg,/home/docky/apps/exp/images/38B.jpeg,0,2,2,2,0,6,6,6,384.01293616800103,None,384.01293616800103,None,1,5.979050480993465,384.01293616800103,None,390.0260076520499,None,390.0260076520499,None,392.52821021701675,None,392.52821021701675,None,1.0836281219962984,394.32846649503335,None,394.32846649503335,None,5,1,1.001364485011436,395.4014516120078,None,395.4014516120078,None,395.4014516120078,None,396.4192834800342,None,1,0.5679535730159841,396.4192834800342,None,34,397.003770995012,None,113,A,1,2021_May_24_1321,GazeFlow,2020.1.2,59.81496670151176,
3,Block505.xls,A,5,8,116,56,22,incongruent,Left,Right,Left,77,72,5,yellow,2,5,/home/docky/apps/exp/images/77Y.jpeg,/home/docky/apps/exp/images/72Y.jpeg,0,2,2,2,0,7,7,7,398.0058533039992,None,398.0058533039992,None,1,6.179064832977019,398.0058533039992,None,404.2183035420021,None,404.2183035420021,None,406.7224936080165,None,406.7224936080165,None,0.9499866089900024,408.52429810201284,None,408.52429810201284,None,5,1,1.3688236169982702,409.4609708810458,None,409.4609708810458,None,409.4609708810458,None,410.8462763360003,None,1,0.6176999689778313,410.8462763360003,None,36,411.4804603270022,None,113,A,1,2021_May_24_1321,GazeFlow,2020.1.2,59.81496670151176,
3,Block505.xls,A,,,,,,,,,,,,,,,,,,0,2,2,2,,,,,,,,,,,,,,,,,,,,,,,,,,,,,,,,,,,,,,,,,,,,113,A,1,2021_May_24_1321,GazeFlow,2020.1.2,59.81496670151176,
4,Block509.xls,A,9,1,34,34,12,congruent,Right,Right,Left,38,35,3,blue,2,5,/home/docky/apps/exp/images/38Bi.jpeg,/home/docky/apps/exp/images/35B.jpeg,0,3,3,3,0,0,0,0,436.1623911370407,None,436.1623911370407,None,1,3.995774083014112,436.1623911370407,None,440.188401558029,None,440.188401558029,None,442.70733087003464,None,442.70733087003464,None,0.8489926200127229,444.5087015540339,None,444.5087015540339,None,5,1,1.0351534630171955,445.3451436080504,None,445.3451436080504,None,445.3451436080504,None,446.396518493013,None,1,0.5515426350175403,446.396518493013,None,38,446.9645367070334,None,113,A,1,2021_May_24_1321,GazeFlow,2020.1.2,59.81496670151176,
4,Block509.xls,A,9,2,7,7,11,congruent,Left,Left,Right,65,66,1,blue,2,6,/home/docky/apps/exp/images/35Yi.jpeg,/home/docky/apps/exp/images/66B.jpeg,0,3,3,3,0,1,1,1,447.9661260599969,None,447.9661260599969,None,1,6.513328881992493,447.9661260599969,None,454.513679160038,None,454.513679160038,None,457.01749123702757,None,457.01749123702757,None,0.799450104997959,458.81908379803644,None,458.81908379803644,None,6,1,1.135135391028598,459.60521243402036,None,459.60521243402036,None,459.60521243402036,None,460.75700193003286,None,1,0.4513525830116123,460.75700193003286,None,40,461.22493297205074,None,113,A,1,2021_May_24_1321,GazeFlow,2020.1.2,59.81496670151176,
4,Block509.xls,A,9,3,74,14,21,incongruent,Right,Left,Right,80,83,3,blue,2,6,/home/docky/apps/exp/images/80B.jpeg,/home/docky/apps/exp/images/83Bi.jpeg,0,3,3,3,0,2,2,2,462.2263953220099,None,462.2263953220099,None,1,5.91158681496745,462.2263953220099,None,468.171885896998,None,468.171885896998,None,470.6765566530521,None,470.6765566530521,None,0.8333788519958034,472.4800015480141,None,472.4800015480141,None,6,1,1.168568174005486,473.2980526810279,None,473.2980526810279,None,473.2980526810279,None,474.48299099400174,None,1,0.45177954697282985,474.48299099400174,None,42,474.95096858101897,None,113,A,1,2021_May_24_1321,GazeFlow,2020.1.2,59.81496670151176,
4,Block509.xls,A,9,4,19,19,11,congruent,Left,Left,Right,65,66,1,yellow,2,6,/home/docky/apps/exp/images/35Bi.jpeg,/home/docky/apps/exp/images/66Y.jpeg,0,3,3,3,0,3,3,3,475.95225494902115,None,475.95225494902115,None,1,5.361530838999897,475.95225494902115,None,481.34786656004144,None,481.34786656004144,None,483.8502081510378,None,483.8502081510378,None,1.000028299051337,485.6538031400414,None,485.6538031400414,None,6,1,1.7363641990232281,486.6402100480045,None,486.6402100480045,None,486.6402100480045,None,488.3932289510267,None,1,0.38363720901543275,488.3932289510267,None,44,488.7936287850025,None,113,A,1,2021_May_24_1321,GazeFlow,2020.1.2,59.81496670151176,
4,Block509.xls,A,9,5,60,60,12,congruent,Right,Right,Left,80,79,1,yellow,2,5,/home/docky/apps/exp/images/80Yi.jpeg,/home/docky/apps/exp/images/79Y.jpeg,0,3,3,3,0,4,4,4,489.79567646305077,None,489.79567646305077,None,1,5.811564539966639,489.79567646305077,None,495.64100934000453,None,495.64100934000453,None,498.1445867360453,None,498.1445867360453,None,1.0168493330129422,499.9474920890061,None,499.9474920890061,None,6,0,1.3195050610229373,500.95081753103295,None,500.95081753103295,None,500.95081753103295,None,502.28628850501264,None,1,0.35138513101264834,502.28628850501264,None,42,502.6535607110127,None,113,A,1,2021_May_24_1321,GazeFlow,2020.1.2,59.81496670151176,
4,Block509.xls,A,9,6,83,23,21,incongruent,Right,Left,Right,38,39,1,yellow,2,6,/home/docky/apps/exp/images/38Yi.jpeg,/home/docky/apps/exp/images/39Y.jpeg,0,3,3,3,0,5,5,5,503.65519934502663,None,503.65519934502663,None,1,5.36099703097716,503.65519934502663,None,509.0501005310216,None,509.0501005310216,None,511.55716725002276,None,511.55716725002276,None,0.8999416200094856,513.3563298740191,None,513.3563298740191,None,6,1,1.201758551003877,514.2427796300035,None,514.2427796300035,None,514.2427796300035,None,515.461202710052,None,1,0.45149231696268544,515.461202710052,None,44,515.9287132220343,None,113,A,1,2021_May_24_1321,GazeFlow,2020.1.2,59.81496670151176,
4,Block509.xls,A,9,7,4,4,11,congruent,Left,Left,Right,35,38,3,blue,2,6,/home/docky/apps/exp/images/35B.jpeg,/home/docky/apps/exp/images/38Bi.jpeg,0,3,3,3,0,6,6,6,516.9306223019958,None,516.9306223019958,None,1,5.6951199670438655,516.9306223019958,None,522.659566686023,None,522.659566686023,None,525.1643342419993,None,525.1643342419993,None,0.7830345690017566,526.9657994690351,None,526.9657994690351,None,6,1,1.051573294971604,527.7354014860466,None,527.7354014860466,None,527.7354014860466,None,528.8034812950063,None,1,0.4341604599612765,528.8034812950063,None,46,529.2543656640337,None,113,A,1,2021_May_24_1321,GazeFlow,2020.1.2,59.81496670151176,
4,Block509.xls,A,9,8,24,24,11,congruent,Left,Left,Right,38,39,1,yellow,2,6,/home/docky/apps/exp/images/38Y.jpeg,/home/docky/apps/exp/images/39Yi.jpeg,0,3,3,3,0,7,7,7,530.2561818800168,None,530.2561818800168,None,1,5.244385747006163,530.2561818800168,None,535.5342253540293,None,535.5342253540293,None,538.0390371720423,None,538.0390371720423,None,0.6995081420172937,539.8410357580287,None,539.8410357580287,None,6,1,2.403931918030139,540.5267102240468,None,540.5267102240468,None,540.5267102240468,None,542.9473841040162,None,1,0.6850723360548727,542.9473841040162,None,48,543.6487302500173,None,113,A,1,2021_May_24_1321,GazeFlow,2020.1.2,59.81496670151176,
4,Block509.xls,A,,,,,,,,,,,,,,,,,,0,3,3,3,,,,,,,,,,,,,,,,,,,,,,,,,,,,,,,,,,,,,,,,,,,,113,A,1,2021_May_24_1321,GazeFlow,2020.1.2,59.81496670151176,
5,Block504.xls,A,4,1,11,11,11,congruent,Left,Left,Right,73,76,3,blue,2,6,/home/docky/apps/exp/images/73Bi.jpeg,/home/docky/apps/exp/images/76B.jpeg,0,4,4,4,0,0,0,0,564.940632059006,None,564.940632059006,None,1,4.498466412012931,564.940632059006,None,569.4696528290515,None,569.4696528290515,None,571.9877087080386,None,571.9877087080386,None,0.816062994999811,573.7912577590323,None,573.7912577590323,None,6,1,1.101620907022152,574.5924501600093,None,574.5924501600093,None,574.5924501600093,None,575.7107742820517,None,1,0.6853110510273837,575.7107742820517,None,50,576.412477466045,None,113,A,1,2021_May_24_1321,GazeFlow,2020.1.2,59.81496670151176,
5,Block504.xls,A,4,2,87,27,21,incongruent,Right,Left,Right,72,77,5,yellow,2,6,/home/docky/apps/exp/images/72Y.jpeg,/home/docky/apps/exp/images/77Yi.jpeg,0,4,4,4,0,1,1,1,577.4141199770384,None,577.4141199770384,None,1,5.761765009025112,577.4141199770384,None,583.2095998510486,None,583.2095998510486,None,585.7128791559953,None,585.7128791559953,None,0.9332283099647611,587.5181415520492,None,587.5181415520492,None,6,1,1.4694449710077606,588.4359710450517,None,588.4359710450517,None,588.4359710450517,None,589.9219543660292,None,1,0.46823621803196147,589.9219543660292,None,52,590.4061514670029,None,113,A,1,2021_May_24_1321,GazeFlow,2020.1.2,59.81496670151176,
5,Block504.xls,A,4,3,48,48,12,congruent,Right,Right,Left,39,38,1,yellow,2,5,/home/docky/apps/exp/images/39Yi.jpeg,/home/docky/apps/exp/images/38Y.jpeg,0,4,4,4,0,2,2,2,591.4078182310332,None,591.4078182310332,None,1,5.427917115041055,591.4078182310332,None,596.8694318340276,None,596.8694318340276,None,599.3723162250244,None,599.3723162250244,None,1.7351326940115541,601.170592000999,None,601.170592000999,None,6,0,0.9688725990126841,602.897124990006,None,602.897124990006,None,602.897124990006,None,603.882314867049,None,1,0.517748900980223,603.882314867049,None,50,604.4166295500472,None,113,A,1,2021_May_24_1321,GazeFlow,2020.1.2,59.81496670151176,
5,Block504.xls,A,4,4,38,38,12,congruent,Right,Right,Left,79,73,6,blue,2,5,/home/docky/apps/exp/images/79B.jpeg,/home/docky/apps/exp/images/73Bi.jpeg,0,4,4,4,0,3,3,3,605.4183610129985,None,605.4183610129985,None,1,4.960466078016907,605.4183610129985,None,610.4124896069989,None,610.4124896069989,None,612.9172119420255,None,612.9172119420255,None,0.8334552160231397,614.718499804032,None,614.718499804032,None,5,1,1.2352954300004058,615.5385404830449,None,615.5385404830449,None,615.5385404830449,None,616.7906339860056,None,1,0.7352920169942081,616.7906339860056,None,52,617.5422172200051,None,113,A,1,2021_May_24_1321,GazeFlow,2020.1.2,59.81496670151176,
5,Block504.xls,A,4,5,2,2,11,congruent,Left,Left,Right,16,19,3,blue,2,6,/home/docky/apps/exp/images/16B.jpeg,/home/docky/apps/exp/images/19Bi.jpeg,0,4,4,4,0,4,4,4,618.5443670770037,None,618.5443670770037,None,1,5.110559962980915,618.5443670770037,None,623.6884212250006,None,623.6884212250006,None,626.1925713220262,None,626.1925713220262,None,0.7164717200212181,627.9943694210378,None,627.9943694210378,None,6,1,1.0187095110304654,628.6976337940432,None,628.6976337940432,None,628.6976337940432,None,629.7323270000052,None,1,0.6681591360247694,629.7323270000052,None,54,630.4173888920341,None,113,A,1,2021_May_24_1321,GazeFlow,2020.1.2,59.81496670151176,
5,Block504.xls,A,4,6,73,13,21,incongruent,Right,Left,Right,80,83,3,blue,2,6,/home/docky/apps/exp/images/80Bi.jpeg,/home/docky/apps/exp/images/83B.jpeg,0,4,4,4,0,5,5,5,631.4192888060352,None,631.4192888060352,None,1,4.826933375035878,631.4192888060352,None,636.279562028998,None,636.279562028998,None,638.7842628289945,None,638.7842628289945,None,0.8999091489822604,640.5861964150099,None,640.5861964150099,None,6,1,1.2019169789855368,641.4724326250143,None,641.4724326250143,None,641.4724326250143,None,642.6909970590496,None,1,0.5354079250246286,642.6909970590496,None,56,643.2424540300271,None,113,A,1,2021_May_24_1321,GazeFlow,2020.1.2,59.81496670151176,
5,Block504.xls,A,4,7,63,3,21,incongruent,Right,Left,Right,35,38,3,blue,2,6,/home/docky/apps/exp/images/35B.jpeg,/home/docky/apps/exp/images/38Bi.jpeg,0,4,4,4,0,6,6,6,644.2440693520475,None,644.2440693520475,None,1,5.111191756965127,644.2440693520475,None,649.388606556051,None,649.388606556051,None,651.8930644610082,None,651.8930644610082,None,0.7161907069967128,653.6949683410348,None,653.6949683410348,None,6,1,1.2852972939726897,654.3978271190426,None,654.3978271190426,None,654.3978271190426,None,655.6997063420131,None,1,0.48535561095923185,655.6997063420131,None,58,656.2011687290506,None,113,A,1,2021_May_24_1321,GazeFlow,2020.1.2,59.81496670151176,
5,Block504.xls,A,4,8,86,26,21,incongruent,Right,Left,Right,72,77,5,yellow,2,6,/home/docky/apps/exp/images/72Yi.jpeg,/home/docky/apps/exp/images/77Y.jpeg,0,4,4,4,0,7,7,7,657.2029198650271,None,657.2029198650271,None,1,4.977517955005169,657.2029198650271,None,662.2137074689963,None,662.2137074689963,None,664.7182366230409,None,664.7182366230409,None,0.7992695069988258,666.5201926780283,None,666.5201926780283,None,6,1,1.3185395689797588,667.3065504099941,None,667.3065504099941,None,667.3065504099941,None,668.641859328025,None,1,0.4674405240220949,668.641859328025,None,60,669.1261360990466,None,113,A,1,2021_May_24_1321,GazeFlow,2020.1.2,59.81496670151176,
5,Block504.xls,A,,,,,,,,,,,,,,,,,,0,4,4,4,,,,,,,,,,,,,,,,,,,,,,,,,,,,,,,,,,,,,,,,,,,,113,A,1,2021_May_24_1321,GazeFlow,2020.1.2,59.81496670151176,
6,Block511.xls,A,11,1,15,15,11,congruent,Left,Left,Right,80,83,3,blue,2,6,/home/docky/apps/exp/images/80Bi.jpeg,/home/docky/apps/exp/images/83B.jpeg,0,5,5,5,0,0,0,0,686.9115808900096,None,686.9115808900096,None,1,4.318180092028342,686.9115808900096,None,691.2519982540398,None,691.2519982540398,None,693.7755641170079,None,693.7755641170079,None,0.6986517389887013,695.5790198740433,None,695.5790198740433,None,6,1,1.2851135590462945,696.2635068410309,None,696.2635068410309,None,696.2635068410309,None,697.5655299170176,None,1,0.5015849200426601,697.5655299170176,None,62,698.0832785910461,None,113,A,1,2021_May_24_1321,GazeFlow,2020.1.2,59.81496670151176,
6,Block511.xls,A,11,2,105,45,22,incongruent,Left,Right,Left,39,38,1,blue,2,5,/home/docky/apps/exp/images/39Bi.jpeg,/home/docky/apps/exp/images/38B.jpeg,0,5,5,5,0,1,1,1,699.0848187500378,None,699.0848187500378,None,1,5.57837764499709,699.0848187500378,None,704.6967541400227,None,704.6967541400227,None,707.2002274940023,None,707.2002274940023,None,1.5515064629726112,709.0037557310425,None,709.0037557310425,None,6,0,1.1689589050365612,710.5413257910404,None,710.5413257910404,None,710.5413257910404,None,711.7266418830259,None,1,0.4510507409577258,711.7266418830259,None,60,712.1940085920505,None,113,A,1,2021_May_24_1321,GazeFlow,2020.1.2,59.81496670151176,
6,Block511.xls,A,11,3,68,8,21,incongruent,Right,Left,Right,38,39,1,blue,2,6,/home/docky/apps/exp/images/38B.jpeg,/home/docky/apps/exp/images/39Bi.jpeg,0,5,5,5,0,2,2,2,713.1963942120201,None,713.1963942120201,None,1,5.511029043002054,713.1963942120201,None,718.7411433249945,None,718.7411433249945,None,721.2447675580042,None,721.2447675580042,None,1.4677989690098912,723.0480031540501,None,723.0480031540501,None,5,0,1.1016550629865378,724.5020440140506,None,724.5020440140506,None,724.5020440140506,None,725.6203981620492,None,1,0.517867247981485,725.6203981620492,None,58,726.1547738880035,None,113,A,1,2021_May_24_1321,GazeFlow,2020.1.2,59.81496670151176,
6,Block511.xls,A,11,4,80,20,21,incongruent,Right,Left,Right,62,65,3,yellow,2,6,/home/docky/apps/exp/images/38Bi.jpeg,/home/docky/apps/exp/images/35B.jpeg,0,5,5,5,0,3,3,3,727.1567973470083,None,727.1567973470083,None,1,4.876703154004645,727.1567973470083,None,732.0676517200191,None,732.0676517200191,None,734.5722974390374,None,734.5722974390374,None,0.7334041119902395,736.3745215110248,None,736.3745215110248,None,6,1,0.9846727169933729,737.0936924590496,None,737.0936924590496,None,737.0936924590496,None,738.0951829190017,None,1,0.3675621579750441,738.0951829190017,None,60,738.4792684650165,None,113,A,1,2021_May_24_1321,GazeFlow,2020.1.2,59.81496670151176,
6,Block511.xls,A,11,5,5,5,11,congruent,Left,Left,Right,65,66,1,blue,2,6,/home/docky/apps/exp/images/35Yi.jpeg,/home/docky/apps/exp/images/66B.jpeg,0,5,5,5,0,4,4,4,739.4806975510437,None,739.4806975510437,None,1,4.877774805994704,739.4806975510437,None,744.3917183290469,None,744.3917183290469,None,746.8965039160103,None,746.8965039160103,None,0.8003524709492922,748.6989178259973,None,748.6989178259973,None,6,1,0.9852104129968211,749.4845701260492,None,749.4845701260492,None,749.4845701260492,None,750.486060168012,None,1,0.4343836799962446,750.486060168012,None,62,750.9370066600386,None,113,A,1,2021_May_24_1321,GazeFlow,2020.1.2,59.81496670151176,
6,Block511.xls,A,11,6,18,18,11,congruent,Left,Left,Right,65,66,1,yellow,2,6,/home/docky/apps/exp/images/35B.jpeg,/home/docky/apps/exp/images/66Yi.jpeg,0,5,5,5,0,5,5,5,751.9390495090047,None,751.9390495090047,None,1,4.7103512400062755,751.9390495090047,None,756.682425029052,None,756.682425029052,None,759.185186643037,None,759.185186643037,None,1.384341181954369,760.9910858240328,None,760.9910858240328,None,6,1,1.0187040959717706,762.3599278129986,None,762.3599278129986,None,762.3599278129986,None,763.395210571005,None,1,0.36812215601094067,763.395210571005,None,64,763.7794411670184,None,113,A,1,2021_May_24_1321,GazeFlow,2020.1.2,59.81496670151176,
6,Block511.xls,A,11,7,25,25,11,congruent,Left,Left,Right,69,75,6,yellow,2,6,/home/docky/apps/exp/images/69Yi.jpeg,/home/docky/apps/exp/images/76Y.jpeg,0,5,5,5,0,6,6,6,764.7806711810408,None,764.7806711810408,None,1,5.91270834201714,764.7806711810408,None,770.727087922045,None,770.727087922045,None,773.2319003519951,None,773.2319003519951,None,0.8499617840279825,775.0359205960413,None,775.0359205960413,None,6,1,1.2356366619933397,775.8698696070351,None,775.8698696070351,None,775.8698696070351,None,777.1219400450354,None,1,0.4015787770040333,777.1219400450354,None,66,777.5399564020336,None,113,A,1,2021_May_24_1321,GazeFlow,2020.1.2,59.81496670151176,
6,Block511.xls,A,11,8,3,3,11,congruent,Left,Left,Right,35,38,3,blue,2,6,/home/docky/apps/exp/images/35Bi.jpeg,/home/docky/apps/exp/images/38B.jpeg,0,5,5,5,0,7,7,7,778.5414600730292,None,778.5414600730292,None,1,5.445212370017543,778.5414600730292,None,784.0206199680106,None,784.0206199680106,None,786.5252189180464,None,786.5252189180464,None,0.8331406019860879,788.3254820720176,None,788.3254820720176,None,6,1,0.9680655220290646,789.1466179109993,None,789.1466179109993,None,789.1466179109993,None,790.1312400480383,None,1,0.5342884830315597,790.1312400480383,None,68,790.6826312370249,None,113,A,1,2021_May_24_1321,GazeFlow,2020.1.2,59.81496670151176,
6,Block511.xls,A,,,,,,,,,,,,,,,,,,0,5,5,5,,,,,,,,,,,,,,,,,,,,,,,,,,,,,,,,,,,,,,,,,,,,113,A,1,2021_May_24_1321,GazeFlow,2020.1.2,59.81496670151176,
7,Block508.xls,A,8,1,13,13,11,congruent,Left,Left,Right,76,79,3,blue,2,6,/home/docky/apps/exp/images/76Bi.jpeg,/home/docky/apps/exp/images/79B.jpeg,0,6,6,6,0,0,0,0,813.3282491690479,None,813.3282491690479,None,1,5.2318434760090895,813.3282491690479,None,818.5873669510474,None,818.5873669510474,None,821.1085405439953,None,821.1085405439953,None,0.7656289460137486,822.9137236580136,None,822.9137236580136,None,6,1,1.1348927009967156,823.66482739005,None,823.66482739005,None,823.66482739005,None,824.8165516680456,None,1,0.4846379319787957,824.8165516680456,None,70,825.3175865120138,None,113,A,1,2021_May_24_1321,GazeFlow,2020.1.2,59.81496670151176,
7,Block508.xls,A,8,2,21,21,11,congruent,Left,Left,Right,62,65,3,yellow,2,6,/home/docky/apps/exp/images/38B.jpeg,/home/docky/apps/exp/images/35Bi.jpeg,0,6,6,6,0,1,1,1,826.3193933910225,None,826.3193933910225,None,1,4.893546161998529,826.3193933910225,None,831.2465592960361,None,831.2465592960361,None,833.7498635289958,None,833.7498635289958,None,0.9000472549814731,835.553729256033,None,835.553729256033,None,6,1,1.001329088001512,836.4400373490062,None,836.4400373490062,None,836.4400373490062,None,837.4581155090127,None,1,0.4683314120047726,837.4581155090127,None,72,837.9428618660313,None,113,A,1,2021_May_24_1321,GazeFlow,2020.1.2,59.81496670151176,
7,Block508.xls,A,8,3,99,39,22,incongruent,Left,Right,Left,79,76,3,blue,2,5,/home/docky/apps/exp/images/79Bi.jpeg,/home/docky/apps/exp/images/76B.jpeg,0,6,6,6,0,2,2,2,838.9441925010178,None,838.9441925010178,None,1,4.660136251011863,838.9441925010178,None,843.6357693320024,None,843.6357693320024,None,846.1415944230394,None,846.1415944230394,None,0.6996148169855587,847.9442134150304,None,847.9442134150304,None,5,1,1.837500658002682,848.6309283199953,None,848.6309283199953,None,848.6309283199953,None,850.4844504320063,None,1,0.7011948300059885,850.4844504320063,None,74,851.2020676570246,None,113,A,1,2021_May_24_1321,GazeFlow,2020.1.2,59.81496670151176,
7,Block508.xls,A,8,4,37,37,12,congruent,Right,Right,Left,66,65,1,blue,2,5,/home/docky/apps/exp/images/66Bi.jpeg,/home/docky/apps/exp/images/35Y.jpeg,0,6,6,6,0,3,3,3,852.2042467500432,None,852.2042467500432,None,1,4.760042568959761,852.2042467500432,None,856.9980599280098,None,856.9980599280098,None,859.5014149940107,None,859.5014149940107,None,0.8829415449872613,861.2991257030517,None,861.2991257030517,None,5,1,0.9848551519680768,862.1745728700189,None,862.1745728700189,None,862.1745728700189,None,863.175798292039,None,1,0.6185700510395691,863.175798292039,None,76,863.8108890060103,None,113,A,1,2021_May_24_1321,GazeFlow,2020.1.2,59.81496670151176,
7,Block508.xls,A,8,5,82,22,21,incongruent,Right,Left,Right,38,39,1,yellow,2,6,/home/docky/apps/exp/images/38Y.jpeg,/home/docky/apps/exp/images/39Yi.jpeg,0,6,6,6,0,4,4,4,864.8123886550311,None,864.8123886550311,None,1,5.345201605989132,864.8123886550311,None,870.191007534042,None,870.191007534042,None,872.6955924730282,None,872.6955924730282,None,1.1002539309556596,874.4996054210351,None,874.4996054210351,None,5,0,1.001517363009043,875.5844722010079,None,875.5844722010079,None,875.5844722010079,None,876.6026418920374,None,1,0.48481653298949823,876.6026418920374,None,74,877.1040396980243,None,113,A,1,2021_May_24_1321,GazeFlow,2020.1.2,59.81496670151176,
7,Block508.xls,A,8,6,104,44,22,incongruent,Left,Right,Left,39,38,1,blue,2,5,/home/docky/apps/exp/images/39B.jpeg,/home/docky/apps/exp/images/38Bi.jpeg,0,6,6,6,0,5,5,5,878.1057327490416,None,878.1057327490416,None,1,5.261441833979916,878.1057327490416,None,883.4004727890133,None,883.4004727890133,None,885.9056727260468,None,885.9056727260468,None,0.7831481489702128,887.7073622790049,None,887.7073622790049,None,5,1,0.8844869030290283,888.4767318130471,None,888.4767318130471,None,888.4767318130471,None,889.3782016150071,None,1,0.5008835979970172,889.3782016150071,None,76,889.8957157400437,None,113,A,1,2021_May_24_1321,GazeFlow,2020.1.2,59.81496670151176,
7,Block508.xls,A,8,7,39,39,12,congruent,Right,Right,Left,79,73,6,blue,2,5,/home/docky/apps/exp/images/79B.jpeg,/home/docky/apps/exp/images/73Bi.jpeg,0,6,6,6,0,6,6,6,890.8977012490504,None,890.8977012490504,None,1,4.776739577995613,890.8977012490504,None,895.7065724210115,None,895.7065724210115,None,898.2108671060414,None,898.2108671060414,None,1.0171143250190653,900.0144449180225,None,900.0144449180225,None,5,1,0.9679851210094057,901.0185275570257,None,901.0185275570257,None,901.0185275570257,None,902.0030801490066,None,1,0.5845693820156157,902.0030801490066,None,78,902.6041707289987,None,113,A,1,2021_May_24_1321,GazeFlow,2020.1.2,59.81496670151176,
7,Block508.xls,A,8,8,36,36,12,congruent,Right,Right,Left,66,65,1,blue,2,5,/home/docky/apps/exp/images/66B.jpeg,/home/docky/apps/exp/images/35Yi.jpeg,0,6,6,6,0,7,7,7,903.6062992190127,None,903.6062992190127,None,1,5.645122112007812,903.6062992190127,None,909.2852108190418,None,909.2852108190418,None,911.7904708970455,None,911.7904708970455,None,0.9663056440185755,913.5938417500001,None,913.5938417500001,None,6,0,1.15197641501436,914.5450160100008,None,914.5450160100008,None,914.5450160100008,None,915.7134413900203,None,1,0.45105585700366646,915.7134413900203,None,76,916.180977254,None,113,A,1,2021_May_24_1321,GazeFlow,2020.1.2,59.81496670151176,
7,Block508.xls,A,,,,,,,,,,,,,,,,,,0,6,6,6,,,,,,,,,,,,,,,,,,,,,,,,,,,,,,,,,,,,,,,,,,,,113,A,1,2021_May_24_1321,GazeFlow,2020.1.2,59.81496670151176,
8,Block510.xls,A,10,1,102,42,22,incongruent,Left,Right,Left,83,80,3,blue,2,5,/home/docky/apps/exp/images/83B.jpeg,/home/docky/apps/exp/images/80Bi.jpeg,0,7,7,7,0,0,0,0,938.2613933610264,None,938.2613933610264,None,1,4.850168793986086,938.2613933610264,None,943.135067196039,None,943.135067196039,None,945.657780522015,None,945.657780522015,None,0.7490558329736814,947.4613518730039,None,947.4613518730039,None,5,1,1.0515567910042591,948.195606999041,None,948.195606999041,None,948.195606999041,None,949.263968150015,None,1,0.5682176779955626,949.263968150015,None,78,949.8488272280083,None,113,A,1,2021_May_24_1321,GazeFlow,2020.1.2,59.81496670151176,
8,Block510.xls,A,10,2,114,54,22,incongruent,Left,Right,Left,76,69,7,yellow,2,5,/home/docky/apps/exp/images/76Yi.jpeg,/home/docky/apps/exp/images/69Y.jpeg,0,7,7,7,0,1,1,1,950.85032034904,None,950.85032034904,None,1,4.459964791953098,950.85032034904,None,955.3438233310007,None,955.3438233310007,None,957.848222841043,None,957.848222841043,None,1.0337726079742424,959.6502679760451,None,959.6502679760451,None,5,1,1.1182672170107253,960.670528771996,None,960.670528771996,None,960.670528771996,None,961.8057215459994,None,1,0.5517577099963091,961.8057215459994,None,80,962.373690684035,None,113,A,1,2021_May_24_1321,GazeFlow,2020.1.2,59.81496670151176,
8,Block510.xls,A,10,3,72,12,21,incongruent,Right,Left,Right,76,79,3,blue,2,6,/home/docky/apps/exp/images/76Bi.jpeg,/home/docky/apps/exp/images/79B.jpeg,0,7,7,7,0,2,2,2,963.3754123940016,None,963.3754123940016,None,1,5.51154552702792,963.3754123940016,None,968.9206453090301,None,968.9206453090301,None,971.4255717759952,None,971.4255717759952,None,1.0839982840116136,973.2224295810447,None,973.2224295810447,None,6,1,1.0014103439752944,974.2980326720281,None,974.2980326720281,None,974.2980326720281,None,975.3157102460391,None,1,0.5522993420017883,975.3157102460391,None,82,975.8839188140118,None,113,A,1,2021_May_24_1321,GazeFlow,2020.1.2,59.81496670151176,
8,Block510.xls,A,10,4,112,52,22,incongruent,Left,Right,Left,75,69,6,yellow,2,5,/home/docky/apps/exp/images/76Y.jpeg,/home/docky/apps/exp/images/69Yi.jpeg,0,7,7,7,0,3,3,3,976.8858914820012,None,976.8858914820012,None,1,5.11108909198083,976.8858914820012,None,982.0303486509947,None,982.0303486509947,None,984.5331427180208,None,984.5331427180208,None,0.8334002280025743,986.3351647930103,None,986.3351647930103,None,5,1,0.9848275469848886,987.1566452390398,None,987.1566452390398,None,987.1566452390398,None,988.15817181702,None,1,0.6851945700473152,988.15817181702,None,84,988.859881100012,None,113,A,1,2021_May_24_1321,GazeFlow,2020.1.2,59.81496670151176,
8,Block510.xls,A,10,5,17,17,11,congruent,Left,Left,Right,33,35,2,yellow,2,6,/home/docky/apps/exp/images/33Y.jpeg,/home/docky/apps/exp/images/35Yi.jpeg,0,7,7,7,0,4,4,4,989.8612069980009,None,989.8612069980009,None,1,5.061418558994774,989.8612069980009,None,994.9560625019949,None,994.9560625019949,None,997.459023286996,None,997.459023286996,None,1.0172194460174069,999.257304564002,None,999.257304564002,None,5,0,2.8717281419667415,1000.2662786699948,None,1000.2662786699948,None,1000.2662786699948,None,1003.1546450240421,None,1,0.5182162209530361,1003.1546450240421,None,82,1003.68909282604,None,113,A,1,2021_May_24_1321,GazeFlow,2020.1.2,59.81496670151176,
8,Block510.xls,A,10,6,31,31,12,congruent,Right,Right,Left,19,16,3,blue,2,5,/home/docky/apps/exp/images/19Bi.jpeg,/home/docky/apps/exp/images/16B.jpeg,0,7,7,7,0,5,5,5,1004.6915082299965,None,1004.6915082299965,None,1,5.043645407014992,1004.6915082299965,None,1009.7690245730337,None,1009.7690245730337,None,1012.2724178270437,None,1012.2724178270437,None,0.7999130099778995,1014.0777004150441,None,1014.0777004150441,None,5,1,2.2543389549828134,1014.861768390052,None,1014.861768390052,None,1014.861768390052,None,1017.13251369301,None,1,0.6184647399932146,1017.13251369301,None,84,1017.7676468060235,None,113,A,1,2021_May_24_1321,GazeFlow,2020.1.2,59.81496670151176,
8,Block510.xls,A,10,7,61,1,21,incongruent,Right,Left,Right,16,19,3,blue,2,6,/home/docky/apps/exp/images/16Bi.jpeg,/home/docky/apps/exp/images/19B.jpeg,0,7,7,7,0,6,6,6,1018.7694657270331,None,1018.7694657270331,None,1,4.843411292007659,1018.7694657270331,None,1023.6467053560191,None,1023.6467053560191,None,1026.1502883190406,None,1026.1502883190406,None,0.8496632759924978,1027.95342552301,None,1027.95342552301,None,6,1,1.235181025986094,1028.7898407870089,None,1028.7898407870089,None,1028.7898407870089,None,1030.0417398160207,None,1,0.5843982359510846,1030.0417398160207,None,86,1030.6430349050206,None,113,A,1,2021_May_24_1321,GazeFlow,2020.1.2,59.81496670151176,
8,Block510.xls,A,10,8,94,34,22,incongruent,Left,Right,Left,38,35,3,blue,2,5,/home/docky/apps/exp/images/38Bi.jpeg,/home/docky/apps/exp/images/35B.jpeg,0,7,7,7,0,7,7,7,1031.644918787002,None,1031.644918787002,None,1,4.960611968999729,1031.644918787002,None,1036.6394201130024,None,1036.6394201130024,None,1039.1425345430034,None,1039.1425345430034,None,0.8834387770039029,1040.9460445130244,None,1040.9460445130244,None,6,0,3.7404341350193135,1041.8160003320081,None,1041.8160003320081,None,1041.8160003320081,None,1045.5729658440105,None,1,0.6016145350295119,1045.5729658440105,None,84,1046.191013868025,None,113,A,1,2021_May_24_1321,GazeFlow,2020.1.2,59.81496670151176,
8,Block510.xls,A,,,,,,,,,,,,,,,,,,0,7,7,7,,,,,,,,,,,,,,,,,,,,,,,,,,,,,,,,,,,,,,,,,,,,113,A,1,2021_May_24_1321,GazeFlow,2020.1.2,59.81496670151176,
9,Block507.xls,A,7,1,110,50,22,incongruent,Left,Right,Left,66,65,1,yellow,2,5,/home/docky/apps/exp/images/66Y.jpeg,/home/docky/apps/exp/images/35Bi.jpeg,0,8,8,8,0,0,0,0,1066.3830969590344,None,1066.3830969590344,None,1,3.4638100049924105,1066.3830969590344,None,1069.8750929130474,None,1069.8750929130474,None,1072.3941427320242,None,1072.3941427320242,None,0.7655606169719249,1074.1908954450046,None,1074.1908954450046,None,6,0,1.1018708919873461,1074.9486624440178,None,1074.9486624440178,None,1074.9486624440178,None,1076.0668915130082,None,1,0.5686533370171674,1076.0668915130082,None,82,1076.6519440340344,None,113,A,1,2021_May_24_1321,GazeFlow,2020.1.2,59.81496670151176,
9,Block507.xls,A,7,2,90,30,22,incongruent,Right,Left,Right,16,19,3,blue,2,6,/home/docky/apps/exp/images/16Bi.jpeg,/home/docky/apps/exp/images/19B.jpeg,0,8,8,8,0,1,1,1,1077.653393227025,None,1077.653393227025,None,1,4.092150999000296,1077.653393227025,None,1081.7812338750227,None,1081.7812338750227,None,1084.282941750018,None,1084.282941750018,None,0.6661030450486578,1086.0850987490267,None,1086.0850987490267,None,6,1,1.0349931600503623,1086.7390203950345,None,1086.7390203950345,None,1086.7390203950345,None,1087.79039208201,None,1,0.4009401399525814,1087.79039208201,None,84,1088.2078654180514,None,113,A,1,2021_May_24_1321,GazeFlow,2020.1.2,59.81496670151176,
9,Block507.xls,A,7,3,16,16,11,congruent,Left,Left,Right,33,35,2,yellow,2,6,/home/docky/apps/exp/images/33Yi.jpeg,/home/docky/apps/exp/images/35Y.jpeg,0,8,8,8,0,2,2,2,1089.2099827000056,None,1089.2099827000056,None,1,4.4267092600348406,1089.2099827000056,None,1093.669997227029,None,1093.669997227029,None,1096.1728203620296,None,1096.1728203620296,None,0.7833973869564943,1097.9764140650514,None,1097.9764140650514,None,6,1,1.1517012399854138,1098.746356386051,None,1098.746356386051,None,1098.746356386051,None,1099.9146782720345,None,1,0.5182567280135117,1099.9146782720345,None,86,1100.4494921010337,None,113,A,1,2021_May_24_1321,GazeFlow,2020.1.2,59.81496670151176,
9,Block507.xls,A,7,4,117,57,22,incongruent,Left,Right,Left,77,72,5,yellow,2,5,/home/docky/apps/exp/images/77Y.jpeg,/home/docky/apps/exp/images/72Yi.jpeg,0,8,8,8,0,3,3,3,1101.4512374790502,None,1101.4512374790502,None,1,4.576500013004988,1101.4512374790502,None,1106.0614603630383,None,1106.0614603630383,None,1108.5645606720354,None,1108.5645606720354,None,0.7829746620263904,1110.3675999219995,None,1110.3675999219995,None,5,1,1.0348802380030975,1111.1377643269952,None,1111.1377643269952,None,1111.1377643269952,None,1112.189429001999,None,1,0.635688154026866,1112.189429001999,None,88,1112.8410242810496,None,113,A,1,2021_May_24_1321,GazeFlow,2020.1.2,59.81496670151176,
9,Block507.xls,A,7,5,53,53,12,congruent,Right,Right,Left,75,69,6,yellow,2,5,/home/docky/apps/exp/images/76Yi.jpeg,/home/docky/apps/exp/images/69Y.jpeg,0,8,8,8,0,4,4,4,1113.8425777320517,None,1113.8425777320517,None,1,6.11438923102105,1113.8425777320517,None,1119.9917978460435,None,1119.9917978460435,None,1122.4920510060037,None,1122.4920510060037,None,6.261201891000383,1124.2910574240377,None,1124.2910574240377,None,5,1,1.0845099220168777,1130.5604528440163,None,1130.5604528440163,None,1130.5604528440163,None,1131.6618101320346,None,1,1.9877744750119746,1131.6618101320346,None,90,1133.6660911910003,None,113,A,1,2021_May_24_1321,GazeFlow,2020.1.2,59.81496670151176,
9,Block507.xls,A,7,6,96,36,22,incongruent,Left,Right,Left,66,65,1,blue,2,5,/home/docky/apps/exp/images/66Bi.jpeg,/home/docky/apps/exp/images/35Y.jpeg,0,8,8,8,0,5,5,5,1134.6679880780284,None,1134.6679880780284,None,1,6.914642342017032,1134.6679880780284,None,1141.616095992038,None,1141.616095992038,None,1144.120918050001,None,1144.120918050001,None,1.5011957890237682,1145.9245735930162,None,1145.9245735930162,None,5,1,1.0186757870251313,1147.4104340129998,None,1147.4104340129998,None,1147.4104340129998,None,1148.445550960023,None,1,0.6674226500326768,1148.445550960023,None,92,1149.1297387670493,None,113,A,1,2021_May_24_1321,GazeFlow,2020.1.2,59.81496670151176,
9,Block507.xls,A,7,7,58,58,12,congruent,Right,Right,Left,77,72,5,yellow,2,5,/home/docky/apps/exp/images/77Yi.jpeg,/home/docky/apps/exp/images/72Y.jpeg,0,8,8,8,0,6,6,6,1150.1317935300176,None,1150.1317935300176,None,1,6.046253785025328,1150.1317935300176,None,1156.2101050990168,None,1156.2101050990168,None,1158.7145627030404,None,1158.7145627030404,None,1.3677723730215803,1160.517675634008,None,1160.517675634008,None,5,1,1.1022569360211492,1161.8726126410183,None,1161.8726126410183,None,1161.8726126410183,None,1162.991363189998,None,1,0.6678080869605765,1162.991363189998,None,94,1163.67595063505,None,113,A,1,2021_May_24_1321,GazeFlow,2020.1.2,59.81496670151176,
9,Block507.xls,A,7,8,41,41,12,congruent,Right,Right,Left,79,76,3,blue,2,5,/home/docky/apps/exp/images/79Bi.jpeg,/home/docky/apps/exp/images/76B.jpeg,0,8,8,8,0,7,7,7,1164.6777706260327,None,1164.6777706260327,None,1,6.597101460967679,1164.6777706260327,None,1171.3088482580497,None,1171.3088482580497,None,1173.8121976930415,None,1173.8121976930415,None,1.316985913028475,1175.6170815940131,None,1175.6170815940131,None,5,1,1.1862504269811325,1176.9194396330277,None,1176.9194396330277,None,1176.9194396330277,None,1178.1216617799946,None,1,0.6843890430172905,1178.1216617799946,None,96,1178.822622902051,None,113,A,1,2021_May_24_1321,GazeFlow,2020.1.2,59.81496670151176,
9,Block507.xls,A,,,,,,,,,,,,,,,,,,0,8,8,8,,,,,,,,,,,,,,,,,,,,,,,,,,,,,,,,,,,,,,,,,,,,113,A,1,2021_May_24_1321,GazeFlow,2020.1.2,59.81496670151176,
10,Block515.xls,A,15,1,107,47,22,incongruent,Left,Right,Left,35,33,2,yellow,2,5,/home/docky/apps/exp/images/35Yi.jpeg,/home/docky/apps/exp/images/33Y.jpeg,0,9,9,9,0,0,0,0,1197.936777466035,None,1197.936777466035,None,1,4.912122053967323,1197.936777466035,None,1202.877075101016,None,1202.877075101016,None,1205.3936134150135,None,1205.3936134150135,None,1.0161894990014844,1207.191281159001,None,1207.191281159001,None,5,1,1.3528474299819209,1208.1988171680132,None,1208.1988171680132,None,1208.1988171680132,None,1209.5679459920502,None,1,0.6173589339596219,1209.5679459920502,None,98,1210.2022325500147,None,113,A,1,2021_May_24_1321,GazeFlow,2020.1.2,59.81496670151176,
10,Block515.xls,A,15,2,55,55,12,congruent,Right,Right,Left,76,69,7,yellow,2,5,/home/docky/apps/exp/images/76Yi.jpeg,/home/docky/apps/exp/images/69Y.jpeg,0,9,9,9,0,1,1,1,1211.203964921995,None,1211.203964921995,None,1,5.328745495993644,1211.203964921995,None,1216.5658238110482,None,1216.5658238110482,None,1219.0711538660107,None,1219.0711538660107,None,1.2009827039437369,1220.8728959670407,None,1220.8728959670407,None,5,1,1.2526484959525988,1222.0598744150484,None,1222.0598744150484,None,1222.0598744150484,None,1223.3286971829948,None,1,0.6176988739753142,1223.3286971829948,None,100,1223.9630326890037,None,113,A,1,2021_May_24_1321,GazeFlow,2020.1.2,59.81496670151176,
10,Block515.xls,A,15,3,75,15,21,incongruent,Right,Left,Right,33,35,2,yellow,2,6,/home/docky/apps/exp/images/33Yi.jpeg,/home/docky/apps/exp/images/35Y.jpeg,0,9,9,9,0,2,2,2,1224.9651145760436,None,1224.9651145760436,None,1,5.86262839200208,1224.9651145760436,None,1230.8611776020261,None,1230.8611776020261,None,1233.3644108000444,None,1233.3644108000444,None,1.2676300129969604,1235.1641845960403,None,1235.1641845960403,None,6,1,1.0516752779949456,1236.4221443500137,None,1236.4221443500137,None,1236.4221443500137,None,1237.4904546100297,None,1,0.5685783209628426,1237.4904546100297,None,102,1238.0752950420137,None,113,A,1,2021_May_24_1321,GazeFlow,2020.1.2,59.81496670151176,
10,Block515.xls,A,15,4,62,2,21,incongruent,Right,Left,Right,35,38,3,blue,2,6,/home/docky/apps/exp/images/35Bi.jpeg,/home/docky/apps/exp/images/38B.jpeg,0,9,9,9,0,3,3,3,1239.0766530800029,None,1239.0766530800029,None,1,4.626854977046605,1239.0766530800029,None,1243.7372665920411,None,1243.7372665920411,None,1246.2401594980038,None,1246.2401594980038,None,0.9502851850120351,1248.044221246033,None,1248.044221246033,None,6,1,0.9515767759876326,1248.9802657390246,None,1248.9802657390246,None,1248.9802657390246,None,1249.9484139020205,None,1,0.5523911179625429,1249.9484139020205,None,104,1250.5167358840117,None,113,A,1,2021_May_24_1321,GazeFlow,2020.1.2,59.81496670151176,
10,Block515.xls,A,15,5,100,40,22,incongruent,Left,Right,Left,79,76,3,blue,2,5,/home/docky/apps/exp/images/79Bi.jpeg,/home/docky/apps/exp/images/76B.jpeg,0,9,9,9,0,4,4,4,1251.5182235750253,None,1251.5182235750253,None,1,3.9421353570069186,1251.5182235750253,None,1255.4941516820109,None,1255.4941516820109,None,1257.9971134000225,None,1257.9971134000225,None,1.3842760370462202,1259.802698791027,None,1259.802698791027,None,5,1,1.152121409017127,1261.1716224260163,None,1261.1716224260163,None,1261.1716224260163,None,1262.3404337110114,None,1,0.5845755439950153,1262.3404337110114,None,106,1262.9413347750087,None,113,A,1,2021_May_24_1321,GazeFlow,2020.1.2,59.81496670151176,
10,Block515.xls,A,15,6,108,48,22,incongruent,Left,Right,Left,39,38,1,yellow,2,5,/home/docky/apps/exp/images/39Y.jpeg,/home/docky/apps/exp/images/38Yi.jpeg,0,9,9,9,0,5,5,5,1263.9431880610064,None,1263.9431880610064,None,1,4.543202584027313,1263.9431880610064,None,1268.5210108540487,None,1268.5210108540487,None,1271.0251947740326,None,1271.0251947740326,None,1.334505507024005,1272.826798032038,None,1272.826798032038,None,5,1,1.0859027149854228,1274.1477249130257,None,1274.1477249130257,None,1274.1477249130257,None,1275.2494756480446,None,1,0.5341184189892374,1275.2494756480446,None,108,1275.800289848994,None,113,A,1,2021_May_24_1321,GazeFlow,2020.1.2,59.81496670151176,
10,Block515.xls,A,15,7,59,59,12,congruent,Right,Right,Left,80,79,1,yellow,2,5,/home/docky/apps/exp/images/80Y.jpeg,/home/docky/apps/exp/images/79Yi.jpeg,0,9,9,9,0,6,6,6,1276.8023948830087,None,1276.8023948830087,None,1,4.776922166987788,1276.8023948830087,None,1281.6133881080314,None,1281.6133881080314,None,1284.116753489012,None,1284.116753489012,None,1.1506619679857977,1285.9197201619972,None,1285.9197201619972,None,5,1,1.0182304439949803,1287.0570687800064,None,1287.0570687800064,None,1287.0570687800064,None,1288.091812219005,None,1,0.5850901600206271,1288.091812219005,None,110,1288.6933860290446,None,113,A,1,2021_May_24_1321,GazeFlow,2020.1.2,59.81496670151176,
10,Block515.xls,A,15,8,8,8,11,congruent,Left,Left,Right,38,39,1,blue,2,6,/home/docky/apps/exp/images/38B.jpeg,/home/docky/apps/exp/images/39Bi.jpeg,0,9,9,9,0,7,7,7,1289.6949439250166,None,1289.6949439250166,None,1,5.011124909971841,1289.6949439250166,None,1294.7397052849992,None,1294.7397052849992,None,1297.242475494044,None,1297.242475494044,None,0.9837379389791749,1299.0464252990205,None,1299.0464252990205,None,6,1,1.0011978489928879,1300.0164571180358,None,1300.0164571180358,None,1300.0164571180358,None,1301.0344361480093,None,1,0.46853539999574423,1301.0344361480093,None,112,1301.5190697220387,None,113,A,1,2021_May_24_1321,GazeFlow,2020.1.2,59.81496670151176,
10,Block515.xls,A,,,,,,,,,,,,,,,,,,0,9,9,9,,,,,,,,,,,,,,,,,,,,,,,,,,,,,,,,,,,,,,,,,,,,113,A,1,2021_May_24_1321,GazeFlow,2020.1.2,59.81496670151176,
11,Block512.xls,A,12,1,30,30,11,congruent,Left,Left,Right,79,82,3,yellow,2,6,/home/docky/apps/exp/images/79Yi.jpeg,/home/docky/apps/exp/images/80Y.jpeg,0,10,10,10,0,0,0,0,1324.1653559580445,None,1324.1653559580445,None,1,4.850913395988755,1324.1653559580445,None,1329.0377870410448,None,1329.0377870410448,None,1331.5632016230375,None,1331.5632016230375,None,1.2002458000206389,1333.365296321048,None,1333.365296321048,None,6,1,1.1692477820324712,1334.5521096989978,None,1334.5521096989978,None,1334.5521096989978,None,1335.7378666420118,None,1,0.6174166499986313,1335.7378666420118,None,114,1336.3720273320214,None,113,A,1,2021_May_24_1321,GazeFlow,2020.1.2,59.81496670151176,
11,Block512.xls,A,12,2,115,55,22,incongruent,Left,Right,Left,76,69,7,yellow,2,5,/home/docky/apps/exp/images/76Yi.jpeg,/home/docky/apps/exp/images/69Y.jpeg,0,10,10,10,0,1,1,1,1337.3739275819971,None,1337.3739275819971,None,1,5.144842620007694,1337.3739275819971,None,1342.5523410930182,None,1342.5523410930182,None,1345.0571754410048,None,1345.0571754410048,None,1.1503703310154378,1346.8615062950412,None,1346.8615062950412,None,5,1,2.354290645045694,1347.9959291870473,None,1347.9959291870473,None,1347.9959291870473,None,1350.366698174039,None,1,0.9188056169659831,1350.366698174039,None,116,1351.301947030006,None,113,A,1,2021_May_24_1321,GazeFlow,2020.1.2,59.81496670151176,
11,Block512.xls,A,12,3,66,6,21,incongruent,Right,Left,Right,38,39,1,blue,2,6,/home/docky/apps/exp/images/38B.jpeg,/home/docky/apps/exp/images/39Bi.jpeg,0,10,10,10,0,2,2,2,1352.3043019320467,None,1352.3043019320467,None,1,4.910296935006045,1352.3043019320467,None,1357.2482233880437,None,1357.2482233880437,None,1359.7510491569992,None,1359.7510491569992,None,1.2169642489752732,1361.554927093035,None,1361.554927093035,None,5,0,1.1690275029977784,1362.7588041420095,None,1362.7588041420095,None,1362.7588041420095,None,1363.9439886320033,None,1,0.5671737249940634,1363.9439886320033,None,114,1364.5277586849988,None,113,A,1,2021_May_24_1321,GazeFlow,2020.1.2,59.81496670151176,
11,Block512.xls,A,12,4,35,35,12,congruent,Right,Right,Left,66,65,1,blue,2,5,/home/docky/apps/exp/images/66B.jpeg,/home/docky/apps/exp/images/35Yi.jpeg,0,10,10,10,0,3,3,3,1365.529929879005,None,1365.529929879005,None,1,5.025619748979807,1365.529929879005,None,1370.5896180880372,None,1370.5896180880372,None,1373.0934784800047,None,1373.0934784800047,None,2.0682037800434045,1374.894314351026,None,1374.894314351026,None,5,1,0.9177480739890598,1376.949630267045,None,1376.949630267045,None,1376.949630267045,None,1377.883926903014,None,1,0.5846390890073963,1377.883926903014,None,116,1378.485198882001,None,113,A,1,2021_May_24_1321,GazeFlow,2020.1.2,59.81496670151176,
11,Block512.xls,A,12,5,40,40,12,congruent,Right,Right,Left,79,76,3,blue,2,5,/home/docky/apps/exp/images/79Bi.jpeg,/home/docky/apps/exp/images/76B.jpeg,0,10,10,10,0,4,4,4,1379.48721527803,None,1379.48721527803,None,1,5.626644395000767,1379.48721527803,None,1385.1478673380334,None,1385.1478673380334,None,1387.6499301920412,None,1387.6499301920412,None,1.1000498869689181,1389.4531001520227,None,1389.4531001520227,None,5,1,1.1348599240300246,1390.5397012570174,None,1390.5397012570174,None,1390.5397012570174,None,1391.69103421201,None,1,0.5851367330178618,1391.69103421201,None,118,1392.292648817005,None,113,A,1,2021_May_24_1321,GazeFlow,2020.1.2,59.81496670151176,
11,Block512.xls,A,12,6,64,4,21,incongruent,Right,Left,Right,65,66,1,blue,2,6,/home/docky/apps/exp/images/35Yi.jpeg,/home/docky/apps/exp/images/66B.jpeg,0,10,10,10,0,5,5,5,1393.2945600240491,None,1393.2945600240491,None,1,5.710285972978454,1393.2945600240491,None,1399.0382625140483,None,1399.0382625140483,None,1401.543474866019,None,1401.543474866019,None,1.166822516999673,1403.3430504320422,None,1403.3430504320422,None,6,1,1.1014600989874452,1404.4973035930307,None,1404.4973035930307,None,1404.4973035930307,None,1405.6162539740326,None,1,0.4509331610170193,1405.6162539740326,None,120,1406.0832511630142,None,113,A,1,2021_May_24_1321,GazeFlow,2020.1.2,59.81496670151176,
11,Block512.xls,A,12,7,12,12,11,congruent,Left,Left,Right,76,79,3,blue,2,6,/home/docky/apps/exp/images/76B.jpeg,/home/docky/apps/exp/images/79Bi.jpeg,0,10,10,10,0,6,6,6,1407.0845394370263,None,1407.0845394370263,None,1,5.327129617042374,1407.0845394370263,None,1412.4464853359968,None,1412.4464853359968,None,1414.9475828520372,None,1414.9475828520372,None,1.0336382749956101,1416.7502515609958,None,1416.7502515609958,None,6,1,0.9678241630317643,1417.7706156280474,None,1417.7706156280474,None,1417.7706156280474,None,1418.7548613040126,None,1,0.5016372360405512,1418.7548613040126,None,122,1419.2729690850247,None,113,A,1,2021_May_24_1321,GazeFlow,2020.1.2,59.81496670151176,
11,Block512.xls,A,12,8,49,49,12,congruent,Right,Right,Left,39,38,1,yellow,2,5,/home/docky/apps/exp/images/39Y.jpeg,/home/docky/apps/exp/images/38Yi.jpeg,0,10,10,10,0,7,7,7,1420.2742469140212,None,1420.2742469140212,None,1,5.426968373998534,1420.2742469140212,None,1425.7348989699967,None,1425.7348989699967,None,1428.2395674050204,None,1428.2395674050204,None,1.0836437420221046,1430.0407956470153,None,1430.0407956470153,None,5,1,1.0178276909864508,1431.110643922002,None,1431.110643922002,None,1431.110643922002,None,1432.1453387039946,None,1,0.6187577460077591,1432.1453387039946,None,124,1432.7800978470477,None,113,A,1,2021_May_24_1321,GazeFlow,2020.1.2,59.81496670151176,
11,Block512.xls,A,,,,,,,,,,,,,,,,,,0,10,10,10,,,,,,,,,,,,,,,,,,,,,,,,,,,,,,,,,,,,,,,,,,,,113,A,1,2021_May_24_1321,GazeFlow,2020.1.2,59.81496670151176,
12,Block503.xls,A,3,1,22,22,11,congruent,Left,Left,Right,62,65,3,yellow,2,6,/home/docky/apps/exp/images/38Bi.jpeg,/home/docky/apps/exp/images/35B.jpeg,0,11,11,11,0,0,0,0,1453.617129676044,None,1453.617129676044,None,1,4.264506709994748,1453.617129676044,None,1457.907948304026,None,1457.907948304026,None,1460.4299910700065,None,1460.4299910700065,None,1.3000741290161386,1462.2266730320407,None,1462.2266730320407,None,6,1,0.9010276659973897,1463.518374981999,None,1463.518374981999,None,1463.518374981999,None,1464.435905980994,None,1,0.5848786249989644,1464.435905980994,None,126,1465.037416364008,None,113,A,1,2021_May_24_1321,GazeFlow,2020.1.2,59.81496670151176,
12,Block503.xls,A,3,2,65,5,21,incongruent,Right,Left,Right,65,66,1,blue,2,6,/home/docky/apps/exp/images/35Y.jpeg,/home/docky/apps/exp/images/66Bi.jpeg,0,11,11,11,0,1,1,1,1466.0391325740493,None,1466.0391325740493,None,1,4.491843945987057,1466.0391325740493,None,1470.5647836170392,None,1470.5647836170392,None,1473.0691420030198,None,1473.0691420030198,None,1.2171921720146202,1474.870801748999,None,1474.870801748999,None,6,1,1.1187862779479474,1476.073972194048,None,1476.073972194048,None,1476.073972194048,None,1477.2092971120146,None,1,0.46815236302791163,1477.2092971120146,None,128,1477.6933534470154,None,113,A,1,2021_May_24_1321,GazeFlow,2020.1.2,59.81496670151176,
12,Block503.xls,A,3,3,76,16,21,incongruent,Right,Left,Right,33,35,2,yellow,2,6,/home/docky/apps/exp/images/33Y.jpeg,/home/docky/apps/exp/images/35Yi.jpeg,0,11,11,11,0,2,2,2,1478.6951331270393,None,1478.6951331270393,None,1,5.226385574962478,1478.6951331270393,None,1483.9553787090117,None,1483.9553787090117,None,1486.458650125016,None,1486.458650125016,None,1.0501828840351664,1488.2574083850486,None,1488.2574083850486,None,6,1,1.1514651540201157,1489.298147352005,None,1489.298147352005,None,1489.298147352005,None,1490.466086866043,None,1,0.4685466710361652,1490.466086866043,None,130,1490.950719173008,None,113,A,1,2021_May_24_1321,GazeFlow,2020.1.2,59.81496670151176,
12,Block503.xls,A,3,4,29,29,11,congruent,Left,Left,Right,79,82,3,yellow,2,6,/home/docky/apps/exp/images/79Y.jpeg,/home/docky/apps/exp/images/80Yi.jpeg,0,11,11,11,0,3,3,3,1491.951859138033,None,1491.951859138033,None,1,5.812017629970796,1491.951859138033,None,1497.7971921080025,None,1497.7971921080025,None,1500.3014035249944,None,1500.3014035249944,None,1.9351384670007974,1502.1050344980322,None,1502.1050344980322,None,6,1,1.2689123899908736,1504.0245317570516,None,1504.0245317570516,None,1504.0245317570516,None,1505.3098784059985,None,1,0.46771950903348625,1505.3098784059985,None,132,1505.793934440997,None,113,A,1,2021_May_24_1321,GazeFlow,2020.1.2,59.81496670151176,
12,Block503.xls,A,3,5,103,43,22,incongruent,Left,Right,Left,39,38,1,blue,2,5,/home/docky/apps/exp/images/39Bi.jpeg,/home/docky/apps/exp/images/38B.jpeg,0,11,11,11,0,4,4,4,1506.7959625910153,None,1506.7959625910153,None,1,5.660782501974609,1506.7959625910153,None,1512.4904638360022,None,1512.4904638360022,None,1514.9932531890227,None,1514.9932531890227,None,1.0499047589837573,1516.798575917026,None,1516.798575917026,None,6,0,1.6861436869949102,1517.83317988005,None,1517.83317988005,None,1517.83317988005,None,1519.5360311749973,None,1,0.5674911239766516,1519.5360311749973,None,130,1520.1200138730346,None,113,A,1,2021_May_24_1321,GazeFlow,2020.1.2,59.81496670151176,
12,Block503.xls,A,3,6,47,47,12,congruent,Right,Right,Left,35,33,2,yellow,2,5,/home/docky/apps/exp/images/35Yi.jpeg,/home/docky/apps/exp/images/33Y.jpeg,0,11,11,11,0,5,5,5,1521.122093487007,None,1521.122093487007,None,1,4.826123481034301,1521.122093487007,None,1525.9820527940174,None,1525.9820527940174,None,1528.48947141401,None,1528.48947141401,None,0.8667743139667436,1530.2821046640165,None,1530.2821046640165,None,5,1,1.0013939350028522,1531.1408437770442,None,1531.1408437770442,None,1531.1408437770442,None,1532.1589130290085,None,1,0.6350728079560213,1532.1589130290085,None,132,1532.810429966019,None,113,A,1,2021_May_24_1321,GazeFlow,2020.1.2,59.81496670151176,
12,Block503.xls,A,3,7,20,20,11,congruent,Left,Left,Right,65,66,1,yellow,2,6,/home/docky/apps/exp/images/35Bi.jpeg,/home/docky/apps/exp/images/66Y.jpeg,0,11,11,11,0,6,6,6,1533.811983202002,None,1533.811983202002,None,1,6.412802364968229,1533.811983202002,None,1540.2582972660311,None,1540.2582972660311,None,1542.760221646051,None,1542.760221646051,None,1.7180913119809702,1544.5639238610165,None,1544.5639238610165,None,6,1,0.9675328679732047,1546.268690581026,None,1546.268690581026,None,1546.268690581026,None,1547.253347971011,None,1,0.4673458380275406,1547.253347971011,None,134,1547.737448444008,None,113,A,1,2021_May_24_1321,GazeFlow,2020.1.2,59.81496670151176,
12,Block503.xls,A,3,8,27,27,11,congruent,Left,Left,Right,72,77,5,yellow,2,6,/home/docky/apps/exp/images/72Yi.jpeg,/home/docky/apps/exp/images/77Y.jpeg,0,11,11,11,0,7,7,7,1548.7391567600425,None,1548.7391567600425,None,1,4.810366437013727,1548.7391567600425,None,1553.5830132529954,None,1553.5830132529954,None,1556.0856254289974,None,1556.0856254289974,None,1.267317263991572,1557.8890623930492,None,1557.8890623930492,None,6,1,1.5695439339615405,1559.1424277860206,None,1559.1424277860206,None,1559.1424277860206,None,1560.7284277620493,None,1,0.5338924039970152,1560.7284277620493,None,136,1561.2790523980511,None,113,A,1,2021_May_24_1321,GazeFlow,2020.1.2,59.81496670151176,
12,Block503.xls,A,,,,,,,,,,,,,,,,,,0,11,11,11,,,,,,,,,,,,,,,,,,,,,,,,,,,,,,,,,,,,,,,,,,,,113,A,1,2021_May_24_1321,GazeFlow,2020.1.2,59.81496670151176,
13,Block501.xls,A,1,1,54,54,12,congruent,Right,Right,Left,75,69,6,yellow,2,5,/home/docky/apps/exp/images/76Y.jpeg,/home/docky/apps/exp/images/69Yi.jpeg,0,12,12,12,0,0,0,0,1582.5750562520116,None,1582.5750562520116,None,1,4.324277366977185,1582.5750562520116,None,1586.9292096890276,None,1586.9292096890276,None,1589.449119757046,None,1589.449119757046,None,1.0496363599668257,1591.247713469027,None,1591.247713469027,None,5,1,1.0847552139894105,1592.2871605490218,None,1592.2871605490218,None,1592.2871605490218,None,1593.3888834110112,None,1,0.6353021599934436,1593.3888834110112,None,138,1594.040340541047,None,113,A,1,2021_May_24_1321,GazeFlow,2020.1.2,59.81496670151176,
13,Block501.xls,A,1,2,70,10,21,incongruent,Right,Left,Right,73,76,3,blue,2,6,/home/docky/apps/exp/images/73Bi.jpeg,/home/docky/apps/exp/images/76B.jpeg,0,12,12,12,0,1,1,1,1595.041797011043,None,1595.041797011043,None,1,5.862066697969567,1595.041797011043,None,1600.93986193405,None,1600.93986193405,None,1603.4415561770438,None,1603.4415561770438,None,1.3509956559864804,1605.238321698038,None,1605.238321698038,None,6,1,1.1689124929835089,1606.5805550560472,None,1606.5805550560472,None,1606.5805550560472,None,1607.7659015450045,None,1,0.6008701579994522,1607.7659015450045,None,140,1608.3832563580363,None,113,A,1,2021_May_24_1321,GazeFlow,2020.1.2,59.81496670151176,
13,Block501.xls,A,1,3,84,24,21,incongruent,Right,Left,Right,69,76,7,yellow,2,6,/home/docky/apps/exp/images/69Yi.jpeg,/home/docky/apps/exp/images/76Y.jpeg,0,12,12,12,0,2,2,2,1609.385099216015,None,1609.385099216015,None,1,6.9139093839912675,1609.385099216015,None,1616.3327608260443,None,1616.3327608260443,None,1618.8369067140156,None,1618.8369067140156,None,2.0354192630038597,1620.6386217850377,None,1620.6386217850377,None,6,1,1.0517202150076628,1622.6608793479973,None,1622.6608793479973,None,1622.6608793479973,None,1623.7287399300258,None,1,0.5177705889800563,1623.7287399300258,None,142,1624.2632436280255,None,113,A,1,2021_May_24_1321,GazeFlow,2020.1.2,59.81496670151176,
13,Block501.xls,A,1,4,26,26,11,congruent,Left,Left,Right,69,75,6,yellow,2,6,/home/docky/apps/exp/images/69Y.jpeg,/home/docky/apps/exp/images/76Yi.jpeg,0,12,12,12,0,3,3,3,1625.2652542560245,None,1625.2652542560245,None,1,16.24761631403817,1625.2652542560245,None,1641.5521840320434,None,1641.5521840320434,None,1644.049257012026,None,1644.049257012026,None,1.1837731209816411,1645.8543569710455,None,1645.8543569710455,None,6,1,1.0346436229883693,1647.023338204017,None,1647.023338204017,None,1647.023338204017,None,1648.0744715830078,None,1,0.6356771470163949,1648.0744715830078,None,144,1648.7261811480275,None,113,A,1,2021_May_24_1321,GazeFlow,2020.1.2,59.81496670151176,
13,Block501.xls,A,1,5,97,37,22,incongruent,Left,Right,Left,79,73,6,blue,2,5,/home/docky/apps/exp/images/79B.jpeg,/home/docky/apps/exp/images/73Bi.jpeg,0,12,12,12,0,4,4,4,1649.7276967930375,None,1649.7276967930375,None,1,5.060247623012401,1649.7276967930375,None,1654.8217236120254,None,1654.8217236120254,None,1657.3304058460053,None,1657.3304058460053,None,1.1669072119984776,1659.122709644027,None,1659.122709644027,None,5,1,1.1346260469872504,1660.2815697439946,None,1660.2815697439946,None,1660.2815697439946,None,1661.4330679459963,None,1,0.6512547379825264,1661.4330679459963,None,146,1662.1007208490046,None,113,A,1,2021_May_24_1321,GazeFlow,2020.1.2,59.81496670151176,
13,Block501.xls,A,1,6,98,38,22,incongruent,Left,Right,Left,79,73,6,blue,2,5,/home/docky/apps/exp/images/79B.jpeg,/home/docky/apps/exp/images/73Bi.jpeg,0,12,12,12,0,5,5,5,1663.1029855230008,None,1663.1029855230008,None,1,5.12747007899452,1663.1029855230008,None,1668.2639346260112,None,1668.2639346260112,None,1670.7662176710437,None,1670.7662176710437,None,1.050167094974313,1672.5701279200148,None,1672.5701279200148,None,5,1,2.287322887976188,1673.6067641160334,None,1673.6067641160334,None,1673.6067641160334,None,1675.9105620590271,None,1,0.8349563739611767,1675.9105620590271,None,148,1676.7621545820148,None,113,A,1,2021_May_24_1321,GazeFlow,2020.1.2,59.81496670151176,
13,Block501.xls,A,1,7,77,17,21,incongruent,Right,Left,Right,65,66,1,yellow,2,6,/home/docky/apps/exp/images/35B.jpeg,/home/docky/apps/exp/images/66Yi.jpeg,0,12,12,12,0,6,6,6,1677.7644361440325,None,1677.7644361440325,None,1,5.944970502983779,1677.7644361440325,None,1683.7431655650144,None,1683.7431655650144,None,1686.245534472051,None,1686.245534472051,None,0.8333113060216419,1688.0495472290204,None,1688.0495472290204,None,6,1,1.0683539629681036,1688.869067792024,None,1688.869067792024,None,1688.869067792024,None,1689.9536201540031,None,1,0.5184724840219133,1689.9536201540031,None,150,1690.488612901012,None,113,A,1,2021_May_24_1321,GazeFlow,2020.1.2,59.81496670151176,
13,Block501.xls,A,1,8,50,50,12,congruent,Right,Right,Left,66,65,1,yellow,2,5,/home/docky/apps/exp/images/66Y.jpeg,/home/docky/apps/exp/images/35Bi.jpeg,0,12,12,12,0,7,7,7,1691.490228003997,None,1691.490228003997,None,1,4.959982467000373,1691.490228003997,None,1696.4816182440263,None,1696.4816182440263,None,1698.9875570930308,None,1698.9875570930308,None,0.9836150340270251,1700.7893972910242,None,1700.7893972910242,None,6,0,1.1350786790135317,1701.7601414620294,None,1701.7601414620294,None,1701.7601414620294,None,1702.9118315289961,None,1,0.6017911109956913,1702.9118315289961,None,148,1703.5300324000418,None,113,A,1,2021_May_24_1321,GazeFlow,2020.1.2,59.81496670151176,
13,Block501.xls,A,,,,,,,,,,,,,,,,,,0,12,12,12,,,,,,,,,,,,,,,,,,,,,,,,,,,,,,,,,,,,,,,,,,,,113,A,1,2021_May_24_1321,GazeFlow,2020.1.2,59.81496670151176,
14,Block513.xls,A,13,1,32,32,12,congruent,Right,Right,Left,19,16,3,blue,2,5,/home/docky/apps/exp/images/19B.jpeg,/home/docky/apps/exp/images/16Bi.jpeg,0,13,13,13,0,0,0,0,1726.2583680429962,None,1726.2583680429962,None,1,3.331412794010248,1726.2583680429962,None,1729.6116601140238,None,1729.6116601140238,None,1732.1337304650224,None,1732.1337304650224,None,1.3670951729873195,1733.9390073650284,None,1733.9390073650284,None,5,1,1.0189864629646763,1735.2907125870115,None,1735.2907125870115,None,1735.2907125870115,None,1736.3259187380318,None,1,0.5840481999912299,1736.3259187380318,None,150,1736.926601922023,None,113,A,1,2021_May_24_1321,GazeFlow,2020.1.2,59.81496670151176,
14,Block513.xls,A,13,2,81,21,21,incongruent,Right,Left,Right,38,39,1,yellow,2,6,/home/docky/apps/exp/images/38Yi.jpeg,/home/docky/apps/exp/images/39Y.jpeg,0,13,13,13,0,1,1,1,1737.9285480850376,None,1737.9285480850376,None,1,4.493627897987608,1737.9285480850376,None,1742.4553399180295,None,1742.4553399180295,None,1744.9577074500266,None,1744.9577074500266,None,1.033684589958284,1746.7609904010314,None,1746.7609904010314,None,6,1,1.1347082359716296,1747.7815346390125,None,1747.7815346390125,None,1747.7815346390125,None,1748.9330969110015,None,1,0.5686735230265185,1748.9330969110015,None,152,1749.5178276060033,None,113,A,1,2021_May_24_1321,GazeFlow,2020.1.2,59.81496670151176,
14,Block513.xls,A,13,3,92,32,22,incongruent,Left,Right,Left,19,16,3,blue,2,5,/home/docky/apps/exp/images/19B.jpeg,/home/docky/apps/exp/images/16Bi.jpeg,0,13,13,13,0,2,2,2,1750.5193946860381,None,1750.5193946860381,None,1,4.776483475987334,1750.5193946860381,None,1755.3295229070354,None,1755.3295229070354,None,1757.8328703070292,None,1757.8328703070292,None,1.05027018499095,1759.6363449160126,None,1759.6363449160126,None,5,1,0.9681818510289304,1760.6727079920238,None,1760.6727079920238,None,1760.6727079920238,None,1761.6576731670066,None,1,0.6186844990006648,1761.6576731670066,None,154,1762.2924159610411,None,113,A,1,2021_May_24_1321,GazeFlow,2020.1.2,59.81496670151176,
14,Block513.xls,A,13,4,6,6,11,congruent,Left,Left,Right,65,66,1,blue,2,6,/home/docky/apps/exp/images/35Y.jpeg,/home/docky/apps/exp/images/66Bi.jpeg,0,13,13,13,0,3,3,3,1763.2939013470314,None,1763.2939013470314,None,1,4.793189094983973,1763.2939013470314,None,1768.121533187048,None,1768.121533187048,None,1770.6271629279945,None,1770.6271629279945,None,1.7182141339872032,1772.4266724089975,None,1772.4266724089975,None,6,1,1.0354182139853947,1774.1318882430205,None,1774.1318882430205,None,1774.1318882430205,None,1775.1838399140397,None,1,0.48372032097540796,1775.1838399140397,None,156,1775.6842546850094,None,113,A,1,2021_May_24_1321,GazeFlow,2020.1.2,59.81496670151176,
14,Block513.xls,A,13,5,67,7,21,incongruent,Right,Left,Right,38,39,1,blue,2,6,/home/docky/apps/exp/images/38Bi.jpeg,/home/docky/apps/exp/images/39B.jpeg,0,13,13,13,0,4,4,4,1776.6862658630125,None,1776.6862658630125,None,1,4.576302297995426,1776.6862658630125,None,1781.2961121069966,None,1781.2961121069966,None,1783.801004634006,None,1783.801004634006,None,1.3175661700079218,1785.6024021820049,None,1785.6024021820049,None,6,1,1.035482157021761,1786.906433619035,None,1786.906433619035,None,1786.906433619035,None,1787.958234270045,None,1,0.5345382809755392,1787.958234270045,None,158,1788.5091294360464,None,113,A,1,2021_May_24_1321,GazeFlow,2020.1.2,59.81496670151176,
14,Block513.xls,A,13,6,111,51,22,incongruent,Left,Right,Left,66,65,1,yellow,2,5,/home/docky/apps/exp/images/66Yi.jpeg,/home/docky/apps/exp/images/35B.jpeg,0,13,13,13,0,5,5,5,1789.51109379204,None,1789.51109379204,None,1,4.425732969015371,1789.51109379204,None,1793.9720281060436,None,1793.9720281060436,None,1796.4732483310509,None,1796.4732483310509,None,1.1674045459949411,1798.2722561740084,None,1798.2722561740084,None,5,1,1.0349366699811071,1799.4305596130434,None,1799.4305596130434,None,1799.4305596130434,None,1800.482016589027,None,1,0.5845048280316405,1800.482016589027,None,160,1801.083110569045,None,113,A,1,2021_May_24_1321,GazeFlow,2020.1.2,59.81496670151176,
14,Block513.xls,A,13,7,88,28,21,incongruent,Right,Left,Right,79,82,3,yellow,2,6,/home/docky/apps/exp/images/79Y.jpeg,/home/docky/apps/exp/images/80Yi.jpeg,0,13,13,13,0,6,6,6,1802.085003242013,None,1802.085003242013,None,1,5.261304836021736,1802.085003242013,None,1807.379825592041,None,1807.379825592041,None,1809.8822672910173,None,1809.8822672910173,None,0.9332064089830965,1811.686703474028,None,1811.686703474028,None,6,1,1.0014870049781166,1812.606001177046,None,1812.606001177046,None,1812.606001177046,None,1813.6241476240102,None,1,0.5015682110097259,1813.6241476240102,None,162,1814.1419761000434,None,113,A,1,2021_May_24_1321,GazeFlow,2020.1.2,59.81496670151176,
14,Block513.xls,A,13,8,14,14,11,congruent,Left,Left,Right,80,83,3,blue,2,6,/home/docky/apps/exp/images/80B.jpeg,/home/docky/apps/exp/images/83Bi.jpeg,0,13,13,13,0,7,7,7,1815.1436871340265,None,1815.1436871340265,None,1,5.0103313499712385,1815.1436871340265,None,1820.187682032003,None,1820.187682032003,None,1822.6905025320011,None,1822.6905025320011,None,0.8167129749781452,1824.4942244300037,None,1824.4942244300037,None,6,1,1.0180131259839982,1825.2971175020211,None,1825.2971175020211,None,1825.2971175020211,None,1826.3317588120117,None,1,0.5016685869777575,1826.3317588120117,None,164,1826.8501714900485,None,113,A,1,2021_May_24_1321,GazeFlow,2020.1.2,59.81496670151176,
14,Block513.xls,A,,,,,,,,,,,,,,,,,,0,13,13,13,,,,,,,,,,,,,,,,,,,,,,,,,,,,,,,,,,,,,,,,,,,,113,A,1,2021_May_24_1321,GazeFlow,2020.1.2,59.81496670151176,
15,Block514.xls,A,14,1,113,53,22,incongruent,Left,Right,Left,75,69,6,yellow,2,5,/home/docky/apps/exp/images/76Y.jpeg,/home/docky/apps/exp/images/69Yi.jpeg,0,14,14,14,0,0,0,0,1847.459305973025,None,1847.459305973025,None,1,3.6757614060188644,1847.459305973025,None,1851.166370004008,None,1851.166370004008,None,1853.6835592309944,None,1853.6835592309944,None,1.1166630299994722,1855.4891312310356,None,1855.4891312310356,None,5,1,1.1182902420405298,1856.5909518779954,None,1856.5909518779954,None,1856.5909518779954,None,1857.7258681700332,None,1,0.6011857370031066,1857.7258681700332,None,166,1858.3437505480251,None,113,A,1,2021_May_24_1321,GazeFlow,2020.1.2,59.81496670151176,
15,Block514.xls,A,14,2,45,45,12,congruent,Right,Right,Left,39,38,1,blue,2,5,/home/docky/apps/exp/images/39B.jpeg,/home/docky/apps/exp/images/38Bi.jpeg,0,14,14,14,0,1,1,1,1859.346135273052,None,1859.346135273052,None,1,5.327330487023573,1859.346135273052,None,1864.707003254036,None,1864.707003254036,None,1867.2174577080295,None,1867.2174577080295,None,1.0834812740213238,1869.0129339450505,None,1869.0129339450505,None,5,1,2.454249529982917,1870.0836924120085,None,1870.0836924120085,None,1870.0836924120085,None,1872.5547112430213,None,1,0.8188650049851276,1872.5547112430213,None,168,1873.389800533012,None,113,A,1,2021_May_24_1321,GazeFlow,2020.1.2,59.81496670151176,
15,Block514.xls,A,14,3,52,52,12,congruent,Right,Right,Left,75,69,6,yellow,2,5,/home/docky/apps/exp/images/76Y.jpeg,/home/docky/apps/exp/images/69Yi.jpeg,0,14,14,14,0,2,2,2,1874.3919544680393,None,1874.3919544680393,None,1,5.427785714971833,1874.3919544680393,None,1879.8532089299988,None,1879.8532089299988,None,1882.3559402850224,None,1882.3559402850224,None,1.4675841690041125,1884.154178333003,None,1884.154178333003,None,5,1,1.1520404879702255,1885.6136820890242,None,1885.6136820890242,None,1885.6136820890242,None,1886.7823696270352,None,1,0.6512266540084966,1886.7823696270352,None,170,1887.45024345204,None,113,A,1,2021_May_24_1321,GazeFlow,2020.1.2,59.81496670151176,
15,Block514.xls,A,14,4,106,46,22,incongruent,Left,Right,Left,35,33,2,yellow,2,5,/home/docky/apps/exp/images/35Yi.jpeg,/home/docky/apps/exp/images/33Y.jpeg,0,14,14,14,0,3,3,3,1888.4526457030443,None,1888.4526457030443,None,1,5.393874272995163,1888.4526457030443,None,1893.880405059026,None,1893.880405059026,None,1896.386264434026,None,1896.386264434026,None,1.3840424239751883,1898.181869125052,None,1898.181869125052,None,5,1,1.3863816320081241,1899.5577684130403,None,1899.5577684130403,None,1899.5577684130403,None,1900.9600960200187,None,1,0.7011210159980692,1900.9600960200187,None,172,1901.677744856046,None,113,A,1,2021_May_24_1321,GazeFlow,2020.1.2,59.81496670151176,
15,Block514.xls,A,14,5,109,49,22,incongruent,Left,Right,Left,39,38,1,yellow,2,5,/home/docky/apps/exp/images/39Yi.jpeg,/home/docky/apps/exp/images/38Y.jpeg,0,14,14,14,0,4,4,4,1902.6798886680044,None,1902.6798886680044,None,1,5.57841749599902,1902.6798886680044,None,1908.291642404045,None,1908.291642404045,None,1910.7943289250252,None,1910.7943289250252,None,1.7181373400380835,1912.5980722290114,None,1912.5980722290114,None,6,0,1.2517662050086074,1914.3030643710517,None,1914.3030643710517,None,1914.3030643710517,None,1915.5716441349941,None,1,0.4673610799945891,1915.5716441349941,None,170,1916.0556779150502,None,113,A,1,2021_May_24_1321,GazeFlow,2020.1.2,59.81496670151176,
15,Block514.xls,A,14,6,89,29,21,incongruent,Right,Left,Right,79,82,3,yellow,2,6,/home/docky/apps/exp/images/79Yi.jpeg,/home/docky/apps/exp/images/80Y.jpeg,0,14,14,14,0,5,5,5,1917.0579562430503,None,1917.0579562430503,None,1,5.427695030986797,1917.0579562430503,None,1922.5194513170281,None,1922.5194513170281,None,1925.0240272590308,None,1925.0240272590308,None,1.1171992089948617,1926.8262050920166,None,1926.8262050920166,None,6,1,1.0684147999854758,1927.929496597033,None,1927.929496597033,None,1927.929496597033,None,1929.0141851000371,None,1,0.5177352519822307,1929.0141851000371,None,172,1929.548908218043,None,113,A,1,2021_May_24_1321,GazeFlow,2020.1.2,59.81496670151176,
15,Block514.xls,A,14,7,91,31,22,incongruent,Left,Right,Left,19,16,3,blue,2,5,/home/docky/apps/exp/images/19Bi.jpeg,/home/docky/apps/exp/images/16B.jpeg,0,14,14,14,0,6,6,6,1930.5508898530388,None,1930.5508898530388,None,1,5.2441863709827885,1930.5508898530388,None,1935.8267553230398,None,1935.8267553230398,None,1938.3315564070363,None,1938.3315564070363,None,1.1839287820039317,1940.1302466010093,None,1940.1302466010093,None,5,1,1.034543979971204,1941.3056436150218,None,1941.3056436150218,None,1941.3056436150218,None,1942.3569322770345,None,1,0.6018100340152159,1942.3569322770345,None,174,1942.9753504130058,None,113,A,1,2021_May_24_1321,GazeFlow,2020.1.2,59.81496670151176,
15,Block514.xls,A,14,8,79,19,21,incongruent,Right,Left,Right,62,65,3,yellow,2,6,/home/docky/apps/exp/images/38B.jpeg,/home/docky/apps/exp/images/35Bi.jpeg,0,14,14,14,0,7,7,7,1943.976733235002,None,1943.976733235002,None,1,6.09616192500107,1943.976733235002,None,1950.110974493029,None,1950.110974493029,None,1952.6099324230454,None,1952.6099324230454,None,0.8165948709938675,1954.4134007060202,None,1954.4134007060202,None,6,1,1.418993978004437,1955.2158819810138,None,1955.2158819810138,None,1955.2158819810138,None,1956.6514909150428,None,1,0.6182930039940402,1956.6514909150428,None,176,1957.2863285070052,None,113,A,1,2021_May_24_1321,GazeFlow,2020.1.2,59.81496670151176,
15,Block514.xls,A,,,,,,,,,,,,,,,,,,0,14,14,14,,,,,,,,,,,,,,,,,,,,,,,,,,,,,,,,,,,,,,,,,,,,113,A,1,2021_May_24_1321,GazeFlow,2020.1.2,59.81496670151176,
