Nblock,condsFile,grouping,Block,TrialBlock,N,trialN,trialCond,gazeCon,gazedirR,corrBinR,corrBinP,valLBY,valRBY,diff,colorCube,feedbacktext,corrAns,imageL,imageR,SelBlocks.thisRepN,SelBlocks.thisTrialN,SelBlocks.thisN,SelBlocks.thisIndex,Trials.thisRepN,Trials.thisTrialN,Trials.thisN,Trials.thisIndex,waitCube.started,waitCube.stopped,text_3.started,text_3.stopped,StartKeyPress.keys,StartKeyPress.rt,StartKeyPress.started,StartKeyPress.stopped,StimL.started,StimL.stopped,StimR.started,StimR.stopped,imageStim2L.started,imageStim2L.stopped,imageStim2R.started,imageStim2R.stopped,RTkeyRelease,imageStim3L.started,imageStim3L.stopped,imageStim3R.started,imageStim3R.stopped,dropResp.keys,dropResp.corr,dropResp.rt,dropResp.started,dropResp.stopped,imageStim5L.started,imageStim5L.stopped,imageStim5R.started,imageStim5R.stopped,text_2.started,text_2.stopped,ReturnSpace.keys,ReturnSpace.rt,ReturnSpace.started,ReturnSpace.stopped,totalpoints,textFeedback.started,textFeedback.stopped,participant,group,session,date,expName,psychopyVersion,frameRate,
1,Block809.xls,B,9,1,93,93,None,congruent,Right,Right,Left,80,79,1,yellow,2,5,/home/docky/apps/exp/images/80Y.jpeg,/home/docky/apps/exp/images/79Yi.jpeg,0,0,0,0,0,0,0,0,22.63478829700034,None,22.63478829700034,None,1,27.28753134800354,22.63478829700034,None,49.95294513599947,None,49.95294513599947,None,52.475170313962735,None,52.475170313962735,None,2.9874513579998165,54.279329819954,None,54.279329819954,None,6,0,1.0975314079551026,57.26952802698361,None,57.26952802698361,None,57.26952802698361,None,58.38352512900019,None,1,0.7187656799796969,58.38352512900019,None,-2,59.117928035964724,None,114,B,1,2021_May_24_1508,GazeFlow,2020.1.2,59.850540378183105,
1,Block809.xls,B,9,2,15,15,None,congruent,Left,Left,Right,38,39,1,blue,2,6,/home/docky/apps/exp/images/38B.jpeg,/home/docky/apps/exp/images/39Bi.jpeg,0,0,0,0,0,1,1,1,60.120368834992405,None,60.120368834992405,None,1,5.978592760977335,60.120368834992405,None,66.13285409094533,None,66.13285409094533,None,68.63723277294775,None,68.63723277294775,None,2.2692186560016125,70.43881068797782,None,70.43881068797782,None,6,1,2.304028768965509,72.69451352895703,None,72.69451352895703,None,72.69451352895703,None,75.01586032594787,None,1,0.6344593649846502,75.01586032594787,None,0,75.66683534899494,None,114,B,1,2021_May_24_1508,GazeFlow,2020.1.2,59.850540378183105,
1,Block809.xls,B,9,3,117,21,None,incongruent,Left,Right,Left,39,38,1,yellow,2,5,/home/docky/apps/exp/images/39Yi.jpeg,/home/docky/apps/exp/images/38Y.jpeg,0,0,0,0,0,2,2,2,76.66896487696795,None,76.66896487696795,None,1,5.878148414019961,76.66896487696795,None,82.58106915699318,None,82.58106915699318,None,85.08568761497736,None,85.08568761497736,None,3.0047253140364774,86.8828985139844,None,86.8828985139844,None,5,1,0.9839460119837895,89.89506670698756,None,89.89506670698756,None,89.89506670698756,None,90.89582677395083,None,1,0.567759211990051,90.89582677395083,None,2,91.4805499559734,None,114,B,1,2021_May_24_1508,GazeFlow,2020.1.2,59.850540378183105,
1,Block809.xls,B,9,4,94,94,None,congruent,Right,Right,Left,80,79,1,yellow,2,5,/home/docky/apps/exp/images/80Y.jpeg,/home/docky/apps/exp/images/79Yi.jpeg,0,0,0,0,0,3,3,3,92.48249127197778,None,92.48249127197778,None,1,4.87687553500291,92.48249127197778,None,97.39262692595366,None,97.39262692595366,None,99.89754146599444,None,99.89754146599444,None,2.168958157999441,101.70059731695801,None,101.70059731695801,None,6,0,1.1683400819892995,103.8543648099876,None,103.8543648099876,None,103.8543648099876,None,105.03962551994482,None,1,0.5513086560531519,105.03962551994482,None,0,105.60707478795666,None,114,B,1,2021_May_24_1508,GazeFlow,2020.1.2,59.850540378183105,
1,Block809.xls,B,9,5,41,41,None,congruent,Right,Right,Left,79,76,3,blue,2,5,/home/docky/apps/exp/images/79Bi.jpeg,/home/docky/apps/exp/images/76B.jpeg,0,0,0,0,0,4,4,4,106.60983641294297,None,106.60983641294297,None,1,5.2267971560359,106.60983641294297,None,111.87060673395172,None,111.87060673395172,None,114.37741771194851,None,114.37741771194851,None,5.525912644981872,116.17884093197063,None,116.17884093197063,None,5,1,0.967322209966369,121.70622451894451,None,121.70622451894451,None,121.70622451894451,None,122.69024308194639,None,1,0.5509773589437827,122.69024308194639,None,2,123.25805684097577,None,114,B,1,2021_May_24_1508,GazeFlow,2020.1.2,59.850540378183105,
1,Block809.xls,B,9,6,36,36,None,congruent,Right,Right,Left,79,73,6,blue,2,5,/home/docky/apps/exp/images/79Bi.jpeg,/home/docky/apps/exp/images/73B.jpeg,0,0,0,0,0,5,5,5,124.26026544894557,None,124.26026544894557,None,1,7.281486942025367,124.26026544894557,None,131.57505887799198,None,131.57505887799198,None,134.07833192998078,None,134.07833192998078,None,2.5703195079695433,135.8764171009534,None,135.8764171009534,None,5,1,1.052388901996892,138.45346842397703,None,138.45346842397703,None,138.45346842397703,None,139.52271100098733,None,1,0.5680555360158905,139.52271100098733,None,4,140.10708891396644,None,114,B,1,2021_May_24_1508,GazeFlow,2020.1.2,59.850540378183105,
1,Block809.xls,B,9,7,78,78,None,congruent,Right,Right,Left,39,38,1,yellow,2,5,/home/docky/apps/exp/images/39Yi.jpeg,/home/docky/apps/exp/images/38Y.jpeg,0,0,0,0,0,6,6,6,141.10947579296771,None,141.10947579296771,None,1,7.281159180041868,141.10947579296771,None,148.42420437099645,None,148.42420437099645,None,150.9289255119511,None,150.9289255119511,None,4.006400516955182,152.73225458199158,None,152.73225458199158,None,5,1,1.0033550200168975,156.73780923796585,None,156.73780923796585,None,156.73780923796585,None,157.75755780097097,None,1,0.6012345760245807,157.75755780097097,None,6,158.3755065499572,None,114,B,1,2021_May_24_1508,GazeFlow,2020.1.2,59.850540378183105,
1,Block809.xls,B,9,8,29,29,None,congruent,Right,Right,Left,38,35,3,blue,2,5,/home/docky/apps/exp/images/38B.jpeg,/home/docky/apps/exp/images/35Bi.jpeg,0,0,0,0,0,7,7,7,159.37796095595695,None,159.37796095595695,None,1,6.680089165049139,159.37796095595695,None,166.0915610739612,None,166.0915610739612,None,168.59632693597814,None,168.59632693597814,None,2.2863780259503983,170.3996377409785,None,170.3996377409785,None,5,1,0.9343825959949754,172.67055961699225,None,172.67055961699225,None,172.67055961699225,None,173.62137283594348,None,1,0.6182304359972477,173.62137283594348,None,8,174.25606329197763,None,114,B,1,2021_May_24_1508,GazeFlow,2020.1.2,59.850540378183105,
1,Block809.xls,B,,,,,,,,,,,,,,,,,,0,0,0,0,,,,,,,,,,,,,,,,,,,,,,,,,,,,,,,,,,,,,,,,,,,,114,B,1,2021_May_24_1508,GazeFlow,2020.1.2,59.850540378183105,
2,Block805.xls,B,5,1,16,16,None,congruent,Left,Left,Right,73,76,3,blue,2,6,/home/docky/apps/exp/images/73B.jpeg,/home/docky/apps/exp/images/76Bi.jpeg,0,1,1,1,0,0,0,0,214.80227314995136,None,214.80227314995136,None,1,8.904239088995382,214.80227314995136,None,223.73648834298365,None,223.73648834298365,None,226.25846454396378,None,226.25846454396378,None,1.868021871021483,228.06069670495344,None,228.06069670495344,None,6,1,1.0184496869915165,229.91394625598332,None,229.91394625598332,None,229.91394625598332,None,230.94899792899378,None,1,0.5341257880209014,230.94899792899378,None,10,231.49986717198044,None,114,B,1,2021_May_24_1508,GazeFlow,2020.1.2,59.850540378183105,
2,Block805.xls,B,5,2,2,2,None,congruent,Left,Left,Right,16,19,3,blue,2,6,/home/docky/apps/exp/images/16B.jpeg,/home/docky/apps/exp/images/19Bi.jpeg,0,1,1,1,0,1,1,1,232.50159490294755,None,232.50159490294755,None,1,6.045880855992436,232.50159490294755,None,238.5810654979432,None,238.5810654979432,None,241.08404664497357,None,241.08404664497357,None,2.887582562980242,242.88263848499628,None,242.88263848499628,None,6,1,1.0024127679644153,245.7768175409874,None,245.7768175409874,None,245.7768175409874,None,246.79577458597487,None,1,0.550723347987514,246.79577458597487,None,12,247.36361173994374,None,114,B,1,2021_May_24_1508,GazeFlow,2020.1.2,59.850540378183105,
2,Block805.xls,B,5,3,64,64,None,congruent,Left,Left,Right,69,76,7,yellow,2,6,/home/docky/apps/exp/images/69Y.jpeg,/home/docky/apps/exp/images/76Yi.jpeg,0,1,1,1,0,2,2,2,248.36579363897908,None,248.36579363897908,None,1,5.67887070501456,248.36579363897908,None,254.0773118659854,None,254.0773118659854,None,256.5806558249751,None,256.5806558249751,None,2.019207241013646,258.3842006009654,None,258.3842006009654,None,6,1,1.051478273991961,260.38909569295356,None,260.38909569295356,None,260.38909569295356,None,261.4572795549757,None,1,0.4677420210209675,261.4572795549757,None,14,261.9414939879789,None,114,B,1,2021_May_24_1508,GazeFlow,2020.1.2,59.850540378183105,
2,Block805.xls,B,5,4,61,61,None,congruent,Left,Left,Right,38,39,1,yellow,2,6,/home/docky/apps/exp/images/38Yi.jpeg,/home/docky/apps/exp/images/39Y.jpeg,0,1,1,1,0,3,3,3,262.9436266369885,None,262.9436266369885,None,1,4.4257945860153995,262.9436266369885,None,267.40332914795727,None,267.40332914795727,None,269.9078319769469,None,269.9078319769469,None,3.0377265400020406,271.7097107679583,None,271.7097107679583,None,5,0,0.9841102340142243,274.7507410759572,None,274.7507410759572,None,274.7507410759572,None,275.7516199029633,None,1,0.5177381070097908,275.7516199029633,None,12,276.2860380379716,None,114,B,1,2021_May_24_1508,GazeFlow,2020.1.2,59.850540378183105,
2,Block805.xls,B,5,5,23,23,None,congruent,Left,Left,Right,80,83,3,blue,2,6,/home/docky/apps/exp/images/80B.jpeg,/home/docky/apps/exp/images/83Bi.jpeg,0,1,1,1,0,4,4,4,277.2881317999563,None,277.2881317999563,None,1,5.74517858895706,277.2881317999563,None,283.0664482359425,None,283.0664482359425,None,285.57005378894974,None,285.57005378894974,None,1.7014158759848215,287.3731431969791,None,287.3731431969791,None,6,1,0.9847637329949066,289.0610479309689,None,289.0610479309689,None,289.0610479309689,None,290.06280945794424,None,1,0.5671971649862826,290.06280945794424,None,14,290.6465976339532,None,114,B,1,2021_May_24_1508,GazeFlow,2020.1.2,59.850540378183105,
2,Block805.xls,B,5,6,87,87,None,congruent,Right,Right,Left,76,69,7,yellow,2,5,/home/docky/apps/exp/images/76Yi.jpeg,/home/docky/apps/exp/images/69Y.jpeg,0,1,1,1,0,5,5,5,291.648961459985,None,291.648961459985,None,1,5.9453281100140885,291.648961459985,None,297.6281177189667,None,297.6281177189667,None,300.13130174798425,None,300.13130174798425,None,1.7848900019889697,301.9291919679963,None,301.9291919679963,None,5,1,0.9188328390009701,303.70599073398625,None,303.70599073398625,None,303.70599073398625,None,304.6410587359569,None,1,0.40030875598313287,304.6410587359569,None,16,305.05805416498333,None,114,B,1,2021_May_24_1508,GazeFlow,2020.1.2,59.850540378183105,
2,Block805.xls,B,5,7,4,4,None,congruent,Left,Left,Right,35,38,3,blue,2,6,/home/docky/apps/exp/images/35B.jpeg,/home/docky/apps/exp/images/38Bi.jpeg,0,1,1,1,0,6,6,6,306.06005799694685,None,306.06005799694685,None,1,5.645347588986624,306.06005799694685,None,311.73852673597867,None,311.73852673597867,None,314.24345308495685,None,314.24345308495685,None,1.785096759966109,316.04452149395365,None,316.04452149395365,None,6,1,0.8517739080125466,317.8165406069602,None,317.8165406069602,None,317.8165406069602,None,318.6846814289456,None,1,0.3839655269985087,318.6846814289456,None,18,319.0851009139442,None,114,B,1,2021_May_24_1508,GazeFlow,2020.1.2,59.850540378183105,
2,Block805.xls,B,5,8,114,18,None,incongruent,Right,Left,Right,79,82,3,yellow,2,6,/home/docky/apps/exp/images/79Y.jpeg,/home/docky/apps/exp/images/80Yi.jpeg,0,1,1,1,0,7,7,7,320.08714408095693,None,320.08714408095693,None,1,1.8205676619545557,320.08714408095693,None,321.9423168840003,None,321.9423168840003,None,324.4466054609511,None,324.4466054609511,None,13.491401746985503,326.24798563995864,None,326.24798563995864,None,6,1,0.9509483029833063,339.7426967979991,None,339.7426967979991,None,339.7426967979991,None,340.71014339698013,None,1,0.5677438429556787,340.71014339698013,None,20,341.2947857939871,None,114,B,1,2021_May_24_1508,GazeFlow,2020.1.2,59.850540378183105,
2,Block805.xls,B,,,,,,,,,,,,,,,,,,0,1,1,1,,,,,,,,,,,,,,,,,,,,,,,,,,,,,,,,,,,,,,,,,,,,114,B,1,2021_May_24_1508,GazeFlow,2020.1.2,59.850540378183105,
3,Block804.xls,B,4,1,95,95,None,congruent,Right,Right,Left,80,79,1,yellow,2,5,/home/docky/apps/exp/images/80Yi.jpeg,/home/docky/apps/exp/images/79Y.jpeg,0,2,2,2,0,0,0,0,364.3412339639617,None,364.3412339639617,None,1,8.974051313998643,364.3412339639617,None,373.3388298909995,None,373.3388298909995,None,375.86227763595525,None,375.86227763595525,None,1.9347820819821209,377.6660671509453,None,377.6660671509453,None,5,1,0.9353049430064857,379.58568804099923,None,379.58568804099923,None,379.58568804099923,None,380.5374993279693,None,1,0.43382295995252207,380.5374993279693,None,22,380.98790179699427,None,114,B,1,2021_May_24_1508,GazeFlow,2020.1.2,59.850540378183105,
3,Block804.xls,B,4,2,107,11,None,incongruent,Left,Right,Left,83,80,3,blue,2,5,/home/docky/apps/exp/images/83Bi.jpeg,/home/docky/apps/exp/images/80B.jpeg,0,2,2,2,0,1,1,1,381.98975196294487,None,381.98975196294487,None,1,5.161324976012111,381.98975196294487,None,387.18434864399023,None,387.18434864399023,None,389.6911569039803,None,389.6911569039803,None,1.5179780359612778,391.4905096619623,None,391.4905096619623,None,6,0,0.868723598017823,392.99469435599167,None,392.99469435599167,None,392.99469435599167,None,393.8796563029755,None,1,0.4015834790188819,393.8796563029755,None,20,394.29735622298904,None,114,B,1,2021_May_24_1508,GazeFlow,2020.1.2,59.850540378183105,
3,Block804.xls,B,4,3,27,27,None,congruent,Right,Right,Left,19,16,3,blue,2,5,/home/docky/apps/exp/images/19Bi.jpeg,/home/docky/apps/exp/images/16B.jpeg,0,2,2,2,0,2,2,2,395.2986487909802,None,395.2986487909802,None,1,5.995584697986487,395.2986487909802,None,401.328075451951,None,401.328075451951,None,403.83624144195346,None,403.83624144195346,None,2.118914232007228,405.63674497796455,None,405.63674497796455,None,5,1,0.9345149319851771,407.74022454494843,None,407.74022454494843,None,407.74022454494843,None,408.6915368179907,None,1,0.4512154209660366,408.6915368179907,None,22,409.15889115195023,None,114,B,1,2021_May_24_1508,GazeFlow,2020.1.2,59.850540378183105,
3,Block804.xls,B,4,4,101,5,None,incongruent,Right,Left,Right,76,79,3,blue,2,6,/home/docky/apps/exp/images/76B.jpeg,/home/docky/apps/exp/images/79Bi.jpeg,0,2,2,2,0,3,3,3,410.1607607799815,None,410.1607607799815,None,1,7.081175247032661,410.1607607799815,None,417.2664148469921,None,417.2664148469921,None,419.77866874594474,None,419.77866874594474,None,2.5035380580229685,421.5840763079468,None,421.5840763079468,None,6,1,0.8854253770550713,424.08744700596435,None,424.08744700596435,None,424.08744700596435,None,424.9895314159803,None,1,0.45100321603240445,424.9895314159803,None,24,425.4570527889882,None,114,B,1,2021_May_24_1508,GazeFlow,2020.1.2,59.850540378183105,
3,Block804.xls,B,4,5,47,47,None,congruent,Right,Right,Left,39,38,1,blue,2,5,/home/docky/apps/exp/images/39Bi.jpeg,/home/docky/apps/exp/images/38B.jpeg,0,2,2,2,0,4,4,4,426.45950898196315,None,426.45950898196315,None,1,6.379710206994787,426.45950898196315,None,432.87237078294856,None,432.87237078294856,None,435.3771777759539,None,435.3771777759539,None,2.7206048159860075,437.18095624796115,None,437.18095624796115,None,5,1,0.9008353099925444,439.90285332495114,None,439.90285332495114,None,439.90285332495114,None,440.8200725399656,None,1,0.45092792401555926,440.8200725399656,None,26,441.28754479897907,None,114,B,1,2021_May_24_1508,GazeFlow,2020.1.2,59.850540378183105,
3,Block804.xls,B,4,6,90,90,None,congruent,Right,Right,Left,77,72,5,yellow,2,5,/home/docky/apps/exp/images/77Yi.jpeg,/home/docky/apps/exp/images/72Y.jpeg,0,2,2,2,0,5,5,5,442.2900594579987,None,442.2900594579987,None,1,5.460563722997904,442.2900594579987,None,447.78461216698634,None,447.78461216698634,None,450.2873920479906,None,450.2873920479906,None,1.667933409975376,452.091217321984,None,452.091217321984,None,5,1,0.834947468014434,453.74573365598917,None,453.74573365598917,None,453.74573365598917,None,454.5972985739936,None,1,0.46714732697000727,454.5972985739936,None,28,455.0809402439627,None,114,B,1,2021_May_24_1508,GazeFlow,2020.1.2,59.850540378183105,
3,Block804.xls,B,4,7,12,12,None,congruent,Left,Left,Right,38,39,1,blue,2,6,/home/docky/apps/exp/images/38B.jpeg,/home/docky/apps/exp/images/39Bi.jpeg,0,2,2,2,0,6,6,6,456.0828618319938,None,456.0828618319938,None,1,5.528097305970732,456.0828618319938,None,461.64488639699994,None,461.64488639699994,None,464.14958453696454,None,464.14958453696454,None,1.7018595039844513,465.9459752579569,None,465.9459752579569,None,6,1,0.9686786119709723,467.6391385749448,None,467.6391385749448,None,467.6391385749448,None,468.6243159629521,None,1,0.3667829259647988,468.6243159629521,None,30,469.00798454199685,None,114,B,1,2021_May_24_1508,GazeFlow,2020.1.2,59.850540378183105,
3,Block804.xls,B,4,8,20,20,None,congruent,Left,Left,Right,76,79,3,blue,2,6,/home/docky/apps/exp/images/76Bi.jpeg,/home/docky/apps/exp/images/79B.jpeg,0,2,2,2,0,7,7,7,470.0096275129472,None,470.0096275129472,None,1,7.782616886950564,470.0096275129472,None,477.82616016297834,None,477.82616016297834,None,480.32947735098423,None,480.32947735098423,None,2.152227854996454,482.1323697179905,None,482.1323697179905,None,6,1,0.951674407988321,484.27140835794853,None,484.27140835794853,None,484.27140835794853,None,485.23953618796077,None,1,0.3839418609859422,485.23953618796077,None,32,485.6399502949789,None,114,B,1,2021_May_24_1508,GazeFlow,2020.1.2,59.850540378183105,
3,Block804.xls,B,,,,,,,,,,,,,,,,,,0,2,2,2,,,,,,,,,,,,,,,,,,,,,,,,,,,,,,,,,,,,,,,,,,,,114,B,1,2021_May_24_1508,GazeFlow,2020.1.2,59.850540378183105,
4,Block814.xls,B,14,1,99,3,None,incongruent,Right,Left,Right,65,66,1,blue,2,6,/home/docky/apps/exp/images/35Yi.jpeg,/home/docky/apps/exp/images/66B.jpeg,0,3,3,3,0,0,0,0,514.1462755499524,None,514.1462755499524,None,1,6.536932574992534,514.1462755499524,None,520.7117950529791,None,520.7117950529791,None,523.2304444229812,None,523.2304444229812,None,2.4362737640039995,525.0301207829616,None,525.0301207829616,None,5,0,0.8860351739567704,527.4703607459669,None,527.4703607459669,None,527.4703607459669,None,528.3726658949745,None,1,0.617794219055213,528.3726658949745,None,30,529.0072827529511,None,114,B,1,2021_May_24_1508,GazeFlow,2020.1.2,59.850540378183105,
4,Block814.xls,B,14,2,34,34,None,congruent,Right,Right,Left,66,65,1,blue,2,5,/home/docky/apps/exp/images/66B.jpeg,/home/docky/apps/exp/images/35Yi.jpeg,0,3,3,3,0,1,1,1,530.0096732209786,None,530.0096732209786,None,1,6.212736475979909,530.0096732209786,None,536.2556545909611,None,536.2556545909611,None,538.7588495189557,None,538.7588495189557,None,3.1045866350177675,540.5625059789745,None,540.5625059789745,None,6,0,0.836274423985742,543.6679107939708,None,543.6679107939708,None,543.6679107939708,None,544.5206750979996,None,1,0.417727702006232,544.5206750979996,None,28,544.954659821,None,114,B,1,2021_May_24_1508,GazeFlow,2020.1.2,59.850540378183105,
4,Block814.xls,B,14,3,91,91,None,congruent,Right,Right,Left,77,72,5,yellow,2,5,/home/docky/apps/exp/images/77Yi.jpeg,/home/docky/apps/exp/images/72Y.jpeg,0,3,3,3,0,2,2,2,545.9568316209479,None,545.9568316209479,None,1,6.3633816670044325,545.9568316209479,None,552.3535093859537,None,552.3535093859537,None,554.8583579679835,None,554.8583579679835,None,1.7683796850033104,556.6603220819961,None,556.6603220819961,None,5,1,0.9015180250280537,558.4147021569661,None,558.4147021569661,None,558.4147021569661,None,559.3331560469815,None,1,0.43412683898350224,559.3331560469815,None,30,559.7831722269766,None,114,B,1,2021_May_24_1508,GazeFlow,2020.1.2,59.850540378183105,
4,Block814.xls,B,14,4,68,68,None,congruent,Left,Left,Right,72,77,5,yellow,2,6,/home/docky/apps/exp/images/72Yi.jpeg,/home/docky/apps/exp/images/77Y.jpeg,0,3,3,3,0,3,3,3,560.7855642979848,None,560.7855642979848,None,1,5.8785692030214705,560.7855642979848,None,566.6980499569909,None,566.6980499569909,None,569.2004421219463,None,569.2004421219463,None,2.470238273963332,570.9986630119965,None,570.9986630119965,None,6,1,0.9863108069985174,573.4758831909858,None,573.4758831909858,None,573.4758831909858,None,574.4786782459705,None,1,0.3841094499803148,574.4786782459705,None,32,574.8793586019892,None,114,B,1,2021_May_24_1508,GazeFlow,2020.1.2,59.850540378183105,
4,Block814.xls,B,14,5,66,66,None,congruent,Left,Left,Right,69,76,7,yellow,2,6,/home/docky/apps/exp/images/69Yi.jpeg,/home/docky/apps/exp/images/76Y.jpeg,0,3,3,3,0,4,4,4,575.8817315779743,None,575.8817315779743,None,1,5.260361023014411,575.8817315779743,None,581.1760584969888,None,581.1760584969888,None,583.6793064259691,None,583.6793064259691,None,2.0019495509914123,585.4828646199894,None,585.4828646199894,None,6,1,0.8516883259871975,587.4709912329563,None,587.4709912329563,None,587.4709912329563,None,588.3391650819685,None,1,0.3004255300038494,588.3391650819685,None,34,588.6559692499577,None,114,B,1,2021_May_24_1508,GazeFlow,2020.1.2,59.850540378183105,
4,Block814.xls,B,14,6,115,19,None,incongruent,Left,Right,Left,80,79,1,yellow,2,5,/home/docky/apps/exp/images/80Yi.jpeg,/home/docky/apps/exp/images/79Y.jpeg,0,3,3,3,0,5,5,5,589.6581470949459,None,589.6581470949459,None,1,5.845216229965445,589.6581470949459,None,595.5369088729494,None,595.5369088729494,None,598.0398691699957,None,598.0398691699957,None,1.8183221989893354,599.83934584097,None,599.83934584097,None,6,0,0.8179635319975205,601.648499745992,None,601.648499745992,None,601.648499745992,None,602.4827199189458,None,1,0.30059134995099157,602.4827199189458,None,32,602.7999606939848,None,114,B,1,2021_May_24_1508,GazeFlow,2020.1.2,59.850540378183105,
4,Block814.xls,B,14,7,9,9,None,congruent,Left,Left,Right,65,66,1,blue,2,6,/home/docky/apps/exp/images/35Yi.jpeg,/home/docky/apps/exp/images/66B.jpeg,0,3,3,3,0,6,6,6,603.8019214779488,None,603.8019214779488,None,1,5.695126598991919,603.8019214779488,None,609.530769705947,None,609.530769705947,None,612.0338793939445,None,612.0338793939445,None,2.8207890720223077,613.8319642119459,None,613.8319642119459,None,5,0,3.0221945209777914,616.6612690629554,None,616.6612690629554,None,616.6612690629554,None,619.6998123599915,None,1,1.052707451977767,619.6998123599915,None,30,620.7685888249543,None,114,B,1,2021_May_24_1508,GazeFlow,2020.1.2,59.850540378183105,
4,Block814.xls,B,14,8,14,14,None,congruent,Left,Left,Right,38,39,1,blue,2,6,/home/docky/apps/exp/images/38Bi.jpeg,/home/docky/apps/exp/images/39B.jpeg,0,3,3,3,0,7,7,7,621.7705874819658,None,621.7705874819658,None,1,6.7633268749923445,621.7705874819658,None,628.5653989139828,None,628.5653989139828,None,631.0727839669562,None,631.0727839669562,None,2.202478921972215,632.8684312129626,None,632.8684312129626,None,6,1,0.901358267001342,635.0630942969583,None,635.0630942969583,None,635.0630942969583,None,635.9809584559989,None,1,0.4340070810285397,635.9809584559989,None,32,636.4320934359566,None,114,B,1,2021_May_24_1508,GazeFlow,2020.1.2,59.850540378183105,
4,Block814.xls,B,,,,,,,,,,,,,,,,,,0,3,3,3,,,,,,,,,,,,,,,,,,,,,,,,,,,,,,,,,,,,,,,,,,,,114,B,1,2021_May_24_1508,GazeFlow,2020.1.2,59.850540378183105,
5,Block812.xls,B,12,1,18,18,None,congruent,Left,Left,Right,73,76,3,blue,2,6,/home/docky/apps/exp/images/73B.jpeg,/home/docky/apps/exp/images/76Bi.jpeg,0,4,4,4,0,0,0,0,654.6185480759596,None,654.6185480759596,None,1,7.90143462701235,654.6185480759596,None,662.5465821139514,None,662.5465821139514,None,665.0717805609456,None,665.0717805609456,None,2.0180434809881262,666.8529180019978,None,666.8529180019978,None,6,1,0.8846433500293642,668.8622366789496,None,668.8622366789496,None,668.8622366789496,None,669.7633207739564,None,1,0.46738777100108564,669.7633207739564,None,34,670.2474864719552,None,114,B,1,2021_May_24_1508,GazeFlow,2020.1.2,59.850540378183105,
5,Block812.xls,B,12,2,3,3,None,congruent,Left,Left,Right,16,19,3,blue,2,6,/home/docky/apps/exp/images/16Bi.jpeg,/home/docky/apps/exp/images/19B.jpeg,0,4,4,4,0,1,1,1,671.2496573189856,None,671.2496573189856,None,1,5.594830127956811,671.2496573189856,None,676.8779786239611,None,676.8779786239611,None,679.3806294199894,None,679.3806294199894,None,3.338570821972098,681.1836641079863,None,681.1836641079863,None,6,1,1.0034558110055514,684.523492946988,None,684.523492946988,None,684.523492946988,None,685.5439130799496,None,1,0.36738860502373427,685.5439130799496,None,36,685.9276440919493,None,114,B,1,2021_May_24_1508,GazeFlow,2020.1.2,59.850540378183105,
5,Block812.xls,B,12,3,56,56,None,congruent,Left,Left,Right,62,65,3,yellow,2,6,/home/docky/apps/exp/images/38Bi.jpeg,/home/docky/apps/exp/images/35B.jpeg,0,4,4,4,0,2,2,2,686.9300693999976,None,686.9300693999976,None,1,5.828084896027576,686.9300693999976,None,692.7900795059977,None,692.7900795059977,None,695.2969422759488,None,695.2969422759488,None,3.038024884997867,697.0981904739747,None,697.0981904739747,None,6,1,1.0177314010215923,700.1395765869529,None,700.1395765869529,None,700.1395765869529,None,701.174073556962,None,1,0.3839745129807852,701.174073556962,None,38,701.5747712569428,None,114,B,1,2021_May_24_1508,GazeFlow,2020.1.2,59.850540378183105,
5,Block812.xls,B,12,4,11,11,None,congruent,Left,Left,Right,38,39,1,blue,2,6,/home/docky/apps/exp/images/38B.jpeg,/home/docky/apps/exp/images/39Bi.jpeg,0,4,4,4,0,3,3,3,702.5771764879464,None,702.5771764879464,None,1,5.494620810961351,702.5771764879464,None,708.1049984199926,None,708.1049984199926,None,710.6084071769728,None,710.6084071769728,None,3.6534279769985005,712.4148807909805,None,712.4148807909805,None,5,0,0.8336651640129276,716.0707344409893,None,716.0707344409893,None,716.0707344409893,None,716.9210841009626,None,1,0.501168182992842,716.9210841009626,None,36,717.4387924909825,None,114,B,1,2021_May_24_1508,GazeFlow,2020.1.2,59.850540378183105,
5,Block812.xls,B,12,5,116,20,None,incongruent,Left,Right,Left,35,33,2,yellow,2,5,/home/docky/apps/exp/images/35Yi.jpeg,/home/docky/apps/exp/images/33Y.jpeg,0,4,4,4,0,4,4,4,718.4409190659644,None,718.4409190659644,None,1,6.045499395986553,718.4409190659644,None,724.5185508549912,None,724.5185508549912,None,727.0249166909489,None,727.0249166909489,None,3.9395614969544113,728.8217588459956,None,728.8217588459956,None,5,1,2.303952763963025,732.7695267059607,None,732.7695267059607,None,732.7695267059607,None,735.0901234629564,None,1,1.0525065240217373,735.0901234629564,None,38,736.1587696329807,None,114,B,1,2021_May_24_1508,GazeFlow,2020.1.2,59.850540378183105,
5,Block812.xls,B,12,6,40,40,None,congruent,Right,Right,Left,79,76,3,blue,2,5,/home/docky/apps/exp/images/79Bi.jpeg,/home/docky/apps/exp/images/76B.jpeg,0,4,4,4,0,5,5,5,737.1608137699659,None,737.1608137699659,None,1,5.226952547964174,737.1608137699659,None,742.4198476969614,None,742.4198476969614,None,744.9247938189656,None,744.9247938189656,None,2.9209396929945797,746.7283816689742,None,746.7283816689742,None,5,1,0.8501633970299736,749.6529041689937,None,749.6529041689937,None,749.6529041689937,None,750.5196132009733,None,1,1.285832628956996,750.5196132009733,None,40,751.822247463977,None,114,B,1,2021_May_24_1508,GazeFlow,2020.1.2,59.850540378183105,
5,Block812.xls,B,12,7,76,76,None,congruent,Right,Right,Left,39,38,1,yellow,2,5,/home/docky/apps/exp/images/39Yi.jpeg,/home/docky/apps/exp/images/38Y.jpeg,0,4,4,4,0,6,6,6,752.8243581789429,None,752.8243581789429,None,1,6.3631277160020545,752.8243581789429,None,759.2209264399717,None,759.2209264399717,None,761.7228585649864,None,761.7228585649864,None,3.287967419018969,763.5288264809642,None,763.5288264809642,None,5,1,0.8354604479973204,766.8171790059423,None,766.8171790059423,None,766.8171790059423,None,767.6695470189443,None,1,0.6014955400023609,767.6695470189443,None,42,768.2870850959443,None,114,B,1,2021_May_24_1508,GazeFlow,2020.1.2,59.850540378183105,
5,Block812.xls,B,12,8,77,77,None,congruent,Right,Right,Left,39,38,1,yellow,2,5,/home/docky/apps/exp/images/39Y.jpeg,/home/docky/apps/exp/images/38Yi.jpeg,0,4,4,4,0,7,7,7,769.2897473869962,None,769.2897473869962,None,1,6.412551053974312,769.2897473869962,None,775.7358342249645,None,775.7358342249645,None,778.2425775469746,None,778.2425775469746,None,2.854468760022428,780.0349103109911,None,780.0349103109911,None,5,1,0.9191442650044337,782.8982966299518,None,782.8982966299518,None,782.8982966299518,None,783.8340893079876,None,1,0.4679345269687474,783.8340893079876,None,44,784.318369926943,None,114,B,1,2021_May_24_1508,GazeFlow,2020.1.2,59.850540378183105,
5,Block812.xls,B,,,,,,,,,,,,,,,,,,0,4,4,4,,,,,,,,,,,,,,,,,,,,,,,,,,,,,,,,,,,,,,,,,,,,114,B,1,2021_May_24_1508,GazeFlow,2020.1.2,59.850540378183105,
6,Block803.xls,B,3,1,84,84,None,congruent,Right,Right,Left,75,69,6,yellow,2,5,/home/docky/apps/exp/images/76Yi.jpeg,/home/docky/apps/exp/images/69Y.jpeg,0,5,5,5,0,0,0,0,804.7770803839667,None,804.7770803839667,None,1,6.769074070965871,804.7770803839667,None,811.5690585249686,None,811.5690585249686,None,814.0967661989853,None,814.0967661989853,None,2.2519335520337336,815.8902473639464,None,815.8902473639464,None,5,1,0.9013209939585067,818.1346995749627,None,818.1346995749627,None,818.1346995749627,None,819.0523539259448,None,1,0.4506695090094581,819.0523539259448,None,46,819.520048833976,None,114,B,1,2021_May_24_1508,GazeFlow,2020.1.2,59.850540378183105,
6,Block803.xls,B,3,2,82,82,None,congruent,Right,Right,Left,66,65,1,yellow,2,5,/home/docky/apps/exp/images/66Y.jpeg,/home/docky/apps/exp/images/35Bi.jpeg,0,5,5,5,0,1,1,1,820.5223977409769,None,820.5223977409769,None,1,7.866324776026886,820.5223977409769,None,828.4269633109798,None,828.4269633109798,None,830.9242210319499,None,830.9242210319499,None,3.3720947389956564,832.7281018999638,None,832.7281018999638,None,6,0,0.9510614569881,836.10312359198,None,836.10312359198,None,836.10312359198,None,837.0706786459778,None,1,0.4343337009777315,837.0706786459778,None,44,837.5215005019563,None,114,B,1,2021_May_24_1508,GazeFlow,2020.1.2,59.850540378183105,
6,Block803.xls,B,3,3,80,80,None,congruent,Right,Right,Left,66,65,1,yellow,2,5,/home/docky/apps/exp/images/66Yi.jpeg,/home/docky/apps/exp/images/35B.jpeg,0,5,5,5,0,2,2,2,838.523970323964,None,838.523970323964,None,1,5.6110019980114885,838.523970323964,None,844.1672867499874,None,844.1672867499874,None,846.6717456339975,None,846.6717456339975,None,2.754255633975845,848.4752470239764,None,848.4752470239764,None,5,1,0.9340699189924635,851.2325477229897,None,851.2325477229897,None,851.2325477229897,None,852.1829470659723,None,1,0.48442949005402625,852.1829470659723,None,46,852.6843886289862,None,114,B,1,2021_May_24_1508,GazeFlow,2020.1.2,59.850540378183105,
6,Block803.xls,B,3,4,79,79,None,congruent,Right,Right,Left,66,65,1,yellow,2,5,/home/docky/apps/exp/images/66Y.jpeg,/home/docky/apps/exp/images/35Bi.jpeg,0,5,5,5,0,3,3,3,853.6866557749454,None,853.6866557749454,None,1,5.127283402020112,853.6866557749454,None,858.8473562549916,None,858.8473562549916,None,861.3529654589947,None,861.3529654589947,None,2.5703532570041716,863.1537100199494,None,863.1537100199494,None,5,1,0.9345593060133979,865.7273382989806,None,865.7273382989806,None,865.7273382989806,None,866.6782414389891,None,1,0.4505951239843853,866.6782414389891,None,48,867.1456838309532,None,114,B,1,2021_May_24_1508,GazeFlow,2020.1.2,59.850540378183105,
6,Block803.xls,B,3,5,92,92,None,congruent,Right,Right,Left,77,72,5,yellow,2,5,/home/docky/apps/exp/images/77Y.jpeg,/home/docky/apps/exp/images/72Yi.jpeg,0,5,5,5,0,4,4,4,868.1479163129698,None,868.1479163129698,None,1,5.010590041987598,868.1479163129698,None,873.1919316659914,None,873.1919316659914,None,875.6950859419885,None,875.6950859419885,None,1.8352966889506206,877.5001989499433,None,877.5001989499433,None,5,1,0.8684908249997534,879.3197835939936,None,879.3197835939936,None,879.3197835939936,None,880.2047269469476,None,1,0.30024616298032925,880.2047269469476,None,50,880.5214271389996,None,114,B,1,2021_May_24_1508,GazeFlow,2020.1.2,59.850540378183105,
6,Block803.xls,B,3,6,106,10,None,incongruent,Left,Right,Left,79,76,3,blue,2,5,/home/docky/apps/exp/images/79Bi.jpeg,/home/docky/apps/exp/images/76B.jpeg,0,5,5,5,0,5,5,5,881.5236706309952,None,881.5236706309952,None,1,4.042263474024367,881.5236706309952,None,885.5992388619925,None,885.5992388619925,None,888.1017637989717,None,888.1017637989717,None,3.171456652053166,889.9004560799804,None,889.9004560799804,None,6,0,0.9523066870169714,893.0786309179966,None,893.0786309179966,None,893.0786309179966,None,894.0478925499483,None,1,0.3009284900035709,894.0478925499483,None,48,894.3650802689954,None,114,B,1,2021_May_24_1508,GazeFlow,2020.1.2,59.850540378183105,
6,Block803.xls,B,3,7,25,25,None,congruent,Right,Right,Left,19,16,3,blue,2,5,/home/docky/apps/exp/images/19Bi.jpeg,/home/docky/apps/exp/images/16B.jpeg,0,5,5,5,0,6,6,6,895.3670810649637,None,895.3670810649637,None,1,5.494638118019793,895.3670810649637,None,900.8973282149527,None,900.8973282149527,None,903.3999694879749,None,903.3999694879749,None,2.0186910580378026,905.2023610079777,None,905.2023610079777,None,5,1,0.8690417760517448,907.207016307977,None,907.207016307977,None,907.207016307977,None,908.0918123399606,None,1,0.4840828439919278,908.0918123399606,None,50,908.5928271749872,None,114,B,1,2021_May_24_1508,GazeFlow,2020.1.2,59.850540378183105,
6,Block803.xls,B,3,8,46,46,None,congruent,Right,Right,Left,39,38,1,blue,2,5,/home/docky/apps/exp/images/39B.jpeg,/home/docky/apps/exp/images/38Bi.jpeg,0,5,5,5,0,7,7,7,909.594578929944,None,909.594578929944,None,1,4.743682326981798,909.594578929944,None,914.3717828589724,None,914.3717828589724,None,916.8748501169612,None,916.8748501169612,None,1.8182187770144083,918.6779064429575,None,918.6779064429575,None,6,0,0.8846851259586401,920.4828218779876,None,920.4828218779876,None,920.4828218779876,None,921.3841693259892,None,1,0.38416496600257233,921.3841693259892,None,48,921.7849067429779,None,114,B,1,2021_May_24_1508,GazeFlow,2020.1.2,59.850540378183105,
6,Block803.xls,B,,,,,,,,,,,,,,,,,,0,5,5,5,,,,,,,,,,,,,,,,,,,,,,,,,,,,,,,,,,,,,,,,,,,,114,B,1,2021_May_24_1508,GazeFlow,2020.1.2,59.850540378183105,
7,Block810.xls,B,10,1,119,23,None,incongruent,Left,Right,Left,76,69,7,yellow,2,5,/home/docky/apps/exp/images/76Yi.jpeg,/home/docky/apps/exp/images/69Y.jpeg,0,6,6,6,0,0,0,0,942.8117775259889,None,942.8117775259889,None,1,5.533197053009644,942.8117775259889,None,948.3711997079663,None,948.3711997079663,None,950.8926854549791,None,950.8926854549791,None,2.1018214320065454,952.6939103289624,None,952.6939103289624,None,5,1,4.442028414050583,954.7832925089751,None,954.7832925089751,None,954.7832925089751,None,959.2414311209577,None,1,0.902142314997036,959.2414311209577,None,50,960.1596547939698,None,114,B,1,2021_May_24_1508,GazeFlow,2020.1.2,59.850540378183105,
7,Block810.xls,B,10,2,43,43,None,congruent,Right,Right,Left,83,80,3,blue,2,5,/home/docky/apps/exp/images/83B.jpeg,/home/docky/apps/exp/images/80Bi.jpeg,0,6,6,6,0,1,1,1,961.161893115961,None,961.161893115961,None,1,4.826992134039756,961.161893115961,None,966.021859085944,None,966.021859085944,None,968.5266592109692,None,968.5266592109692,None,2.6039213329786435,970.3288090819842,None,970.3288090819842,None,5,1,0.8353495680494234,972.933821057959,None,972.933821057959,None,972.933821057959,None,973.785853918991,None,1,0.467633249994833,973.785853918991,None,52,974.270409396966,None,114,B,1,2021_May_24_1508,GazeFlow,2020.1.2,59.850540378183105,
7,Block810.xls,B,10,3,53,53,None,congruent,Left,Left,Right,65,66,1,yellow,2,6,/home/docky/apps/exp/images/35Bi.jpeg,/home/docky/apps/exp/images/66Y.jpeg,0,6,6,6,0,2,2,2,975.271991621994,None,975.271991621994,None,1,4.6100777559913695,975.271991621994,None,979.9155024519423,None,979.9155024519423,None,982.4187491709599,None,982.4187491709599,None,1.4843654520227574,984.2215132369893,None,984.2215132369893,None,6,1,0.8852198430104181,985.6928838399472,None,985.6928838399472,None,985.6928838399472,None,986.5944727779715,None,1,0.317519080999773,986.5944727779715,None,54,986.928217144974,None,114,B,1,2021_May_24_1508,GazeFlow,2020.1.2,59.850540378183105,
7,Block810.xls,B,10,4,74,74,None,congruent,Right,Right,Left,35,33,2,yellow,2,5,/home/docky/apps/exp/images/35Y.jpeg,/home/docky/apps/exp/images/33Yi.jpeg,0,6,6,6,0,3,3,3,987.9301394809736,None,987.9301394809736,None,1,6.7975972490385175,987.9301394809736,None,994.7608906109817,None,994.7608906109817,None,997.2657586049754,None,997.2657586049754,None,1.9189051249995828,999.0666261349688,None,999.0666261349688,None,5,1,6.863622072967701,1000.9724368059542,None,1000.9724368059542,None,1000.9724368059542,None,1007.8523625079542,None,1,1.0356137650087476,1007.8523625079542,None,56,1008.9043963789591,None,114,B,1,2021_May_24_1508,GazeFlow,2020.1.2,59.850540378183105,
7,Block810.xls,B,10,5,21,21,None,congruent,Left,Left,Right,76,79,3,blue,2,6,/home/docky/apps/exp/images/76B.jpeg,/home/docky/apps/exp/images/79Bi.jpeg,0,6,6,6,0,4,4,4,1009.9063282429706,None,1009.9063282429706,None,1,13.343374307034537,1009.9063282429706,None,1023.2871712679625,None,1023.2871712679625,None,1025.7879235049477,None,1025.7879235049477,None,2.002099081000779,1027.5892943999497,None,1027.5892943999497,None,6,1,0.967721814988181,1029.5779923459631,None,1029.5779923459631,None,1029.5779923459631,None,1030.5623210579506,None,1,0.5182728730142117,1030.5623210579506,None,58,1031.0972613239428,None,114,B,1,2021_May_24_1508,GazeFlow,2020.1.2,59.850540378183105,
7,Block810.xls,B,10,6,85,85,None,congruent,Right,Right,Left,75,69,6,yellow,2,5,/home/docky/apps/exp/images/76Y.jpeg,/home/docky/apps/exp/images/69Yi.jpeg,0,6,6,6,0,5,5,5,1032.099666125956,None,1032.099666125956,None,1,5.761201282963157,1032.099666125956,None,1037.894764771976,None,1037.894764771976,None,1040.3978766249493,None,1040.3978766249493,None,2.1857913419953547,1042.200666627963,None,1042.200666627963,None,5,1,0.9179481110186316,1044.373475372966,None,1044.373475372966,None,1044.373475372966,None,1045.3080283649615,None,1,0.5347244199947454,1045.3080283649615,None,60,1045.8590235879528,None,114,B,1,2021_May_24_1508,GazeFlow,2020.1.2,59.850540378183105,
7,Block810.xls,B,10,7,49,49,None,congruent,Left,Left,Right,33,35,2,yellow,2,6,/home/docky/apps/exp/images/33Yi.jpeg,/home/docky/apps/exp/images/35Y.jpeg,0,6,6,6,0,6,6,6,1046.8615251999581,None,1046.8615251999581,None,1,5.57778498303378,1046.8615251999581,None,1052.4727861149586,None,1052.4727861149586,None,1054.9758251859457,None,1054.9758251859457,None,2.4370336970314384,1056.779696464946,None,1056.779696464946,None,6,1,0.8672955919755623,1059.2030104159494,None,1059.2030104159494,None,1059.2030104159494,None,1060.0868794909911,None,1,0.40058169700205326,1060.0868794909911,None,62,1060.5040267089498,None,114,B,1,2021_May_24_1508,GazeFlow,2020.1.2,59.850540378183105,
7,Block810.xls,B,10,8,63,63,None,congruent,Left,Left,Right,38,39,1,yellow,2,6,/home/docky/apps/exp/images/38Y.jpeg,/home/docky/apps/exp/images/39Yi.jpeg,0,6,6,6,0,7,7,7,1061.5063434669864,None,1061.5063434669864,None,1,5.160500383004546,1061.5063434669864,None,1066.7006360049709,None,1066.7006360049709,None,1069.2039530339534,None,1069.2039530339534,None,2.587276070029475,1071.0032326579676,None,1071.0032326579676,None,5,0,0.952894544985611,1073.5952638709568,None,1073.5952638709568,None,1073.5952638709568,None,1074.5649370539468,None,1,0.601215796021279,1074.5649370539468,None,60,1075.1826520039467,None,114,B,1,2021_May_24_1508,GazeFlow,2020.1.2,59.850540378183105,
7,Block810.xls,B,,,,,,,,,,,,,,,,,,0,6,6,6,,,,,,,,,,,,,,,,,,,,,,,,,,,,,,,,,,,,,,,,,,,,114,B,1,2021_May_24_1508,GazeFlow,2020.1.2,59.850540378183105,
8,Block801.xls,B,1,1,1,1,None,congruent,Left,Left,Right,16,19,3,blue,2,6,/home/docky/apps/exp/images/16Bi.jpeg,/home/docky/apps/exp/images/19B.jpeg,0,7,7,7,0,0,0,0,1098.8465820389683,None,1098.8465820389683,None,1,6.736010235967115,1098.8465820389683,None,1105.6126020199736,None,1105.6126020199736,None,1108.1295464619761,None,1108.1295464619761,None,1.5171930720098317,1109.9276989989448,None,1109.9276989989448,None,6,1,0.8351263530203141,1111.4368907859898,None,1111.4368907859898,None,1111.4368907859898,None,1112.2882109329803,None,1,0.36785166698973626,1112.2882109329803,None,62,1112.672467648983,None,114,B,1,2021_May_24_1508,GazeFlow,2020.1.2,59.850540378183105,
8,Block801.xls,B,1,2,105,9,None,incongruent,Left,Right,Left,79,73,6,blue,2,5,/home/docky/apps/exp/images/79B.jpeg,/home/docky/apps/exp/images/73Bi.jpeg,0,7,7,7,0,1,1,1,1113.674328461988,None,1113.674328461988,None,1,4.358861492015421,1113.674328461988,None,1118.0670969009516,None,1118.0670969009516,None,1120.5704101789743,None,1120.5704101789743,None,2.5533648630371317,1122.3738740399713,None,1122.3738740399713,None,5,1,0.8172507740091532,1124.9302526189713,None,1124.9302526189713,None,1124.9302526189713,None,1125.7641433949466,None,1,0.5176859519560821,1125.7641433949466,None,64,1126.2986930069746,None,114,B,1,2021_May_24_1508,GazeFlow,2020.1.2,59.850540378183105,
8,Block801.xls,B,1,3,62,62,None,congruent,Left,Left,Right,38,39,1,yellow,2,6,/home/docky/apps/exp/images/38Y.jpeg,/home/docky/apps/exp/images/39Yi.jpeg,0,7,7,7,0,2,2,2,1127.3005301669473,None,1127.3005301669473,None,1,5.077187682967633,1127.3005301669473,None,1132.4100392039982,None,1132.4100392039982,None,1134.9149101889925,None,1134.9149101889925,None,2.620422222011257,1136.7178331919713,None,1136.7178331919713,None,5,0,0.8194667900097556,1139.3397486399626,None,1139.3397486399626,None,1139.3397486399626,None,1140.1754246669589,None,1,0.5344511570292525,1140.1754246669589,None,62,1140.7265223349677,None,114,B,1,2021_May_24_1508,GazeFlow,2020.1.2,59.850540378183105,
8,Block801.xls,B,1,4,38,38,None,congruent,Right,Right,Left,79,73,6,blue,2,5,/home/docky/apps/exp/images/79B.jpeg,/home/docky/apps/exp/images/73Bi.jpeg,0,7,7,7,0,3,3,3,1141.7287905949634,None,1141.7287905949634,None,1,5.261124813987408,1141.7287905949634,None,1147.0232161099557,None,1147.0232161099557,None,1149.528169726953,None,1149.528169726953,None,1.467521570972167,1151.330003667972,None,1151.330003667972,None,5,1,0.96856145496713,1152.7839173449902,None,1152.7839173449902,None,1152.7839173449902,None,1153.768969441997,None,1,0.35092727199662477,1153.768969441997,None,64,1154.136260467989,None,114,B,1,2021_May_24_1508,GazeFlow,2020.1.2,59.850540378183105,
8,Block801.xls,B,1,5,6,6,None,congruent,Left,Left,Right,35,38,3,blue,2,6,/home/docky/apps/exp/images/35Bi.jpeg,/home/docky/apps/exp/images/38B.jpeg,0,7,7,7,0,4,4,4,1155.1379031579709,None,1155.1379031579709,None,1,4.30928570299875,1155.1379031579709,None,1159.4814035109594,None,1159.4814035109594,None,1161.9836231679656,None,1161.9836231679656,None,1.4678752179606818,1163.7872657939442,None,1163.7872657939442,None,6,1,0.8010911269811913,1165.2413847629796,None,1165.2413847629796,None,1165.2413847629796,None,1166.0588058529538,None,1,0.3189283980173059,1166.0588058529538,None,66,1166.393048429978,None,114,B,1,2021_May_24_1508,GazeFlow,2020.1.2,59.850540378183105,
8,Block801.xls,B,1,6,51,51,None,congruent,Left,Left,Right,33,35,2,yellow,2,6,/home/docky/apps/exp/images/33Yi.jpeg,/home/docky/apps/exp/images/35Y.jpeg,0,7,7,7,0,5,5,5,1167.3949846679461,None,1167.3949846679461,None,1,5.093847139040008,1167.3949846679461,None,1172.5225320929894,None,1172.5225320929894,None,1175.0262548209867,None,1175.0262548209867,None,2.0022856110008433,1176.8234699459863,None,1176.8234699459863,None,6,1,0.9345521599752828,1178.8179105039453,None,1178.8179105039453,None,1178.8179105039453,None,1179.76896846795,None,1,0.23415392701281235,1179.76896846795,None,68,1180.0194686509785,None,114,B,1,2021_May_24_1508,GazeFlow,2020.1.2,59.850540378183105,
8,Block801.xls,B,1,7,73,73,None,congruent,Right,Right,Left,35,33,2,yellow,2,5,/home/docky/apps/exp/images/35Yi.jpeg,/home/docky/apps/exp/images/33Y.jpeg,0,7,7,7,0,6,6,6,1181.0214456979884,None,1181.0214456979884,None,1,3.874779964040499,1181.0214456979884,None,1184.9302044789656,None,1184.9302044789656,None,1187.4348953809822,None,1187.4348953809822,None,1.8184296670369804,1189.2383022199501,None,1189.2383022199501,None,5,1,0.9523582119727507,1191.0414951869752,None,1191.0414951869752,None,1191.0414951869752,None,1192.0098233709577,None,1,0.3669622500310652,1192.0098233709577,None,70,1192.393833309994,None,114,B,1,2021_May_24_1508,GazeFlow,2020.1.2,59.850540378183105,
8,Block801.xls,B,1,8,96,96,None,congruent,Right,Right,Left,80,79,1,yellow,2,5,/home/docky/apps/exp/images/80Yi.jpeg,/home/docky/apps/exp/images/79Y.jpeg,0,7,7,7,0,7,7,7,1193.3957080939435,None,1193.3957080939435,None,1,4.242061277967878,1193.3957080939435,None,1197.6712304669782,None,1197.6712304669782,None,1200.1745232679532,None,1200.1745232679532,None,1.6179692069999874,1201.9724459979916,None,1201.9724459979916,None,5,1,4.6093402179540135,1203.582307466946,None,1203.582307466946,None,1203.582307466946,None,1208.2080092779943,None,1,1.0693598840152845,1208.2080092779943,None,72,1209.2935482739704,None,114,B,1,2021_May_24_1508,GazeFlow,2020.1.2,59.850540378183105,
8,Block801.xls,B,,,,,,,,,,,,,,,,,,0,7,7,7,,,,,,,,,,,,,,,,,,,,,,,,,,,,,,,,,,,,,,,,,,,,114,B,1,2021_May_24_1508,GazeFlow,2020.1.2,59.850540378183105,
9,Block802.xls,B,2,1,30,30,None,congruent,Right,Right,Left,38,35,3,blue,2,5,/home/docky/apps/exp/images/38B.jpeg,/home/docky/apps/exp/images/35Bi.jpeg,0,8,8,8,0,0,0,0,1235.930593018944,None,1235.930593018944,None,1,7.217096163018141,1235.930593018944,None,1243.1786748529994,None,1243.1786748529994,None,1245.6965959399822,None,1245.6965959399822,None,1.3674357600393705,1247.4999642759794,None,1247.4999642759794,None,5,1,0.851390145951882,1248.8536588749848,None,1248.8536588749848,None,1248.8536588749848,None,1249.7215654389584,None,1,0.45168780599487945,1249.7215654389584,None,74,1250.1895403050003,None,114,B,1,2021_May_24_1508,GazeFlow,2020.1.2,59.850540378183105,
9,Block802.xls,B,2,2,5,5,None,congruent,Left,Left,Right,35,38,3,blue,2,6,/home/docky/apps/exp/images/35B.jpeg,/home/docky/apps/exp/images/38Bi.jpeg,0,8,8,8,0,1,1,1,1251.1910569069441,None,1251.1910569069441,None,1,5.2777775669819675,1251.1910569069441,None,1256.5008831499727,None,1256.5008831499727,None,1259.0048457659432,None,1259.0048457659432,None,1.417481674987357,1260.8031587899895,None,1260.8031587899895,None,6,1,0.9518606629571877,1262.213177514961,None,1262.213177514961,None,1262.213177514961,None,1263.1814377319533,None,1,0.36755761195672676,1263.1814377319533,None,76,1263.5655599659658,None,114,B,1,2021_May_24_1508,GazeFlow,2020.1.2,59.850540378183105,
9,Block802.xls,B,2,3,103,7,None,incongruent,Left,Right,Left,19,16,3,blue,2,5,/home/docky/apps/exp/images/19Bi.jpeg,/home/docky/apps/exp/images/16B.jpeg,0,8,8,8,0,2,2,2,1264.5670572179952,None,1264.5670572179952,None,1,5.745182668033522,1264.5670572179952,None,1270.345938505954,None,1270.345938505954,None,1272.850943294994,None,1272.850943294994,None,2.1190855650347658,1274.6524937849608,None,1274.6524937849608,None,5,1,0.8510861819959246,1276.758015830943,None,1276.758015830943,None,1276.758015830943,None,1277.6255196889979,None,1,0.45103382697561756,1277.6255196889979,None,78,1278.0935939949704,None,114,B,1,2021_May_24_1508,GazeFlow,2020.1.2,59.850540378183105,
9,Block802.xls,B,2,4,35,35,None,congruent,Right,Right,Left,66,65,1,blue,2,5,/home/docky/apps/exp/images/66B.jpeg,/home/docky/apps/exp/images/35Yi.jpeg,0,8,8,8,0,3,3,3,1279.095236426976,None,1279.095236426976,None,1,6.179899953014683,1279.095236426976,None,1285.3085095539573,None,1285.3085095539573,None,1287.8134837299585,None,1287.8134837299585,None,1.5177587720099837,1289.6168972359737,None,1289.6168972359737,None,5,1,0.8847915779915638,1291.1193389129476,None,1291.1193389129476,None,1291.1193389129476,None,1292.020782364998,None,1,1.4022849919856526,1292.020782364998,None,80,1293.4399632839486,None,114,B,1,2021_May_24_1508,GazeFlow,2020.1.2,59.850540378183105,
9,Block802.xls,B,2,5,42,42,None,congruent,Right,Right,Left,83,80,3,blue,2,5,/home/docky/apps/exp/images/83Bi.jpeg,/home/docky/apps/exp/images/80B.jpeg,0,8,8,8,0,4,4,4,1294.4422015959863,None,1294.4422015959863,None,1,6.279124666005373,1294.4422015959863,None,1300.7558959959424,None,1300.7558959959424,None,1303.2600565359462,None,1303.2600565359462,None,1.2508634660043754,1305.0617960349773,None,1305.0617960349773,None,5,1,0.8349659260129556,1306.298443810956,None,1306.298443810956,None,1306.298443810956,None,1307.14957438095,None,1,0.40167353802826256,1307.14957438095,None,82,1307.5675005639787,None,114,B,1,2021_May_24_1508,GazeFlow,2020.1.2,59.850540378183105,
9,Block802.xls,B,2,6,104,8,None,incongruent,Left,Right,Left,38,35,3,blue,2,5,/home/docky/apps/exp/images/38B.jpeg,/home/docky/apps/exp/images/35Bi.jpeg,0,8,8,8,0,5,5,5,1308.569360785943,None,1308.569360785943,None,1,3.7916674169828184,1308.569360785943,None,1312.39439906599,None,1312.39439906599,None,1314.8973588179797,None,1314.8973588179797,None,2.5535473670461215,1316.700761858956,None,1316.700761858956,None,5,1,0.8698118320317008,1319.2551603069878,None,1319.2551603069878,None,1319.2551603069878,None,1320.1418117519934,None,1,0.36750257801031694,1320.1418117519934,None,84,1320.525638373976,None,114,B,1,2021_May_24_1508,GazeFlow,2020.1.2,59.850540378183105,
9,Block802.xls,B,2,7,22,22,None,congruent,Left,Left,Right,80,83,3,blue,2,6,/home/docky/apps/exp/images/80Bi.jpeg,/home/docky/apps/exp/images/83B.jpeg,0,8,8,8,0,6,6,6,1321.5276184519753,None,1321.5276184519753,None,1,4.709941326000262,1321.5276184519753,None,1326.27120060398,None,1326.27120060398,None,1328.7761669359752,None,1328.7761669359752,None,1.4175296670291573,1330.5784387469757,None,1330.5784387469757,None,6,1,0.8177737039513886,1331.9820319259888,None,1331.9820319259888,None,1331.9820319259888,None,1332.8162164849928,None,1,0.3013271249947138,1332.8162164849928,None,86,1333.1339898849837,None,114,B,1,2021_May_24_1508,GazeFlow,2020.1.2,59.850540378183105,
9,Block802.xls,B,2,8,54,54,None,congruent,Left,Left,Right,65,66,1,yellow,2,6,/home/docky/apps/exp/images/35Bi.jpeg,/home/docky/apps/exp/images/66Y.jpeg,0,8,8,8,0,7,7,7,1334.1355222289567,None,1334.1355222289567,None,1,4.1089556910446845,1334.1355222289567,None,1338.2805992039503,None,1338.2805992039503,None,1340.7812877639662,None,1340.7812877639662,None,2.7370954849757254,1342.584737120953,None,1342.584737120953,None,6,1,0.8692925359937362,1345.3231993419467,None,1345.3231993419467,None,1345.3231993419467,None,1346.209042573988,None,1,0.2840113959973678,1346.209042573988,None,88,1346.5093888329575,None,114,B,1,2021_May_24_1508,GazeFlow,2020.1.2,59.850540378183105,
9,Block802.xls,B,,,,,,,,,,,,,,,,,,0,8,8,8,,,,,,,,,,,,,,,,,,,,,,,,,,,,,,,,,,,,,,,,,,,,114,B,1,2021_May_24_1508,GazeFlow,2020.1.2,59.850540378183105,
10,Block813.xls,B,13,1,70,70,None,congruent,Left,Left,Right,79,82,3,yellow,2,6,/home/docky/apps/exp/images/79Yi.jpeg,/home/docky/apps/exp/images/80Y.jpeg,0,9,9,9,0,0,0,0,1365.1630433199462,None,1365.1630433199462,None,1,7.290825642005075,1365.1630433199462,None,1372.4737034559948,None,1372.4737034559948,None,1374.9999235899886,None,1374.9999235899886,None,2.6867279370198958,1376.8028910199646,None,1376.8028910199646,None,5,0,0.8154446529806592,1379.493031123944,None,1379.493031123944,None,1379.493031123944,None,1380.3252026399714,None,1,0.4009362459764816,1380.3252026399714,None,86,1380.7426769269514,None,114,B,1,2021_May_24_1508,GazeFlow,2020.1.2,59.850540378183105,
10,Block813.xls,B,13,2,60,60,None,congruent,Left,Left,Right,38,39,1,yellow,2,6,/home/docky/apps/exp/images/38Yi.jpeg,/home/docky/apps/exp/images/39Y.jpeg,0,9,9,9,0,1,1,1,1381.7446959849913,None,1381.7446959849913,None,1,4.392957366013434,1381.7446959849913,None,1386.1716117609758,None,1386.1716117609758,None,1388.6743960239692,None,1388.6743960239692,None,1.4009108809987083,1390.4779356789659,None,1390.4779356789659,None,6,1,0.9853474039700814,1391.8648709049448,None,1391.8648709049448,None,1391.8648709049448,None,1392.86664196098,None,1,0.35068059095647186,1392.86664196098,None,88,1393.2341242839466,None,114,B,1,2021_May_24_1508,GazeFlow,2020.1.2,59.850540378183105,
10,Block813.xls,B,13,3,81,81,None,congruent,Right,Right,Left,66,65,1,yellow,2,5,/home/docky/apps/exp/images/66Y.jpeg,/home/docky/apps/exp/images/35Bi.jpeg,0,9,9,9,0,2,2,2,1394.2355741799693,None,1394.2355741799693,None,1,5.177483240957372,1394.2355741799693,None,1399.4476244549733,None,1399.4476244549733,None,1401.9500529499492,None,1401.9500529499492,None,1.901672341977246,1403.7550620079855,None,1403.7550620079855,None,6,0,0.9853928280062973,1405.641675574996,None,1405.641675574996,None,1405.641675574996,None,1406.6434822859592,None,1,0.333607942040544,1406.6434822859592,None,86,1406.99344138999,None,114,B,1,2021_May_24_1508,GazeFlow,2020.1.2,59.850540378183105,
10,Block813.xls,B,13,4,110,14,None,incongruent,Right,Left,Right,65,66,1,yellow,2,6,/home/docky/apps/exp/images/35B.jpeg,/home/docky/apps/exp/images/66Yi.jpeg,0,9,9,9,0,3,3,3,1407.9956869819434,None,1407.9956869819434,None,1,3.975093459011987,1407.9956869819434,None,1412.0046356869861,None,1412.0046356869861,None,1414.5076470129425,None,1414.5076470129425,None,3.0212141720112413,1416.310986373981,None,1416.310986373981,None,6,1,0.9342872900306247,1419.3356704039616,None,1419.3356704039616,None,1419.3356704039616,None,1420.2861018089461,None,1,0.3343170350417495,1420.2861018089461,None,88,1420.6366948609939,None,114,B,1,2021_May_24_1508,GazeFlow,2020.1.2,59.850540378183105,
10,Block813.xls,B,13,5,17,17,None,congruent,Left,Left,Right,73,76,3,blue,2,6,/home/docky/apps/exp/images/73Bi.jpeg,/home/docky/apps/exp/images/76B.jpeg,0,9,9,9,0,4,4,4,1421.6391405209433,None,1421.6391405209433,None,1,5.094085699995048,1421.6391405209433,None,1426.7664693299448,None,1426.7664693299448,None,1429.2696312109474,None,1429.2696312109474,None,1.5348603230086155,1431.0725276259473,None,1431.0725276259473,None,6,1,0.9016689819982275,1432.5941419019946,None,1432.5941419019946,None,1432.5941419019946,None,1433.512226243969,None,1,0.3514141460182145,1433.512226243969,None,90,1433.8796471429523,None,114,B,1,2021_May_24_1508,GazeFlow,2020.1.2,59.850540378183105,
10,Block813.xls,B,13,6,111,15,None,incongruent,Right,Left,Right,62,65,3,yellow,2,6,/home/docky/apps/exp/images/38B.jpeg,/home/docky/apps/exp/images/35Bi.jpeg,0,9,9,9,0,5,5,5,1434.8813036129577,None,1434.8813036129577,None,1,5.161119305994362,1434.8813036129577,None,1440.075690815982,None,1440.075690815982,None,1442.5791748159681,None,1442.5791748159681,None,2.503609816019889,1444.3840842399513,None,1444.3840842399513,None,6,1,2.0035949089797214,1446.8891126189847,None,1446.8891126189847,None,1446.8891126189847,None,1448.9087647949927,None,1,0.8359028919949196,1448.9087647949927,None,92,1449.7606420919765,None,114,B,1,2021_May_24_1508,GazeFlow,2020.1.2,59.850540378183105,
10,Block813.xls,B,13,7,55,55,None,congruent,Left,Left,Right,65,66,1,yellow,2,6,/home/docky/apps/exp/images/35B.jpeg,/home/docky/apps/exp/images/66Yi.jpeg,0,9,9,9,0,6,6,6,1450.7625939349527,None,1450.7625939349527,None,1,5.127266290015541,1450.7625939349527,None,1455.922965537,None,1455.922965537,None,1458.428095159994,None,1458.428095159994,None,1.9020084930234589,1460.2289777009864,None,1460.2289777009864,None,5,0,2.320605823013466,1462.1180524359806,None,1462.1180524359806,None,1462.1180524359806,None,1464.4553942609928,None,1,0.7354282439919189,1464.4553942609928,None,90,1465.20732498297,None,114,B,1,2021_May_24_1508,GazeFlow,2020.1.2,59.850540378183105,
10,Block813.xls,B,13,8,26,26,None,congruent,Right,Right,Left,19,16,3,blue,2,5,/home/docky/apps/exp/images/19B.jpeg,/home/docky/apps/exp/images/16Bi.jpeg,0,9,9,9,0,7,7,7,1466.2093224409618,None,1466.2093224409618,None,1,5.4277286699507385,1466.2093224409618,None,1471.670239552972,None,1471.670239552972,None,1474.1737615709426,None,1474.1737615709426,None,1.9352037450298667,1475.9721146169468,None,1475.9721146169468,None,5,1,2.170826047018636,1477.898596451967,None,1477.898596451967,None,1477.898596451967,None,1480.085700792959,None,1,0.6184106929576956,1480.085700792959,None,92,1480.7206676349742,None,114,B,1,2021_May_24_1508,GazeFlow,2020.1.2,59.850540378183105,
10,Block813.xls,B,,,,,,,,,,,,,,,,,,0,9,9,9,,,,,,,,,,,,,,,,,,,,,,,,,,,,,,,,,,,,,,,,,,,,114,B,1,2021_May_24_1508,GazeFlow,2020.1.2,59.850540378183105,
11,Block806.xls,B,6,1,10,10,None,congruent,Left,Left,Right,65,66,1,blue,2,6,/home/docky/apps/exp/images/35Y.jpeg,/home/docky/apps/exp/images/66Bi.jpeg,0,10,10,10,0,0,0,0,1501.8798063769937,None,1501.8798063769937,None,1,7.753400124958716,1501.8798063769937,None,1509.6597485549864,None,1509.6597485549864,None,1512.1802935269661,None,1512.1802935269661,None,2.903799347986933,1513.9790765639627,None,1513.9790765639627,None,6,1,0.9337773679872043,1516.891885362973,None,1516.891885362973,None,1516.891885362973,None,1517.842410452955,None,1,0.41754724900238216,1517.842410452955,None,94,1518.2766567899962,None,114,B,1,2021_May_24_1508,GazeFlow,2020.1.2,59.850540378183105,
11,Block806.xls,B,6,2,89,89,None,congruent,Right,Right,Left,76,69,7,yellow,2,5,/home/docky/apps/exp/images/76Yi.jpeg,/home/docky/apps/exp/images/69Y.jpeg,0,10,10,10,0,1,1,1,1519.2790480829426,None,1519.2790480829426,None,1,6.412712922960054,1519.2790480829426,None,1525.72556218697,None,1525.72556218697,None,1528.2300674559665,None,1528.2300674559665,None,1.4005885319784284,1530.029950562981,None,1530.029950562981,None,5,1,1.8029236400034279,1531.4192746559856,None,1531.4192746559856,None,1531.4192746559856,None,1533.2389985009795,None,1,0.6510592909762636,1533.2389985009795,None,96,1533.9067572099739,None,114,B,1,2021_May_24_1508,GazeFlow,2020.1.2,59.850540378183105,
11,Block806.xls,B,6,3,88,88,None,congruent,Right,Right,Left,76,69,7,yellow,2,5,/home/docky/apps/exp/images/76Y.jpeg,/home/docky/apps/exp/images/69Yi.jpeg,0,10,10,10,0,2,2,2,1534.9095477759838,None,1534.9095477759838,None,1,3.7240633009932935,1534.9095477759838,None,1538.6674641939462,None,1538.6674641939462,None,1541.1721488849726,None,1541.1721488849726,None,1.2157514540012926,1542.9702168839867,None,1542.9702168839867,None,5,1,0.8510582149610855,1544.177615462977,None,1544.177615462977,None,1544.177615462977,None,1545.0452680919552,None,1,0.40192779299104586,1545.0452680919552,None,98,1545.4631923789857,None,114,B,1,2021_May_24_1508,GazeFlow,2020.1.2,59.850540378183105,
11,Block806.xls,B,6,4,109,13,None,incongruent,Right,Left,Right,33,35,2,yellow,2,6,/home/docky/apps/exp/images/33Yi.jpeg,/home/docky/apps/exp/images/35Y.jpeg,0,10,10,10,0,3,3,3,1546.4648049619864,None,1546.4648049619864,None,1,4.158740143000614,1546.4648049619864,None,1550.6580212619738,None,1550.6580212619738,None,1553.160263334983,None,1553.160263334983,None,2.052168372028973,1554.9586340389797,None,1554.9586340389797,None,6,1,0.8517869520001113,1557.00239732099,None,1557.00239732099,None,1557.00239732099,None,1557.8706878049998,None,1,0.36690565099706873,1557.8706878049998,None,100,1558.2542988809873,None,114,B,1,2021_May_24_1508,GazeFlow,2020.1.2,59.850540378183105,
11,Block806.xls,B,6,5,37,37,None,congruent,Right,Right,Left,79,73,6,blue,2,5,/home/docky/apps/exp/images/79Bi.jpeg,/home/docky/apps/exp/images/73B.jpeg,0,10,10,10,0,4,4,4,1559.2562844319618,None,1559.2562844319618,None,1,5.995741605991498,1559.2562844319618,None,1565.2842509119655,None,1565.2842509119655,None,1567.7885898319655,None,1567.7885898319655,None,1.4177139300154522,1569.5918219739688,None,1569.5918219739688,None,5,1,0.8174275510245934,1570.9966189779807,None,1570.9966189779807,None,1570.9966189779807,None,1571.8308398230001,None,1,0.4008709979825653,1571.8308398230001,None,102,1572.248225881951,None,114,B,1,2021_May_24_1508,GazeFlow,2020.1.2,59.850540378183105,
11,Block806.xls,B,6,6,108,12,None,incongruent,Left,Right,Left,39,38,1,blue,2,5,/home/docky/apps/exp/images/39Bi.jpeg,/home/docky/apps/exp/images/38B.jpeg,0,10,10,10,0,5,5,5,1573.2502533539664,None,1573.2502533539664,None,1,4.559632432006765,1573.2502533539664,None,1577.8434932109667,None,1577.8434932109667,None,1580.3467802409432,None,1580.3467802409432,None,1.6348075569840148,1582.1499062669463,None,1582.1499062669463,None,6,0,0.8683656050125137,1583.7712626319844,None,1583.7712626319844,None,1583.7712626319844,None,1584.6560531189898,None,1,0.3342210190021433,1584.6560531189898,None,100,1585.0066438419744,None,114,B,1,2021_May_24_1508,GazeFlow,2020.1.2,59.850540378183105,
11,Block806.xls,B,6,7,52,52,None,congruent,Left,Left,Right,65,66,1,yellow,2,6,/home/docky/apps/exp/images/35B.jpeg,/home/docky/apps/exp/images/66Yi.jpeg,0,10,10,10,0,6,6,6,1586.0082096079714,None,1586.0082096079714,None,1,4.325834531977307,1586.0082096079714,None,1590.3677370339865,None,1590.3677370339865,None,1592.870912697981,None,1592.870912697981,None,1.5513373070280068,1594.673725111992,None,1594.673725111992,None,6,1,0.9521255529834889,1596.2120722419932,None,1596.2120722419932,None,1596.2120722419932,None,1597.1803058819496,None,1,0.35152793797897175,1597.1803058819496,None,102,1597.5476786319632,None,114,B,1,2021_May_24_1508,GazeFlow,2020.1.2,59.850540378183105,
11,Block806.xls,B,6,8,75,75,None,congruent,Right,Right,Left,35,33,2,yellow,2,5,/home/docky/apps/exp/images/35Yi.jpeg,/home/docky/apps/exp/images/33Y.jpeg,0,10,10,10,0,7,7,7,1598.549390503962,None,1598.549390503962,None,1,5.210736685956363,1598.549390503962,None,1603.7956451979699,None,1603.7956451979699,None,1606.3022050129948,None,1606.3022050129948,None,2.7205129979993217,1608.102463758958,None,1608.102463758958,None,5,1,1.7208606820204295,1610.8225868889713,None,1610.8225868889713,None,1610.8225868889713,None,1612.559811377956,None,1,0.45139442197978497,1612.559811377956,None,104,1613.0278891519993,None,114,B,1,2021_May_24_1508,GazeFlow,2020.1.2,59.850540378183105,
11,Block806.xls,B,,,,,,,,,,,,,,,,,,0,10,10,10,,,,,,,,,,,,,,,,,,,,,,,,,,,,,,,,,,,,,,,,,,,,114,B,1,2021_May_24_1508,GazeFlow,2020.1.2,59.850540378183105,
12,Block811.xls,B,11,1,86,86,None,congruent,Right,Right,Left,75,69,6,yellow,2,5,/home/docky/apps/exp/images/76Y.jpeg,/home/docky/apps/exp/images/69Yi.jpeg,0,11,11,11,0,0,0,0,1634.1536387749948,None,1634.1536387749948,None,1,5.669138225959614,1634.1536387749948,None,1639.842967630946,None,1639.842967630946,None,1642.3688620199682,None,1642.3688620199682,None,1.3831684309989214,1644.1722676819772,None,1644.1722676819772,None,5,1,0.9347991870017722,1645.5413912119693,None,1645.5413912119693,None,1645.5413912119693,None,1646.4929219219484,None,1,0.45148140098899603,1646.4929219219484,None,106,1646.960422657954,None,114,B,1,2021_May_24_1508,GazeFlow,2020.1.2,59.850540378183105,
12,Block811.xls,B,11,2,83,83,None,congruent,Right,Right,Left,75,69,6,yellow,2,5,/home/docky/apps/exp/images/76Yi.jpeg,/home/docky/apps/exp/images/69Y.jpeg,0,11,11,11,0,1,1,1,1647.9619222309557,None,1647.9619222309557,None,1,4.526633154018782,1647.9619222309557,None,1652.5221219779924,None,1652.5221219779924,None,1655.025467333966,None,1655.025467333966,None,1.4344531259848736,1656.8228841849486,None,1656.8228841849486,None,5,1,3.874346556025557,1658.2491411629599,None,1658.2491411629599,None,1658.2491411629599,None,1662.1398681619903,None,1,0.518037831003312,1662.1398681619903,None,108,1662.6741527139675,None,114,B,1,2021_May_24_1508,GazeFlow,2020.1.2,59.850540378183105,
12,Block811.xls,B,11,3,28,28,None,congruent,Right,Right,Left,38,35,3,blue,2,5,/home/docky/apps/exp/images/38Bi.jpeg,/home/docky/apps/exp/images/35B.jpeg,0,11,11,11,0,2,2,2,1663.6763601359562,None,1663.6763601359562,None,1,5.594851111003663,1663.6763601359562,None,1669.3045867669862,None,1669.3045867669862,None,1671.8095550779835,None,1671.8095550779835,None,1.3677742470172234,1673.6130651119747,None,1673.6130651119747,None,5,1,0.9186574199702591,1674.9650186629733,None,1674.9650186629733,None,1674.9650186629733,None,1675.9000633859541,None,1,0.45151182904373854,1675.9000633859541,None,110,1676.3676693319576,None,114,B,1,2021_May_24_1508,GazeFlow,2020.1.2,59.850540378183105,
12,Block811.xls,B,11,4,58,58,None,congruent,Left,Left,Right,62,65,3,yellow,2,6,/home/docky/apps/exp/images/38B.jpeg,/home/docky/apps/exp/images/35Bi.jpeg,0,11,11,11,0,3,3,3,1677.3693957069772,None,1677.3693957069772,None,1,5.678070462949108,1677.3693957069772,None,1683.0813219049596,None,1683.0813219049596,None,1685.5848290739814,None,1685.5848290739814,None,1.5180141819873825,1687.3866454439703,None,1687.3866454439703,None,6,1,1.001907167956233,1688.8922140339855,None,1688.8922140339855,None,1688.8922140339855,None,1689.9106644209824,None,1,0.5672921380028129,1689.9106644209824,None,112,1690.494881386985,None,114,B,1,2021_May_24_1508,GazeFlow,2020.1.2,59.850540378183105,
12,Block811.xls,B,11,5,32,32,None,congruent,Right,Right,Left,66,65,1,blue,2,5,/home/docky/apps/exp/images/66Bi.jpeg,/home/docky/apps/exp/images/35Y.jpeg,0,11,11,11,0,4,4,4,1691.4967936499743,None,1691.4967936499743,None,1,4.80991652602097,1691.4967936499743,None,1696.3403428829624,None,1696.3403428829624,None,1698.8435717839748,None,1698.8435717839748,None,1.6012310030055232,1700.6488054619986,None,1700.6488054619986,None,5,1,0.8685569919762202,1702.2347246509744,None,1702.2347246509744,None,1702.2347246509744,None,1703.119643913,None,1,0.4013164330390282,1703.119643913,None,114,1703.537165556976,None,114,B,1,2021_May_24_1508,GazeFlow,2020.1.2,59.850540378183105,
12,Block811.xls,B,11,6,67,67,None,congruent,Left,Left,Right,72,77,5,yellow,2,6,/home/docky/apps/exp/images/72Y.jpeg,/home/docky/apps/exp/images/77Yi.jpeg,0,11,11,11,0,5,5,5,1704.5389254279435,None,1704.5389254279435,None,1,5.010149759997148,1704.5389254279435,None,1709.5805587459472,None,1709.5805587459472,None,1712.0857075049425,None,1712.0857075049425,None,1.3842584560043178,1713.883630428987,None,1713.883630428987,None,6,1,0.9010807579616085,1715.260116927966,None,1715.260116927966,None,1715.260116927966,None,1716.177680957946,None,1,0.3842421919689514,1716.177680957946,None,116,1716.5783868579892,None,114,B,1,2021_May_24_1508,GazeFlow,2020.1.2,59.850540378183105,
12,Block811.xls,B,11,7,120,24,None,incongruent,Left,Right,Left,77,72,5,yellow,2,5,/home/docky/apps/exp/images/77Y.jpeg,/home/docky/apps/exp/images/72Yi.jpeg,0,11,11,11,0,6,6,6,1717.5808557739947,None,1717.5808557739947,None,1,5.260829424019903,1717.5808557739947,None,1722.8736335829599,None,1722.8736335829599,None,1725.3800811289693,None,1725.3800811289693,None,2.486879257019609,1727.181344015,None,1727.181344015,None,5,1,0.9509263169602491,1729.6550878489506,None,1729.6550878489506,None,1729.6550878489506,None,1730.622620841954,None,1,0.45121951994951814,1730.622620841954,None,118,1731.0902223389712,None,114,B,1,2021_May_24_1508,GazeFlow,2020.1.2,59.850540378183105,
12,Block811.xls,B,11,8,57,57,None,congruent,Left,Left,Right,62,65,3,yellow,2,6,/home/docky/apps/exp/images/38Bi.jpeg,/home/docky/apps/exp/images/35B.jpeg,0,11,11,11,0,7,7,7,1732.0925462419982,None,1732.0925462419982,None,1,4.158524133032188,1732.0925462419982,None,1736.2847578679794,None,1736.2847578679794,None,1738.7882648189552,None,1738.7882648189552,None,2.7706149630248547,1740.5909839739907,None,1740.5909839739907,None,5,0,0.9194905010517687,1743.3631529259728,None,1743.3631529259728,None,1743.3631529259728,None,1744.2994225789444,None,1,0.4673820419702679,1744.2994225789444,None,116,1744.783419898944,None,114,B,1,2021_May_24_1508,GazeFlow,2020.1.2,59.850540378183105,
12,Block811.xls,B,,,,,,,,,,,,,,,,,,0,11,11,11,,,,,,,,,,,,,,,,,,,,,,,,,,,,,,,,,,,,,,,,,,,,114,B,1,2021_May_24_1508,GazeFlow,2020.1.2,59.850540378183105,
13,Block808.xls,B,8,1,118,22,None,incongruent,Left,Right,Left,75,69,6,yellow,2,5,/home/docky/apps/exp/images/76Y.jpeg,/home/docky/apps/exp/images/69Yi.jpeg,0,12,12,12,0,0,0,0,1766.62800518499,None,1766.62800518499,None,1,4.865958224050701,1766.62800518499,None,1771.5231492249877,None,1771.5231492249877,None,1774.0415945939603,None,1774.0415945939603,None,1.5674643520032987,1775.838943287963,None,1775.838943287963,None,5,1,0.9355059009976685,1777.3975737409783,None,1777.3975737409783,None,1777.3975737409783,None,1778.3493542129872,None,1,0.4669918440049514,1778.3493542129872,None,118,1778.8330792709603,None,114,B,1,2021_May_24_1508,GazeFlow,2020.1.2,59.850540378183105,
13,Block808.xls,B,8,2,7,7,None,congruent,Left,Left,Right,65,66,1,blue,2,6,/home/docky/apps/exp/images/35Yi.jpeg,/home/docky/apps/exp/images/66B.jpeg,0,12,12,12,0,1,1,1,1779.8350362159545,None,1779.8350362159545,None,1,5.49468835699372,1779.8350362159545,None,1785.3635596539825,None,1785.3635596539825,None,1787.8666836259654,None,1787.8666836259654,None,1.6513486879994161,1789.671695520985,None,1789.671695520985,None,6,1,0.8350679340073839,1791.3079316279618,None,1791.3079316279618,None,1791.3079316279618,None,1792.1594284069724,None,1,0.30120698403334245,1792.1594284069724,None,120,1792.4765964769758,None,114,B,1,2021_May_24_1508,GazeFlow,2020.1.2,59.850540378183105,
13,Block808.xls,B,8,3,112,16,None,incongruent,Right,Left,Right,69,76,7,yellow,2,6,/home/docky/apps/exp/images/69Yi.jpeg,/home/docky/apps/exp/images/76Y.jpeg,0,12,12,12,0,2,2,2,1793.4782369059976,None,1793.4782369059976,None,1,4.158696661004797,1793.4782369059976,None,1797.6709070059587,None,1797.6709070059587,None,1800.1738171219476,None,1800.1738171219476,None,1.7351607599994168,1801.971657120972,None,1801.971657120972,None,6,1,3.7578541069524363,1803.6986667729798,None,1803.6986667729798,None,1803.6986667729798,None,1807.4724116889993,None,1,0.718385201995261,1807.4724116889993,None,122,1808.2073248499655,None,114,B,1,2021_May_24_1508,GazeFlow,2020.1.2,59.850540378183105,
13,Block808.xls,B,8,4,97,1,None,incongruent,Right,Left,Right,16,19,3,blue,2,6,/home/docky/apps/exp/images/16Bi.jpeg,/home/docky/apps/exp/images/19B.jpeg,0,12,12,12,0,3,3,3,1809.209280318988,None,1809.209280318988,None,1,3.824544005037751,1809.209280318988,None,1813.0679715409642,None,1813.0679715409642,None,1815.5706736089778,None,1815.5706736089778,None,2.2528073649737053,1817.374094436993,None,1817.374094436993,None,6,1,2.1202730810036883,1819.6128992699669,None,1819.6128992699669,None,1819.6128992699669,None,1821.749652985949,None,1,1.0862059879582375,1821.749652985949,None,124,1822.8523273369647,None,114,B,1,2021_May_24_1508,GazeFlow,2020.1.2,59.850540378183105,
13,Block808.xls,B,8,5,24,24,None,congruent,Left,Left,Right,80,83,3,blue,2,6,/home/docky/apps/exp/images/80Bi.jpeg,/home/docky/apps/exp/images/83B.jpeg,0,12,12,12,0,4,4,4,1823.8543814839795,None,1823.8543814839795,None,1,4.108256012958009,1823.8543814839795,None,1827.994762546965,None,1827.994762546965,None,1830.4996093809605,None,1830.4996093809605,None,1.451034797995817,1832.3028917899937,None,1832.3028917899937,None,6,1,0.9014229099848308,1833.7404576409608,None,1833.7404576409608,None,1833.7404576409608,None,1834.6586525989696,None,1,0.48465136502636597,1834.6586525989696,None,126,1835.159681297955,None,114,B,1,2021_May_24_1508,GazeFlow,2020.1.2,59.850540378183105,
13,Block808.xls,B,8,6,13,13,None,congruent,Left,Left,Right,38,39,1,blue,2,6,/home/docky/apps/exp/images/38Bi.jpeg,/home/docky/apps/exp/images/39B.jpeg,0,12,12,12,0,5,5,5,1836.161294853955,None,1836.161294853955,None,1,4.37627704202896,1836.161294853955,None,1840.5707439989783,None,1840.5707439989783,None,1843.073946601944,None,1843.073946601944,None,1.5177685000235215,1844.872813363967,None,1844.872813363967,None,6,1,0.852001876977738,1846.38160736399,None,1846.38160736399,None,1846.38160736399,None,1847.249847221945,None,1,0.3505601010401733,1847.249847221945,None,128,1847.617171010992,None,114,B,1,2021_May_24_1508,GazeFlow,2020.1.2,59.850540378183105,
13,Block808.xls,B,8,7,8,8,None,congruent,Left,Left,Right,65,66,1,blue,2,6,/home/docky/apps/exp/images/35Y.jpeg,/home/docky/apps/exp/images/66Bi.jpeg,0,12,12,12,0,6,6,6,1848.6185503129964,None,1848.6185503129964,None,1,4.960488234006334,1848.6185503129964,None,1853.6183462199988,None,1853.6183462199988,None,1856.1177476089797,None,1856.1177476089797,None,2.303004576009698,1857.914360825962,None,1857.914360825962,None,5,0,0.8513007009751163,1860.2084225789877,None,1860.2084225789877,None,1860.2084225789877,None,1861.0762384739937,None,1,0.4343904439592734,1861.0762384739937,None,126,1861.5282748769969,None,114,B,1,2021_May_24_1508,GazeFlow,2020.1.2,59.850540378183105,
13,Block808.xls,B,8,8,31,31,None,congruent,Right,Right,Left,66,65,1,blue,2,5,/home/docky/apps/exp/images/66B.jpeg,/home/docky/apps/exp/images/35Yi.jpeg,0,12,12,12,0,7,7,7,1862.5293871329632,None,1862.5293871329632,None,1,4.92677460500272,1862.5293871329632,None,1867.4883058549603,None,1867.4883058549603,None,1869.983900538995,None,1869.983900538995,None,1.35091498401016,1871.79622987099,None,1871.79622987099,None,6,0,0.8847298839828,1873.1335906309541,None,1873.1335906309541,None,1873.1335906309541,None,1874.0346171219717,None,1,0.3513271469855681,1874.0346171219717,None,124,1874.4026066579972,None,114,B,1,2021_May_24_1508,GazeFlow,2020.1.2,59.850540378183105,
13,Block808.xls,B,,,,,,,,,,,,,,,,,,0,12,12,12,,,,,,,,,,,,,,,,,,,,,,,,,,,,,,,,,,,,,,,,,,,,114,B,1,2021_May_24_1508,GazeFlow,2020.1.2,59.850540378183105,
14,Block815.xls,B,15,1,65,65,None,congruent,Left,Left,Right,69,76,7,yellow,2,6,/home/docky/apps/exp/images/69Yi.jpeg,/home/docky/apps/exp/images/76Y.jpeg,0,13,13,13,0,0,0,0,1899.7535268999636,None,1899.7535268999636,None,1,6.536404989019502,1899.7535268999636,None,1906.3115321849473,None,1906.3115321849473,None,1908.8371215069783,None,1908.8371215069783,None,1.4003103889990598,1910.640350682952,None,1910.640350682952,None,6,1,0.9342691010097042,1912.0261455429718,None,1912.0261455429718,None,1912.0261455429718,None,1912.977934841998,None,1,0.36714341200422496,1912.977934841998,None,126,1913.3613035289454,None,114,B,1,2021_May_24_1508,GazeFlow,2020.1.2,59.850540378183105,
14,Block815.xls,B,15,2,102,6,None,incongruent,Right,Left,Right,80,83,3,blue,2,6,/home/docky/apps/exp/images/80B.jpeg,/home/docky/apps/exp/images/83Bi.jpeg,0,13,13,13,0,1,1,1,1914.3629828419653,None,1914.3629828419653,None,1,5.010694678989239,1914.3629828419653,None,1919.409697918978,None,1919.409697918978,None,1921.9101278519956,None,1921.9101278519956,None,1.71807861601701,1923.7138409119798,None,1923.7138409119798,None,6,1,0.9017854849807918,1925.4184351359727,None,1925.4184351359727,None,1925.4184351359727,None,1926.3368301079609,None,1,0.3839046499924734,1926.3368301079609,None,128,1926.7371930579538,None,114,B,1,2021_May_24_1508,GazeFlow,2020.1.2,59.850540378183105,
14,Block815.xls,B,15,3,33,33,None,congruent,Right,Right,Left,66,65,1,blue,2,5,/home/docky/apps/exp/images/66Bi.jpeg,/home/docky/apps/exp/images/35Y.jpeg,0,13,13,13,0,2,2,2,1927.739156600961,None,1927.739156600961,None,1,5.394541292975191,1927.739156600961,None,1933.167548236961,None,1933.167548236961,None,1935.670657497947,None,1935.670657497947,None,1.4849749869899824,1937.4743197479984,None,1937.4743197479984,None,5,1,0.8858074810123071,1938.944928632991,None,1938.944928632991,None,1938.944928632991,None,1939.8464434369816,None,1,0.4177196059608832,1939.8464434369816,None,130,1940.2806065759505,None,114,B,1,2021_May_24_1508,GazeFlow,2020.1.2,59.850540378183105,
14,Block815.xls,B,15,4,72,72,None,congruent,Left,Left,Right,79,82,3,yellow,2,6,/home/docky/apps/exp/images/79Yi.jpeg,/home/docky/apps/exp/images/80Y.jpeg,0,13,13,13,0,3,3,3,1941.2821607859805,None,1941.2821607859805,None,1,3.9752050709794275,1941.2821607859805,None,1945.2892653669696,None,1945.2892653669696,None,1947.7937236669823,None,1947.7937236669823,None,1.2338601810042746,1949.5973732179846,None,1949.5973732179846,None,6,1,1.9700684240087867,1950.8179626269848,None,1950.8179626269848,None,1950.8179626269848,None,1952.8044660669984,None,1,0.6347513010259718,1952.8044660669984,None,132,1953.4560947719729,None,114,B,1,2021_May_24_1508,GazeFlow,2020.1.2,59.850540378183105,
14,Block815.xls,B,15,5,100,4,None,incongruent,Right,Left,Right,73,76,3,blue,2,6,/home/docky/apps/exp/images/73B.jpeg,/home/docky/apps/exp/images/76Bi.jpeg,0,13,13,13,0,4,4,4,1954.4582711679977,None,1954.4582711679977,None,1,5.126912227016874,1954.4582711679977,None,1959.6187340089818,None,1959.6187340089818,None,1962.1222606619704,None,1962.1222606619704,None,1.8185767339891754,1963.920637498959,None,1963.920637498959,None,6,1,0.8189972609980032,1965.7302182849962,None,1965.7302182849962,None,1965.7302182849962,None,1966.5651333889691,None,1,0.383888996031601,1966.5651333889691,None,134,1966.9656409909949,None,114,B,1,2021_May_24_1508,GazeFlow,2020.1.2,59.850540378183105,
14,Block815.xls,B,15,6,45,45,None,congruent,Right,Right,Left,39,38,1,blue,2,5,/home/docky/apps/exp/images/39B.jpeg,/home/docky/apps/exp/images/38Bi.jpeg,0,13,13,13,0,5,5,5,1967.9675697759958,None,1967.9675697759958,None,1,3.9920249050483108,1967.9675697759958,None,1971.993035233987,None,1971.993035233987,None,1974.4954441659502,None,1974.4954441659502,None,1.234191978990566,1976.2992149069905,None,1976.2992149069905,None,5,1,0.83446947298944,1977.520032948989,None,1977.520032948989,None,1977.520032948989,None,1978.370957136969,None,1,0.45129268302116543,1978.370957136969,None,136,1978.8391483689775,None,114,B,1,2021_May_24_1508,GazeFlow,2020.1.2,59.850540378183105,
14,Block815.xls,B,15,7,98,2,None,incongruent,Right,Left,Right,35,38,3,blue,2,6,/home/docky/apps/exp/images/35Bi.jpeg,/home/docky/apps/exp/images/38B.jpeg,0,13,13,13,0,6,6,6,1979.8405920309597,None,1979.8405920309597,None,1,3.97510294301901,1979.8405920309597,None,1983.8493358699488,None,1983.8493358699488,None,1986.3522855989868,None,1986.3522855989868,None,1.2508826139965095,1988.1562197519816,None,1988.1562197519816,None,6,1,0.8177607330144383,1989.3929463289678,None,1989.3929463289678,None,1989.3929463289678,None,1990.227458728943,None,1,0.40129523898940533,1990.227458728943,None,138,1990.6451796689653,None,114,B,1,2021_May_24_1508,GazeFlow,2020.1.2,59.850540378183105,
14,Block815.xls,B,15,8,59,59,None,congruent,Left,Left,Right,38,39,1,yellow,2,6,/home/docky/apps/exp/images/38Yi.jpeg,/home/docky/apps/exp/images/39Y.jpeg,0,13,13,13,0,7,7,7,1991.6469702339964,None,1991.6469702339964,None,1,4.342361118004192,1991.6469702339964,None,1996.0231914389879,None,1996.0231914389879,None,1998.5276262479601,None,1998.5276262479601,None,1.250747854996007,2000.3290975259733,None,2000.3290975259733,None,6,1,15.54700523300562,2001.5666523149703,None,2001.5666523149703,None,2001.5666523149703,None,2017.1300413549761,None,1,0.7849083549808711,2017.1300413549761,None,140,2017.9316412089975,None,114,B,1,2021_May_24_1508,GazeFlow,2020.1.2,59.850540378183105,
14,Block815.xls,B,,,,,,,,,,,,,,,,,,0,13,13,13,,,,,,,,,,,,,,,,,,,,,,,,,,,,,,,,,,,,,,,,,,,,114,B,1,2021_May_24_1508,GazeFlow,2020.1.2,59.850540378183105,
15,Block807.xls,B,7,1,71,71,None,congruent,Left,Left,Right,79,82,3,yellow,2,6,/home/docky/apps/exp/images/79Y.jpeg,/home/docky/apps/exp/images/80Yi.jpeg,0,14,14,14,0,0,0,0,2055.8533118999912,None,2055.8533118999912,None,1,3.784494203981012,2055.8533118999912,None,2059.660348757985,None,2059.660348757985,None,2062.184947033995,None,2062.184947033995,None,1.5171673720469698,2063.981884075969,None,2063.981884075969,None,6,1,1.0017855180194601,2065.491169899993,None,2065.491169899993,None,2065.491169899993,None,2066.5094469699543,None,1,0.5170023399987258,2066.5094469699543,None,142,2067.043293959985,None,114,B,1,2021_May_24_1508,GazeFlow,2020.1.2,59.850540378183105,
15,Block807.xls,B,7,2,44,44,None,congruent,Right,Right,Left,83,80,3,blue,2,5,/home/docky/apps/exp/images/83Bi.jpeg,/home/docky/apps/exp/images/80B.jpeg,0,14,14,14,0,1,1,1,2068.0453259859933,None,2068.0453259859933,None,1,4.2761582609964535,2068.0453259859933,None,2072.354676075978,None,2072.354676075978,None,2074.857964351948,None,2074.857964351948,None,1.2507475340389647,2076.661462672986,None,2076.661462672986,None,5,1,0.9678703440004028,2077.898409836984,None,2077.898409836984,None,2077.898409836984,None,2078.882829337963,None,1,0.43501179898157716,2078.882829337963,None,144,2079.3343697479577,None,114,B,1,2021_May_24_1508,GazeFlow,2020.1.2,59.850540378183105,
15,Block807.xls,B,7,3,48,48,None,congruent,Right,Right,Left,39,38,1,blue,2,5,/home/docky/apps/exp/images/39Bi.jpeg,/home/docky/apps/exp/images/38B.jpeg,0,14,14,14,0,2,2,2,2080.335818374995,None,2080.335818374995,None,1,5.127905817993451,2080.335818374995,None,2085.4953534929664,None,2085.4953534929664,None,2088.0017224529875,None,2088.0017224529875,None,1.7348777270526625,2089.803256342944,None,2089.803256342944,None,6,0,18.185788100003265,2091.5248281729873,None,2091.5248281729873,None,2091.5248281729873,None,2109.7278077469673,None,1,0.7004967289976776,2109.7278077469673,None,142,2110.4447739269817,None,114,B,1,2021_May_24_1508,GazeFlow,2020.1.2,59.850540378183105,
15,Block807.xls,B,7,4,113,17,None,incongruent,Right,Left,Right,72,77,5,yellow,2,6,/home/docky/apps/exp/images/72Yi.jpeg,/home/docky/apps/exp/images/77Y.jpeg,0,14,14,14,0,3,3,3,2111.446938290959,None,2111.446938290959,None,1,4.592568385996856,2111.446938290959,None,2116.073215365992,None,2116.073215365992,None,2118.577773487952,None,2118.577773487952,None,2.0855044750496745,2120.3810849289875,None,2120.3810849289875,None,6,1,1.3185958549729548,2122.4517473909655,None,2122.4517473909655,None,2122.4517473909655,None,2123.7869669559877,None,1,0.45074813696555793,2123.7869669559877,None,144,2124.2541729009827,None,114,B,1,2021_May_24_1508,GazeFlow,2020.1.2,59.850540378183105,
15,Block807.xls,B,7,5,69,69,None,congruent,Left,Left,Right,72,77,5,yellow,2,6,/home/docky/apps/exp/images/72Y.jpeg,/home/docky/apps/exp/images/77Yi.jpeg,0,14,14,14,0,4,4,4,2125.2568623249535,None,2125.2568623249535,None,1,5.461637396016158,2125.2568623249535,None,2130.7528964999947,None,2130.7528964999947,None,2133.254788508988,None,2133.254788508988,None,1.601392748998478,2135.0583123049582,None,2135.0583123049582,None,6,1,0.8679442289867438,2136.645667892997,None,2136.645667892997,None,2136.645667892997,None,2137.530550253985,None,1,0.43441257503582165,2137.530550253985,None,146,2137.981426304963,None,114,B,1,2021_May_24_1508,GazeFlow,2020.1.2,59.850540378183105,
15,Block807.xls,B,7,6,39,39,None,congruent,Right,Right,Left,79,76,3,blue,2,5,/home/docky/apps/exp/images/79B.jpeg,/home/docky/apps/exp/images/76Bi.jpeg,0,14,14,14,0,5,5,5,2138.982836669951,None,2138.982836669951,None,1,4.810547289962415,2138.982836669951,None,2143.8269203439704,None,2143.8269203439704,None,2146.3294134849566,None,2146.3294134849566,None,1.8519945610314608,2148.132737554959,None,2148.132737554959,None,5,1,0.9848206440219656,2149.9713718409766,None,2149.9713718409766,None,2149.9713718409766,None,2150.9729285419453,None,1,0.4174450500286184,2150.9729285419453,None,148,2151.4069068179815,None,114,B,1,2021_May_24_1508,GazeFlow,2020.1.2,59.850540378183105,
15,Block807.xls,B,7,7,50,50,None,congruent,Left,Left,Right,33,35,2,yellow,2,6,/home/docky/apps/exp/images/33Y.jpeg,/home/docky/apps/exp/images/35Yi.jpeg,0,14,14,14,0,6,6,6,2152.408953079954,None,2152.408953079954,None,1,5.8113084440119565,2152.408953079954,None,2158.237465886981,None,2158.237465886981,None,2160.742176789965,None,2160.742176789965,None,2.2705762879922986,2162.545876908989,None,2162.545876908989,None,6,1,1.001028746017255,2164.817137042992,None,2164.817137042992,None,2164.817137042992,None,2165.8351860029506,None,1,0.41719306498998776,2165.8351860029506,None,150,2166.269082370971,None,114,B,1,2021_May_24_1508,GazeFlow,2020.1.2,59.850540378183105,
15,Block807.xls,B,7,8,19,19,None,congruent,Left,Left,Right,76,79,3,blue,2,6,/home/docky/apps/exp/images/76B.jpeg,/home/docky/apps/exp/images/79Bi.jpeg,0,14,14,14,0,7,7,7,2167.2712820859742,None,2167.2712820859742,None,1,5.394761765026487,2167.2712820859742,None,2172.701306909963,None,2172.701306909963,None,2175.2022106819786,None,2175.2022106819786,None,1.4340504609863274,2177.001222824969,None,2177.001222824969,None,6,1,0.9012071519973688,2178.4262420539744,None,2178.4262420539744,None,2178.4262420539744,None,2179.344347863982,None,1,0.43483684002421796,2179.344347863982,None,152,2179.795732042985,None,114,B,1,2021_May_24_1508,GazeFlow,2020.1.2,59.850540378183105,
15,Block807.xls,B,,,,,,,,,,,,,,,,,,0,14,14,14,,,,,,,,,,,,,,,,,,,,,,,,,,,,,,,,,,,,,,,,,,,,114,B,1,2021_May_24_1508,GazeFlow,2020.1.2,59.850540378183105,
