Nblock,condsFile,grouping,Block,TrialBlock,N,trialN,trialCond,gazeCon,gazedirR,corrBinR,corrBinP,valLBY,valRBY,diff,colorCube,feedbacktext,corrAns,imageL,imageR,SelBlocks.thisRepN,SelBlocks.thisTrialN,SelBlocks.thisN,SelBlocks.thisIndex,Trials.thisRepN,Trials.thisTrialN,Trials.thisN,Trials.thisIndex,waitCube.started,waitCube.stopped,text_3.started,text_3.stopped,StartKeyPress.keys,StartKeyPress.rt,StartKeyPress.started,StartKeyPress.stopped,StimL.started,StimL.stopped,StimR.started,StimR.stopped,imageStim2L.started,imageStim2L.stopped,imageStim2R.started,imageStim2R.stopped,RTkeyRelease,imageStim3L.started,imageStim3L.stopped,imageStim3R.started,imageStim3R.stopped,dropResp.keys,dropResp.corr,dropResp.rt,dropResp.started,dropResp.stopped,imageStim5L.started,imageStim5L.stopped,imageStim5R.started,imageStim5R.stopped,text_2.started,text_2.stopped,ReturnSpace.keys,ReturnSpace.rt,ReturnSpace.started,ReturnSpace.stopped,totalpoints,textFeedback.started,textFeedback.stopped,participant,group,session,date,expName,psychopyVersion,frameRate,
1,Block502.xls,A,2,1,93,33,22,incongruent,Left,Right,Left,38,35,3,blue,2,5,/home/docky/apps/exp/images/38B.jpeg,/home/docky/apps/exp/images/35Bi.jpeg,0,0,0,0,0,0,0,0,77.1488970950013,None,77.1488970950013,None,1,6.166851801972371,77.1488970950013,None,83.35510187700856,None,83.35510187700856,None,85.86571249004919,None,85.86571249004919,None,0.9827682800241746,87.66590203600936,None,87.66590203600936,None,5,1,1.0347272379440255,88.6343547940487,None,88.6343547940487,None,88.6343547940487,None,89.68568336800672,None,1,0.9353809570311569,89.68568336800672,None,2,90.6375510530197,None,115,A,1,2021_May_24_1628,GazeFlow,2020.1.2,59.86565166647968,
1,Block502.xls,A,2,2,42,42,12,congruent,Right,Right,Left,83,80,3,blue,2,5,/home/docky/apps/exp/images/83Bi.jpeg,/home/docky/apps/exp/images/80B.jpeg,0,0,0,0,0,1,1,1,91.63965236104559,None,91.63965236104559,None,1,6.245963957044296,91.63965236104559,None,97.91925999202067,None,97.91925999202067,None,100.42588262300706,None,100.42588262300706,None,1.150342045002617,102.22607706999406,None,102.22607706999406,None,5,1,1.1858610039926134,103.36284936399898,None,103.36284936399898,None,103.36284936399898,None,104.56512186501641,None,1,1.0181979810004123,104.56512186501641,None,4,105.5998676030431,None,115,A,1,2021_May_24_1628,GazeFlow,2020.1.2,59.86565166647968,
1,Block502.xls,A,2,3,9,9,11,congruent,Left,Left,Right,38,39,1,blue,2,6,/home/docky/apps/exp/images/38Bi.jpeg,/home/docky/apps/exp/images/39B.jpeg,0,0,0,0,0,2,2,2,106.60221572202863,None,106.60221572202863,None,1,6.5798516439972445,106.60221572202863,None,113.21595090802293,None,113.21595090802293,None,115.71931671502534,None,115.71931671502534,None,1.167147270985879,117.51767869404284,None,117.51767869404284,None,6,1,1.202132236037869,118.6760363530484,None,118.6760363530484,None,118.6760363530484,None,119.89467891899403,None,1,0.7178635050076991,119.89467891899403,None,6,120.62909080000827,None,115,A,1,2021_May_24_1628,GazeFlow,2020.1.2,59.86565166647968,
1,Block502.xls,A,2,4,23,23,11,congruent,Left,Left,Right,38,39,1,yellow,2,6,/home/docky/apps/exp/images/38Yi.jpeg,/home/docky/apps/exp/images/39Y.jpeg,0,0,0,0,0,3,3,3,121.63145118800458,None,121.63145118800458,None,1,6.229163834999781,121.63145118800458,None,127.89432553999359,None,127.89432553999359,None,130.3976105620386,None,130.3976105620386,None,1.4844540390186012,132.20079206500668,None,132.20079206500668,None,6,1,1.0527157480246387,133.67163525504293,None,133.67163525504293,None,133.67163525504293,None,134.74032915499993,None,1,0.5506366189802065,134.74032915499993,None,8,135.30742423201445,None,115,A,1,2021_May_24_1628,GazeFlow,2020.1.2,59.86565166647968,
1,Block502.xls,A,2,5,57,57,12,congruent,Right,Right,Left,77,72,5,yellow,2,5,/home/docky/apps/exp/images/77Y.jpeg,/home/docky/apps/exp/images/72Yi.jpeg,0,0,0,0,0,4,4,4,136.31037303304765,None,136.31037303304765,None,1,5.644278202962596,136.31037303304765,None,141.9884558049962,None,141.9884558049962,None,144.49303691700334,None,144.49303691700334,None,1.3675731839612126,146.29536731704138,None,146.29536731704138,None,6,0,0.9687368880258873,147.64873802603688,None,147.64873802603688,None,147.64873802603688,None,148.63394830399193,None,1,0.6675634630373679,148.63394830399193,None,6,149.3183976240107,None,115,A,1,2021_May_24_1628,GazeFlow,2020.1.2,59.86565166647968,
1,Block502.xls,A,2,6,118,58,22,incongruent,Left,Right,Left,80,79,1,yellow,2,5,/home/docky/apps/exp/images/80Yi.jpeg,/home/docky/apps/exp/images/79Y.jpeg,0,0,0,0,0,5,5,5,150.32005692401435,None,150.32005692401435,None,1,6.764541529002599,150.32005692401435,None,157.11758158402517,None,157.11758158402517,None,159.62244403600926,None,159.62244403600926,None,1.517692193039693,161.42474754800787,None,161.42474754800787,None,5,1,1.0859687400516123,162.92856717499672,None,162.92856717499672,None,162.92856717499672,None,164.0306374100037,None,1,0.6341660449979827,164.0306374100037,None,8,164.68134364800062,None,115,A,1,2021_May_24_1628,GazeFlow,2020.1.2,59.86565166647968,
1,Block502.xls,A,2,7,101,41,22,incongruent,Left,Right,Left,83,80,3,blue,2,5,/home/docky/apps/exp/images/83Bi.jpeg,/home/docky/apps/exp/images/80B.jpeg,0,0,0,0,0,6,6,6,165.6832820700365,None,165.6832820700365,None,1,6.179899147013202,165.6832820700365,None,171.8974802500452,None,171.8974802500452,None,174.40249761904124,None,174.40249761904124,None,1.2839179700240493,176.20311270403909,None,176.20311270403909,None,5,1,0.9519164150115103,177.47326817101566,None,177.47326817101566,None,177.47326817101566,None,178.44160373701015,None,1,0.5686016769614071,178.44160373701015,None,10,179.0262670200318,None,115,A,1,2021_May_24_1628,GazeFlow,2020.1.2,59.86565166647968,
1,Block502.xls,A,2,8,69,9,21,incongruent,Right,Left,Right,73,76,3,blue,2,6,/home/docky/apps/exp/images/73B.jpeg,/home/docky/apps/exp/images/76Bi.jpeg,0,0,0,0,0,7,7,7,180.02816959802294,None,180.02816959802294,None,1,5.745359738997649,180.02816959802294,None,185.80684498004848,None,185.80684498004848,None,188.31028881500242,None,188.31028881500242,None,1.5512170540168881,190.11381049401825,None,190.11381049401825,None,5,0,1.3031278839916922,191.65091099502752,None,191.65091099502752,None,191.65091099502752,None,192.97008464002283,None,1,0.6341727900435217,192.97008464002283,None,8,193.62085111101624,None,115,A,1,2021_May_24_1628,GazeFlow,2020.1.2,59.86565166647968,
1,Block502.xls,A,,,,,,,,,,,,,,,,,,0,0,0,0,,,,,,,,,,,,,,,,,,,,,,,,,,,,,,,,,,,,,,,,,,,,115,A,1,2021_May_24_1628,GazeFlow,2020.1.2,59.86565166647968,
2,Block506.xls,A,6,1,120,60,22,incongruent,Left,Right,Left,80,79,1,yellow,2,5,/home/docky/apps/exp/images/80Yi.jpeg,/home/docky/apps/exp/images/79Y.jpeg,0,1,1,1,0,0,0,0,212.1749618120375,None,212.1749618120375,None,1,8.822175611974671,212.1749618120375,None,221.03057366301073,None,221.03057366301073,None,223.546969706018,None,223.546969706018,None,1.4668360599898733,225.35043359204428,None,225.35043359204428,None,5,1,1.018640894035343,226.8027445700136,None,226.8027445700136,None,226.8027445700136,None,227.8377586340066,None,1,0.617795764002949,227.8377586340066,None,10,228.4719869190012,None,115,A,1,2021_May_24_1628,GazeFlow,2020.1.2,59.86565166647968,
2,Block506.xls,A,6,2,51,51,12,congruent,Right,Right,Left,66,65,1,yellow,2,5,/home/docky/apps/exp/images/66Y.jpeg,/home/docky/apps/exp/images/35Bi.jpeg,0,1,1,1,0,1,1,1,229.4738150050398,None,229.4738150050398,None,1,5.5615425009746104,229.4738150050398,None,235.0741892880178,None,235.0741892880178,None,237.57383365102578,None,237.57383365102578,None,1.7182826950447634,239.37782820803113,None,239.37782820803113,None,5,1,1.0018115859711543,241.0806061589974,None,241.0806061589974,None,241.0806061589974,None,242.0988877180498,None,1,0.483993869042024,242.0988877180498,None,12,242.59932123700855,None,115,A,1,2021_May_24_1628,GazeFlow,2020.1.2,59.86565166647968,
2,Block506.xls,A,6,3,119,59,22,incongruent,Left,Right,Left,80,79,1,yellow,2,5,/home/docky/apps/exp/images/80Y.jpeg,/home/docky/apps/exp/images/79Yi.jpeg,0,1,1,1,0,2,2,2,243.6014678089996,None,243.6014678089996,None,1,6.630087077966891,243.6014678089996,None,250.26557240303373,None,250.26557240303373,None,252.768491630035,None,252.768491630035,None,1.718173970002681,254.56595698202727,None,254.56595698202727,None,5,1,1.068952772009652,256.27650838403497,None,256.27650838403497,None,256.27650838403497,None,257.36186668800656,None,1,0.5337367610190995,257.36186668800656,None,14,257.91229129600106,None,115,A,1,2021_May_24_1628,GazeFlow,2020.1.2,59.86565166647968,
2,Block506.xls,A,6,4,28,28,11,congruent,Left,Left,Right,72,77,5,yellow,2,6,/home/docky/apps/exp/images/72Y.jpeg,/home/docky/apps/exp/images/77Yi.jpeg,0,1,1,1,0,3,3,3,258.9149495839956,None,258.9149495839956,None,1,5.39443680702243,258.9149495839956,None,264.34333698102273,None,264.34333698102273,None,266.8477045870386,None,266.8477045870386,None,2.4200354490312748,268.6441486860276,None,268.6441486860276,None,6,1,0.850669278006535,271.0557603579946,None,271.0557603579946,None,271.0557603579946,None,271.9231592870201,None,1,1.0357289590174332,271.9231592870201,None,16,272.97550381999463,None,115,A,1,2021_May_24_1628,GazeFlow,2020.1.2,59.86565166647968,
2,Block506.xls,A,6,5,85,25,21,incongruent,Right,Left,Right,69,75,6,yellow,2,6,/home/docky/apps/exp/images/69Y.jpeg,/home/docky/apps/exp/images/76Yi.jpeg,0,1,1,1,0,4,4,4,273.97753207199275,None,273.97753207199275,None,1,5.894992700021248,273.97753207199275,None,279.9066635670024,None,279.9066635670024,None,282.411227137025,None,282.411227137025,None,1.3172686680336483,284.2131869610166,None,284.2131869610166,None,6,1,0.9686763880308717,285.51674459001515,None,285.51674459001515,None,285.51674459001515,None,286.5019005780341,None,1,0.5180579720181413,286.5019005780341,None,18,287.0361379390233,None,115,A,1,2021_May_24_1628,GazeFlow,2020.1.2,59.86565166647968,
2,Block506.xls,A,6,6,71,11,21,incongruent,Right,Left,Right,76,79,3,blue,2,6,/home/docky/apps/exp/images/76B.jpeg,/home/docky/apps/exp/images/79Bi.jpeg,0,1,1,1,0,5,5,5,288.0377420690493,None,288.0377420690493,None,1,4.894033099000808,288.0377420690493,None,292.970276149048,None,292.970276149048,None,295.46787092101295,None,295.46787092101295,None,1.3010556770022959,297.27340159600135,None,297.27340159600135,None,6,1,1.0187831399962306,298.558787373011,None,298.558787373011,None,298.558787373011,None,299.5937792939949,None,1,0.4512360719963908,299.5937792939949,None,20,300.061392808042,None,115,A,1,2021_May_24_1628,GazeFlow,2020.1.2,59.86565166647968,
2,Block506.xls,A,6,7,56,56,12,congruent,Right,Right,Left,76,69,7,yellow,2,5,/home/docky/apps/exp/images/76Yi.jpeg,/home/docky/apps/exp/images/69Y.jpeg,0,1,1,1,0,6,6,6,301.0631164240185,None,301.0631164240185,None,1,4.96067589597078,301.0631164240185,None,306.0571577740484,None,306.0571577740484,None,308.56209542404395,None,308.56209542404395,None,1.35074879496824,310.3636467290344,None,310.3636467290344,None,5,1,0.918262028018944,311.7009933600202,None,311.7009933600202,None,311.7009933600202,None,312.6358187330188,None,1,0.4846250769915059,312.6358187330188,None,22,313.1369975809939,None,115,A,1,2021_May_24_1628,GazeFlow,2020.1.2,59.86565166647968,
2,Block506.xls,A,6,8,33,33,12,congruent,Right,Right,Left,38,35,3,blue,2,5,/home/docky/apps/exp/images/38B.jpeg,/home/docky/apps/exp/images/35Bi.jpeg,0,1,1,1,0,7,7,7,314.1383113960037,None,314.1383113960037,None,1,6.529960660031065,314.1383113960037,None,320.7025309080491,None,320.7025309080491,None,323.2070997740375,None,323.2070997740375,None,1.6683842510101385,325.00880718400003,None,325.00880718400003,None,5,1,0.9350800419924781,326.6632861820399,None,326.6632861820399,None,326.6632861820399,None,327.6151455719955,None,1,0.433534707990475,327.6151455719955,None,24,328.0654554380453,None,115,A,1,2021_May_24_1628,GazeFlow,2020.1.2,59.86565166647968,
2,Block506.xls,A,,,,,,,,,,,,,,,,,,0,1,1,1,,,,,,,,,,,,,,,,,,,,,,,,,,,,,,,,,,,,,,,,,,,,115,A,1,2021_May_24_1628,GazeFlow,2020.1.2,59.86565166647968,
3,Block505.xls,A,5,1,1,1,11,congruent,Left,Left,Right,16,19,3,blue,2,6,/home/docky/apps/exp/images/16Bi.jpeg,/home/docky/apps/exp/images/19B.jpeg,0,2,2,2,0,0,0,0,351.72904838004615,None,351.72904838004615,None,1,6.68933147698408,351.72904838004615,None,358.44456650404027,None,358.44456650404027,None,360.96989550901344,None,360.96989550901344,None,1.2000589409726672,362.76745564100565,None,362.76745564100565,None,6,1,0.9684256450273097,363.9524280190235,None,363.9524280190235,None,363.9524280190235,None,364.9368835980422,None,1,0.5350455479929224,364.9368835980422,None,26,365.4884780810098,None,115,A,1,2021_May_24_1628,GazeFlow,2020.1.2,59.86565166647968,
3,Block505.xls,A,5,2,10,10,11,congruent,Left,Left,Right,73,76,3,blue,2,6,/home/docky/apps/exp/images/73B.jpeg,/home/docky/apps/exp/images/76Bi.jpeg,0,2,2,2,0,1,1,1,366.4900610370096,None,366.4900610370096,None,1,4.793287079024594,366.4900610370096,None,371.3175569390296,None,371.3175569390296,None,373.82215798302786,None,373.82215798302786,None,1.1501843549776822,375.6189143829979,None,375.6189143829979,None,6,1,0.9181254580034874,376.7603347940021,None,376.7603347940021,None,376.7603347940021,None,377.6950211150106,None,1,0.4850835699471645,377.6950211150106,None,28,378.19670822599437,None,115,A,1,2021_May_24_1628,GazeFlow,2020.1.2,59.86565166647968,
3,Block505.xls,A,5,3,95,35,22,incongruent,Left,Right,Left,66,65,1,blue,2,5,/home/docky/apps/exp/images/66B.jpeg,/home/docky/apps/exp/images/35Yi.jpeg,0,2,2,2,0,2,2,2,379.19824397499906,None,379.19824397499906,None,1,5.745439885999076,379.19824397499906,None,384.97715045302175,None,384.97715045302175,None,387.48190164001426,None,387.48190164001426,None,1.73479772801511,389.2851342910435,None,389.2851342910435,None,6,0,0.8520345399738289,391.0047543460387,None,391.0047543460387,None,391.0047543460387,None,391.87333227001363,None,1,0.4170134160085581,391.87333227001363,None,26,392.3067199930083,None,115,A,1,2021_May_24_1628,GazeFlow,2020.1.2,59.86565166647968,
3,Block505.xls,A,5,4,46,46,12,congruent,Right,Right,Left,35,33,2,yellow,2,5,/home/docky/apps/exp/images/35Yi.jpeg,/home/docky/apps/exp/images/33Y.jpeg,0,2,2,2,0,3,3,3,393.3089095290052,None,393.3089095290052,None,1,5.428450247040018,393.3089095290052,None,398.7709817610448,None,398.7709817610448,None,401.27533081703587,None,401.27533081703587,None,1.3344877869822085,403.0773822600022,None,403.0773822600022,None,6,0,0.9183111859601922,404.3977277340018,None,404.3977277340018,None,404.3977277340018,None,405.33262206299696,None,1,0.6016605690238066,405.33262206299696,None,24,405.95039779302897,None,115,A,1,2021_May_24_1628,GazeFlow,2020.1.2,59.86565166647968,
3,Block505.xls,A,5,5,78,18,21,incongruent,Right,Left,Right,65,66,1,yellow,2,6,/home/docky/apps/exp/images/35Bi.jpeg,/home/docky/apps/exp/images/66Y.jpeg,0,2,2,2,0,4,4,4,406.9521731470013,None,406.9521731470013,None,1,5.761678910988849,406.9521731470013,None,412.7474466779968,None,412.7474466779968,None,415.2510718370322,None,415.2510718370322,None,1.5681844080099836,417.05443682399346,None,417.05443682399346,None,6,1,0.9517914179596119,418.6086014560424,None,418.6086014560424,None,418.6086014560424,None,419.5770092490129,None,1,0.40144606796093285,419.5770092490129,None,26,419.99404921603855,None,115,A,1,2021_May_24_1628,GazeFlow,2020.1.2,59.86565166647968,
3,Block505.xls,A,5,6,43,43,12,congruent,Right,Right,Left,83,80,3,blue,2,5,/home/docky/apps/exp/images/83B.jpeg,/home/docky/apps/exp/images/80Bi.jpeg,0,2,2,2,0,5,5,5,420.9959045019932,None,420.9959045019932,None,1,4.359224119049031,420.9959045019932,None,425.38894477899885,None,425.38894477899885,None,427.8918563789921,None,427.8918563789921,None,1.668099752976559,429.6899943660246,None,429.6899943660246,None,5,1,0.968497370951809,431.34995039203204,None,431.34995039203204,None,431.34995039203204,None,432.33499362604925,None,1,0.4504721069824882,432.33499362604925,None,28,432.8022031870205,None,115,A,1,2021_May_24_1628,GazeFlow,2020.1.2,59.86565166647968,
3,Block505.xls,A,5,7,44,44,12,congruent,Right,Right,Left,39,38,1,blue,2,5,/home/docky/apps/exp/images/39Bi.jpeg,/home/docky/apps/exp/images/38B.jpeg,0,2,2,2,0,6,6,6,433.80409657402197,None,433.80409657402197,None,1,5.3447155019966885,433.80409657402197,None,439.1824693100061,None,439.1824693100061,None,441.68574608000927,None,441.68574608000927,None,1.7012832200271077,443.4892329919967,None,443.4892329919967,None,5,1,2.4709338669781573,445.17689249600517,None,445.17689249600517,None,445.17689249600517,None,447.6645804440486,None,1,0.7683862390113063,447.6645804440486,None,30,448.4496351790149,None,115,A,1,2021_May_24_1628,GazeFlow,2020.1.2,59.86565166647968,
3,Block505.xls,A,5,8,116,56,22,incongruent,Left,Right,Left,77,72,5,yellow,2,5,/home/docky/apps/exp/images/77Y.jpeg,/home/docky/apps/exp/images/72Y.jpeg,0,2,2,2,0,7,7,7,449.45172429503873,None,449.45172429503873,None,1,6.42915576096857,449.45172429503873,None,455.9150689369999,None,455.9150689369999,None,458.4227678630268,None,458.4227678630268,None,1.5177293799933977,460.2233876340324,None,460.2233876340324,None,5,1,0.9352934389607981,461.7255827640183,None,461.7255827640183,None,461.7255827640183,None,462.6772309880471,None,1,0.5008031670004129,462.6772309880471,None,32,463.19458550499985,None,115,A,1,2021_May_24_1628,GazeFlow,2020.1.2,59.86565166647968,
3,Block505.xls,A,,,,,,,,,,,,,,,,,,0,2,2,2,,,,,,,,,,,,,,,,,,,,,,,,,,,,,,,,,,,,,,,,,,,,115,A,1,2021_May_24_1628,GazeFlow,2020.1.2,59.86565166647968,
4,Block509.xls,A,9,1,34,34,12,congruent,Right,Right,Left,38,35,3,blue,2,5,/home/docky/apps/exp/images/38Bi.jpeg,/home/docky/apps/exp/images/35B.jpeg,0,3,3,3,0,0,0,0,485.8902064730064,None,485.8902064730064,None,1,6.587370719993487,485.8902064730064,None,492.4998321850435,None,492.4998321850435,None,495.0241510180058,None,495.0241510180058,None,1.3166850800043903,496.8273397689918,None,496.8273397689918,None,5,1,1.0187560049816966,498.1297503730166,None,498.1297503730166,None,498.1297503730166,None,499.16471461299807,None,1,0.5348158659762703,499.16471461299807,None,34,499.7159825730487,None,115,A,1,2021_May_24_1628,GazeFlow,2020.1.2,59.86565166647968,
4,Block509.xls,A,9,2,7,7,11,congruent,Left,Left,Right,65,66,1,blue,2,6,/home/docky/apps/exp/images/35Yi.jpeg,/home/docky/apps/exp/images/66B.jpeg,0,3,3,3,0,1,1,1,500.7173347280477,None,500.7173347280477,None,1,4.910939266032074,500.7173347280477,None,505.6622480090009,None,505.6622480090009,None,508.1664202790125,None,508.1664202790125,None,1.918577416043263,509.9700064469944,None,509.9700064469944,None,6,1,0.8849448090186343,511.87317262100987,None,511.87317262100987,None,511.87317262100987,None,512.7747026750003,None,1,0.8680917849997059,512.7747026750003,None,36,513.6595261470065,None,115,A,1,2021_May_24_1628,GazeFlow,2020.1.2,59.86565166647968,
4,Block509.xls,A,9,3,74,14,21,incongruent,Right,Left,Right,80,83,3,blue,2,6,/home/docky/apps/exp/images/80B.jpeg,/home/docky/apps/exp/images/83Bi.jpeg,0,3,3,3,0,2,2,2,514.6615930590197,None,514.6615930590197,None,1,6.330158227006905,514.6615930590197,None,521.0245491780224,None,521.0245491780224,None,523.5275162890321,None,523.5275162890321,None,1.4513168309931643,525.3310751840472,None,525.3310751840472,None,6,1,0.9017777250264771,526.7687047159998,None,526.7687047159998,None,526.7687047159998,None,527.6869972019922,None,1,0.36753943405346945,527.6869972019922,None,38,528.0711216900381,None,115,A,1,2021_May_24_1628,GazeFlow,2020.1.2,59.86565166647968,
4,Block509.xls,A,9,4,19,19,11,congruent,Left,Left,Right,65,66,1,yellow,2,6,/home/docky/apps/exp/images/35Bi.jpeg,/home/docky/apps/exp/images/66Y.jpeg,0,3,3,3,0,3,3,3,529.0725700460025,None,529.0725700460025,None,1,6.296793105022516,529.0725700460025,None,535.4026267980225,None,535.4026267980225,None,537.9053333640331,None,537.9053333640331,None,1.4177422039792873,539.7069937680499,None,539.7069937680499,None,6,1,0.8679091609665193,541.1133192109992,None,541.1133192109992,None,541.1133192109992,None,541.9975649730186,None,1,0.4012254870031029,541.9975649730186,None,40,542.4155973680317,None,115,A,1,2021_May_24_1628,GazeFlow,2020.1.2,59.86565166647968,
4,Block509.xls,A,9,5,60,60,12,congruent,Right,Right,Left,80,79,1,yellow,2,5,/home/docky/apps/exp/images/80Yi.jpeg,/home/docky/apps/exp/images/79Y.jpeg,0,3,3,3,0,4,4,4,543.4172031470225,None,543.4172031470225,None,1,5.611973818973638,543.4172031470225,None,549.0668882650207,None,549.0668882650207,None,551.5657578130485,None,551.5657578130485,None,1.7516789710498415,553.3690281210002,None,553.3690281210002,None,5,1,0.9851231359643862,555.1072690170258,None,555.1072690170258,None,555.1072690170258,None,556.1087997940485,None,1,0.4674767639953643,556.1087997940485,None,42,556.5928747790167,None,115,A,1,2021_May_24_1628,GazeFlow,2020.1.2,59.86565166647968,
4,Block509.xls,A,9,6,83,23,21,incongruent,Right,Left,Right,38,39,1,yellow,2,6,/home/docky/apps/exp/images/38Yi.jpeg,/home/docky/apps/exp/images/39Y.jpeg,0,3,3,3,0,5,5,5,557.594487023016,None,557.594487023016,None,1,5.010803813987877,557.594487023016,None,562.6388359550037,None,562.6388359550037,None,565.1417744700448,None,565.1417744700448,None,1.4511338099837303,566.9455498650204,None,566.9455498650204,None,5,0,0.8851618870394304,568.3828244880424,None,568.3828244880424,None,568.3828244880424,None,569.2844981310191,None,1,0.43480288702994585,569.2844981310191,None,40,569.7353582869982,None,115,A,1,2021_May_24_1628,GazeFlow,2020.1.2,59.86565166647968,
4,Block509.xls,A,9,7,4,4,11,congruent,Left,Left,Right,35,38,3,blue,2,6,/home/docky/apps/exp/images/35B.jpeg,/home/docky/apps/exp/images/38Bi.jpeg,0,3,3,3,0,6,6,6,570.7371995270369,None,570.7371995270369,None,1,5.193804954993539,570.7371995270369,None,575.9648249830352,None,575.9648249830352,None,578.467769609997,None,578.467769609997,None,1.968675094016362,580.2711234340095,None,580.2711234340095,None,6,1,0.8517978540039621,582.2263402640237,None,582.2263402640237,None,582.2263402640237,None,583.0946498980047,None,1,0.41699358401820064,583.0946498980047,None,42,583.528330065019,None,115,A,1,2021_May_24_1628,GazeFlow,2020.1.2,59.86565166647968,
4,Block509.xls,A,9,8,24,24,11,congruent,Left,Left,Right,38,39,1,yellow,2,6,/home/docky/apps/exp/images/38Y.jpeg,/home/docky/apps/exp/images/39Yi.jpeg,0,3,3,3,0,7,7,7,584.5304734830279,None,584.5304734830279,None,1,4.960597986995708,584.5304734830279,None,589.5243933980237,None,589.5243933980237,None,592.0292322270107,None,592.0292322270107,None,2.1190582669805735,593.8309971190174,None,593.8309971190174,None,6,1,0.9181688230019063,595.9364919160143,None,595.9364919160143,None,595.9364919160143,None,596.8710391410277,None,1,0.5176414200104773,596.8710391410277,None,44,597.4052857920178,None,115,A,1,2021_May_24_1628,GazeFlow,2020.1.2,59.86565166647968,
4,Block509.xls,A,,,,,,,,,,,,,,,,,,0,3,3,3,,,,,,,,,,,,,,,,,,,,,,,,,,,,,,,,,,,,,,,,,,,,115,A,1,2021_May_24_1628,GazeFlow,2020.1.2,59.86565166647968,
5,Block504.xls,A,4,1,11,11,11,congruent,Left,Left,Right,73,76,3,blue,2,6,/home/docky/apps/exp/images/73Bi.jpeg,/home/docky/apps/exp/images/76B.jpeg,0,4,4,4,0,0,0,0,619.3985405330313,None,619.3985405330313,None,1,5.921278938010801,619.3985405330313,None,625.3504982110462,None,625.3504982110462,None,627.8656704220339,None,627.8656704220339,None,1.1330337019753642,629.6629910010379,None,629.6629910010379,None,6,1,0.8514765959698707,630.7872653590166,None,630.7872653590166,None,630.7872653590166,None,631.6551729130442,None,1,0.4013841880369,631.6551729130442,None,46,632.0730168000446,None,115,A,1,2021_May_24_1628,GazeFlow,2020.1.2,59.86565166647968,
5,Block504.xls,A,4,2,87,27,21,incongruent,Right,Left,Right,72,77,5,yellow,2,6,/home/docky/apps/exp/images/72Y.jpeg,/home/docky/apps/exp/images/77Yi.jpeg,0,4,4,4,0,1,1,1,633.074659698992,None,633.074659698992,None,1,5.177175188960973,633.074659698992,None,638.2860235809931,None,638.2860235809931,None,640.7905155300396,None,640.7905155300396,None,1.1169600120047107,642.586954390048,None,642.586954390048,None,6,1,2.9217402169597335,643.6959624630399,None,643.6959624630399,None,643.6959624630399,None,646.6342213230091,None,1,1.9711942319991067,646.6342213230091,None,48,648.6218021970126,None,115,A,1,2021_May_24_1628,GazeFlow,2020.1.2,59.86565166647968,
5,Block504.xls,A,4,3,48,48,12,congruent,Right,Right,Left,39,38,1,yellow,2,5,/home/docky/apps/exp/images/39Yi.jpeg,/home/docky/apps/exp/images/38Y.jpeg,0,4,4,4,0,2,2,2,649.623865275993,None,649.623865275993,None,1,5.577707380987704,649.623865275993,None,655.2335231649922,None,655.2335231649922,None,657.7403750109952,None,657.7403750109952,None,1.9188226440455765,659.5375950420275,None,659.5375950420275,None,5,1,1.1016878149821423,661.4469968660269,None,661.4469968660269,None,661.4469968660269,None,662.5651891700109,None,1,0.5013191500329413,662.5651891700109,None,50,663.0828910350101,None,115,A,1,2021_May_24_1628,GazeFlow,2020.1.2,59.86565166647968,
5,Block504.xls,A,4,4,38,38,12,congruent,Right,Right,Left,79,73,6,blue,2,5,/home/docky/apps/exp/images/79B.jpeg,/home/docky/apps/exp/images/73Bi.jpeg,0,4,4,4,0,3,3,3,664.0850114570349,None,664.0850114570349,None,1,5.461107007984538,664.0850114570349,None,669.5801003940287,None,669.5801003940287,None,672.0848973530228,None,672.0848973530228,None,1.217179567029234,673.8870981110376,None,673.8870981110376,None,5,1,1.0014914849889465,675.0900692630094,None,675.0900692630094,None,675.0900692630094,None,676.1082950670389,None,1,0.4685493719880469,676.1082950670389,None,52,676.5930296830484,None,115,A,1,2021_May_24_1628,GazeFlow,2020.1.2,59.86565166647968,
5,Block504.xls,A,4,5,2,2,11,congruent,Left,Left,Right,16,19,3,blue,2,6,/home/docky/apps/exp/images/16B.jpeg,/home/docky/apps/exp/images/19Bi.jpeg,0,4,4,4,0,4,4,4,677.5945618569967,None,677.5945618569967,None,1,5.644849586999044,677.5945618569967,None,683.2761150220176,None,683.2761150220176,None,685.7779687590082,None,685.7779687590082,None,1.8521583009860478,687.5747643850045,None,687.5747643850045,None,6,1,0.9185924989869818,689.4179466220085,None,689.4179466220085,None,689.4179466220085,None,690.3527604630217,None,1,0.5174931579967961,690.3527604630217,None,54,690.8867842420004,None,115,A,1,2021_May_24_1628,GazeFlow,2020.1.2,59.86565166647968,
5,Block504.xls,A,4,6,73,13,21,incongruent,Right,Left,Right,80,83,3,blue,2,6,/home/docky/apps/exp/images/80Bi.jpeg,/home/docky/apps/exp/images/83B.jpeg,0,4,4,4,0,5,5,5,691.8891708879964,None,691.8891708879964,None,1,5.043532470008358,691.8891708879964,None,696.9667349800002,None,696.9667349800002,None,699.4699419499957,None,699.4699419499957,None,1.2503941169707105,701.2750004900154,None,701.2750004900154,None,6,1,1.0688045269926079,702.5101027910132,None,702.5101027910132,None,702.5101027910132,None,703.5953314920189,None,1,0.6181615210371092,703.5953314920189,None,56,704.2298322670395,None,115,A,1,2021_May_24_1628,GazeFlow,2020.1.2,59.86565166647968,
5,Block504.xls,A,4,7,63,3,21,incongruent,Right,Left,Right,35,38,3,blue,2,6,/home/docky/apps/exp/images/35B.jpeg,/home/docky/apps/exp/images/38Bi.jpeg,0,4,4,4,0,6,6,6,705.2314087730483,None,705.2314087730483,None,1,8.60117153194733,705.2314087730483,None,713.8660401020315,None,713.8660401020315,None,716.370354475046,None,716.370354475046,None,2.2359772729687393,718.172422853997,None,718.172422853997,None,6,1,0.9182859379798174,720.3946878000279,None,720.3946878000279,None,720.3946878000279,None,721.3292938660015,None,1,0.48439168801996857,721.3292938660015,None,58,721.8302534270333,None,115,A,1,2021_May_24_1628,GazeFlow,2020.1.2,59.86565166647968,
5,Block504.xls,A,4,8,86,26,21,incongruent,Right,Left,Right,72,77,5,yellow,2,6,/home/docky/apps/exp/images/72Yi.jpeg,/home/docky/apps/exp/images/77Y.jpeg,0,4,4,4,0,7,7,7,722.8327931110398,None,722.8327931110398,None,1,6.74667587300064,722.8327931110398,None,729.6134301199927,None,729.6134301199927,None,732.1167197960312,None,732.1167197960312,None,1.3338969849864952,733.9202945640427,None,733.9202945640427,None,6,1,0.9179107689997181,735.240436134045,None,735.240436134045,None,735.240436134045,None,736.175433927041,None,1,0.3839407440391369,736.175433927041,None,60,736.5760227800347,None,115,A,1,2021_May_24_1628,GazeFlow,2020.1.2,59.86565166647968,
5,Block504.xls,A,,,,,,,,,,,,,,,,,,0,4,4,4,,,,,,,,,,,,,,,,,,,,,,,,,,,,,,,,,,,,,,,,,,,,115,A,1,2021_May_24_1628,GazeFlow,2020.1.2,59.86565166647968,
6,Block511.xls,A,11,1,15,15,11,congruent,Left,Left,Right,80,83,3,blue,2,6,/home/docky/apps/exp/images/80Bi.jpeg,/home/docky/apps/exp/images/83B.jpeg,0,5,5,5,0,0,0,0,760.4910133870435,None,760.4910133870435,None,1,6.1774226240231656,760.4910133870435,None,766.6912631090381,None,766.6912631090381,None,769.2067965590395,None,769.2067965590395,None,1.2498489120043814,771.0105782950413,None,771.0105782950413,None,6,1,1.0348790760035627,772.245511901041,None,772.245511901041,None,772.245511901041,None,773.296927147021,None,1,0.4686778209870681,773.296927147021,None,62,773.7816454220447,None,115,A,1,2021_May_24_1628,GazeFlow,2020.1.2,59.86565166647968,
6,Block511.xls,A,11,2,105,45,22,incongruent,Left,Right,Left,39,38,1,blue,2,5,/home/docky/apps/exp/images/39Bi.jpeg,/home/docky/apps/exp/images/38B.jpeg,0,5,5,5,0,1,1,1,774.783248968015,None,774.783248968015,None,1,4.810086571029387,774.783248968015,None,779.6302022940363,None,779.6302022940363,None,782.1356315950397,None,782.1356315950397,None,2.035575978050474,783.9335788160097,None,783.9335788160097,None,6,0,0.8016107789590023,785.955521593045,None,785.955521593045,None,785.955521593045,None,786.773475286027,None,1,0.3501920929993503,786.773475286027,None,60,787.1404216900119,None,115,A,1,2021_May_24_1628,GazeFlow,2020.1.2,59.86565166647968,
6,Block511.xls,A,11,3,68,8,21,incongruent,Right,Left,Right,38,39,1,blue,2,6,/home/docky/apps/exp/images/38B.jpeg,/home/docky/apps/exp/images/39Bi.jpeg,0,5,5,5,0,2,2,2,788.1429902689997,None,788.1429902689997,None,1,6.028584547049832,788.1429902689997,None,794.2066354510025,None,794.2066354510025,None,796.7083714730106,None,796.7083714730106,None,2.10214371496113,798.5065291640349,None,798.5065291640349,None,6,1,1.0684242809657007,800.6004657640005,None,800.6004657640005,None,800.6004657640005,None,801.6855058729998,None,1,0.5010123190004379,801.6855058729998,None,62,802.2033545690356,None,115,A,1,2021_May_24_1628,GazeFlow,2020.1.2,59.86565166647968,
6,Block511.xls,A,11,4,80,20,21,incongruent,Right,Left,Right,62,65,3,yellow,2,6,/home/docky/apps/exp/images/38Bi.jpeg,/home/docky/apps/exp/images/35B.jpeg,0,5,5,5,0,3,3,3,803.2054714590195,None,803.2054714590195,None,1,6.195645692001563,803.2054714590195,None,809.4330784360063,None,809.4330784360063,None,811.939815693011,None,811.939815693011,None,1.183769647963345,813.741405650042,None,813.741405650042,None,6,1,0.9683181479922496,814.9117501910077,None,814.9117501910077,None,814.9117501910077,None,815.8963609530474,None,1,0.43464188202051446,815.8963609530474,None,64,816.3478263909929,None,115,A,1,2021_May_24_1628,GazeFlow,2020.1.2,59.86565166647968,
6,Block511.xls,A,11,5,5,5,11,congruent,Left,Left,Right,65,66,1,blue,2,6,/home/docky/apps/exp/images/35Yi.jpeg,/home/docky/apps/exp/images/66B.jpeg,0,5,5,5,0,4,4,4,817.3494073920301,None,817.3494073920301,None,1,4.69300754397409,817.3494073920301,None,822.0762710660347,None,822.0762710660347,None,824.5811656800215,None,824.5811656800215,None,1.6512612539809197,826.3847247740487,None,826.3847247740487,None,6,1,0.8849208010360599,828.0207968699979,None,828.0207968699979,None,828.0207968699979,None,828.9221098390408,None,1,0.4339145209523849,828.9221098390408,None,66,829.3724971390329,None,115,A,1,2021_May_24_1628,GazeFlow,2020.1.2,59.86565166647968,
6,Block511.xls,A,11,6,18,18,11,congruent,Left,Left,Right,65,66,1,yellow,2,6,/home/docky/apps/exp/images/35B.jpeg,/home/docky/apps/exp/images/66Yi.jpeg,0,5,5,5,0,5,5,5,830.3746227440424,None,830.3746227440424,None,1,6.496621432015672,830.3746227440424,None,836.9050771720358,None,836.9050771720358,None,839.4099895480322,None,839.4099895480322,None,1.4512973410310224,841.2109888180275,None,841.2109888180275,None,6,1,0.9685410560341552,842.648998920049,None,842.648998920049,None,842.648998920049,None,843.634014477022,None,1,0.43416585004888475,843.634014477022,None,68,844.0849488340318,None,115,A,1,2021_May_24_1628,GazeFlow,2020.1.2,59.86565166647968,
6,Block511.xls,A,11,7,25,25,11,congruent,Left,Left,Right,69,75,6,yellow,2,6,/home/docky/apps/exp/images/69Yi.jpeg,/home/docky/apps/exp/images/76Y.jpeg,0,5,5,5,0,6,6,6,845.086736119003,None,845.086736119003,None,1,6.43018312001368,845.086736119003,None,851.5501914109918,None,851.5501914109918,None,854.0535770420101,None,854.0535770420101,None,1.4342589429579675,855.8570368970395,None,855.8570368970395,None,6,1,0.9010475089889951,857.2775734990137,None,857.2775734990137,None,857.2775734990137,None,858.1959084080299,None,1,0.3673626739764586,858.1959084080299,None,70,858.5798257880379,None,115,A,1,2021_May_24_1628,GazeFlow,2020.1.2,59.86565166647968,
6,Block511.xls,A,11,8,3,3,11,congruent,Left,Left,Right,35,38,3,blue,2,6,/home/docky/apps/exp/images/35Bi.jpeg,/home/docky/apps/exp/images/38B.jpeg,0,5,5,5,0,7,7,7,859.5813013650477,None,859.5813013650477,None,1,5.945598796999548,859.5813013650477,None,865.5607532460126,None,865.5607532460126,None,868.0636742400238,None,868.0636742400238,None,1.5010295510292053,869.8672704750206,None,869.8672704750206,None,6,1,0.868133525014855,871.3549186220043,None,871.3549186220043,None,871.3549186220043,None,872.2395632970147,None,1,0.3346387699712068,872.2395632970147,None,72,872.5902650670032,None,115,A,1,2021_May_24_1628,GazeFlow,2020.1.2,59.86565166647968,
6,Block511.xls,A,,,,,,,,,,,,,,,,,,0,5,5,5,,,,,,,,,,,,,,,,,,,,,,,,,,,,,,,,,,,,,,,,,,,,115,A,1,2021_May_24_1628,GazeFlow,2020.1.2,59.86565166647968,
7,Block508.xls,A,8,1,13,13,11,congruent,Left,Left,Right,76,79,3,blue,2,6,/home/docky/apps/exp/images/76Bi.jpeg,/home/docky/apps/exp/images/79B.jpeg,0,6,6,6,0,0,0,0,895.6877372640301,None,895.6877372640301,None,1,6.168570820998866,895.6877372640301,None,901.8856033360353,None,901.8856033360353,None,904.4026915900176,None,904.4026915900176,None,1.1495658840285614,906.2059432830429,None,906.2059432830429,None,6,1,0.9681635089800693,907.3412155330298,None,907.3412155330298,None,907.3412155330298,None,908.325910470041,None,1,1.3193764010211453,908.325910470041,None,74,909.66198394401,None,115,A,1,2021_May_24_1628,GazeFlow,2020.1.2,59.86565166647968,
7,Block508.xls,A,8,2,21,21,11,congruent,Left,Left,Right,62,65,3,yellow,2,6,/home/docky/apps/exp/images/38B.jpeg,/home/docky/apps/exp/images/35Bi.jpeg,0,6,6,6,0,1,1,1,910.6643598970259,None,910.6643598970259,None,1,5.310560290992726,910.6643598970259,None,916.0084175069933,None,916.0084175069933,None,918.5136415410088,None,918.5136415410088,None,1.517864050983917,920.3153743300354,None,920.3153743300354,None,6,1,0.9186004130169749,921.8196627160069,None,921.8196627160069,None,921.8196627160069,None,922.7544133720221,None,1,0.3675972840283066,922.7544133720221,None,76,923.1385453350376,None,115,A,1,2021_May_24_1628,GazeFlow,2020.1.2,59.86565166647968,
7,Block508.xls,A,8,3,99,39,22,incongruent,Left,Right,Left,79,76,3,blue,2,5,/home/docky/apps/exp/images/79Bi.jpeg,/home/docky/apps/exp/images/76B.jpeg,0,6,6,6,0,2,2,2,924.1399825460394,None,924.1399825460394,None,1,5.077312937006354,924.1399825460394,None,929.2510892230202,None,929.2510892230202,None,931.7537913499982,None,931.7537913499982,None,2.2192180000129156,933.5521864040056,None,933.5521864040056,None,6,0,0.884288077999372,935.7633043520036,None,935.7633043520036,None,935.7633043520036,None,936.6641299920157,None,1,0.3676527770003304,936.6641299920157,None,74,937.0481918550213,None,115,A,1,2021_May_24_1628,GazeFlow,2020.1.2,59.86565166647968,
7,Block508.xls,A,8,4,37,37,12,congruent,Right,Right,Left,66,65,1,blue,2,5,/home/docky/apps/exp/images/66Bi.jpeg,/home/docky/apps/exp/images/35Y.jpeg,0,6,6,6,0,3,3,3,938.0508621770423,None,938.0508621770423,None,1,5.076748948020395,938.0508621770423,None,943.1612984139938,None,943.1612984139938,None,945.6662976030493,None,945.6662976030493,None,1.4177094479673542,947.4698593770154,None,947.4698593770154,None,5,1,1.3696421009954065,948.8721150190104,None,948.8721150190104,None,948.8721150190104,None,950.2579680980416,None,1,0.5840656129876152,950.2579680980416,None,76,950.8586860719952,None,115,A,1,2021_May_24_1628,GazeFlow,2020.1.2,59.86565166647968,
7,Block508.xls,A,8,5,82,22,21,incongruent,Right,Left,Right,38,39,1,yellow,2,6,/home/docky/apps/exp/images/38Y.jpeg,/home/docky/apps/exp/images/39Yi.jpeg,0,6,6,6,0,4,4,4,951.8608038180391,None,951.8608038180391,None,1,6.062307410000358,951.8608038180391,None,957.9567571610096,None,957.9567571610096,None,960.461491293041,None,960.461491293041,None,2.336317614011932,962.262820110016,None,962.262820110016,None,5,0,1.0177676600287668,964.5864058830193,None,964.5864058830193,None,964.5864058830193,None,965.620546472026,None,1,0.41804877598769963,965.620546472026,None,74,966.0547407880076,None,115,A,1,2021_May_24_1628,GazeFlow,2020.1.2,59.86565166647968,
7,Block508.xls,A,8,6,104,44,22,incongruent,Left,Right,Left,39,38,1,blue,2,5,/home/docky/apps/exp/images/39B.jpeg,/home/docky/apps/exp/images/38Bi.jpeg,0,6,6,6,0,5,5,5,967.0572403999977,None,967.0572403999977,None,1,6.312413867970463,967.0572403999977,None,973.4017731710337,None,973.4017731710337,None,975.9083615959971,None,975.9083615959971,None,2.7040338759543374,977.7087829069933,None,977.7087829069933,None,5,1,1.0695070690126158,980.4153937420342,None,980.4153937420342,None,980.4153937420342,None,981.5014937790111,None,1,0.4011237020022236,981.5014937790111,None,76,981.9189687240287,None,115,A,1,2021_May_24_1628,GazeFlow,2020.1.2,59.86565166647968,
7,Block508.xls,A,8,7,39,39,12,congruent,Right,Right,Left,79,73,6,blue,2,5,/home/docky/apps/exp/images/79B.jpeg,/home/docky/apps/exp/images/73Bi.jpeg,0,6,6,6,0,6,6,6,982.9209188999957,None,982.9209188999957,None,1,5.7951896309969015,982.9209188999957,None,988.7476331020007,None,988.7476331020007,None,991.2531850740197,None,991.2531850740197,None,1.1337132240296341,993.056432745012,None,993.056432745012,None,5,1,1.0680815959931351,994.1767719429918,None,994.1767719429918,None,994.1767719429918,None,995.2614937710459,None,1,0.4680761029594578,995.2614937710459,None,78,995.7463902830495,None,115,A,1,2021_May_24_1628,GazeFlow,2020.1.2,59.86565166647968,
7,Block508.xls,A,8,8,36,36,12,congruent,Right,Right,Left,66,65,1,blue,2,5,/home/docky/apps/exp/images/66B.jpeg,/home/docky/apps/exp/images/35Yi.jpeg,0,6,6,6,0,7,7,7,996.7475560860476,None,996.7475560860476,None,1,5.377884535002522,996.7475560860476,None,1002.1572172180167,None,1002.1572172180167,None,1004.6622081450187,None,1004.6622081450187,None,1.2841188029851764,1006.4656330880243,None,1006.4656330880243,None,5,1,1.1023310800082982,1007.736271249014,None,1007.736271249014,None,1007.736271249014,None,1008.8550376220373,None,1,0.5343939900049008,1008.8550376220373,None,80,1009.4055685109925,None,115,A,1,2021_May_24_1628,GazeFlow,2020.1.2,59.86565166647968,
7,Block508.xls,A,,,,,,,,,,,,,,,,,,0,6,6,6,,,,,,,,,,,,,,,,,,,,,,,,,,,,,,,,,,,,,,,,,,,,115,A,1,2021_May_24_1628,GazeFlow,2020.1.2,59.86565166647968,
8,Block510.xls,A,10,1,102,42,22,incongruent,Left,Right,Left,83,80,3,blue,2,5,/home/docky/apps/exp/images/83B.jpeg,/home/docky/apps/exp/images/80Bi.jpeg,0,7,7,7,0,0,0,0,1035.7755010440014,None,1035.7755010440014,None,1,5.084612383972853,1035.7755010440014,None,1040.8858647600282,None,1040.8858647600282,None,1043.4061017860076,None,1043.4061017860076,None,1.1334251679945737,1045.2079208950163,None,1045.2079208950163,None,5,1,1.1184634719975293,1046.328033976024,None,1046.328033976024,None,1046.328033976024,None,1047.462919098034,None,1,0.5184788859914988,1047.462919098034,None,82,1047.9978285999969,None,115,A,1,2021_May_24_1628,GazeFlow,2020.1.2,59.86565166647968,
8,Block510.xls,A,10,2,114,54,22,incongruent,Left,Right,Left,76,69,7,yellow,2,5,/home/docky/apps/exp/images/76Yi.jpeg,/home/docky/apps/exp/images/69Y.jpeg,0,7,7,7,0,1,1,1,1048.9991710530012,None,1048.9991710530012,None,1,8.166635358997155,1048.9991710530012,None,1057.197785099037,None,1057.197785099037,None,1059.7027746179956,None,1059.7027746179956,None,1.2005914649926126,1061.5012080710148,None,1061.5012080710148,None,5,1,1.0684781440068036,1062.692979412037,None,1062.692979412037,None,1062.692979412037,None,1063.777925428003,None,1,0.5354889570153318,1063.777925428003,None,84,1064.3294287450262,None,115,A,1,2021_May_24_1628,GazeFlow,2020.1.2,59.86565166647968,
8,Block510.xls,A,10,3,72,12,21,incongruent,Right,Left,Right,76,79,3,blue,2,6,/home/docky/apps/exp/images/76Bi.jpeg,/home/docky/apps/exp/images/79B.jpeg,0,7,7,7,0,2,2,2,1065.3310952560278,None,1065.3310952560278,None,1,5.561680499988142,1065.3310952560278,None,1070.9262373200036,None,1070.9262373200036,None,1073.4314250110183,None,1073.4314250110183,None,1.2839983680169098,1075.232506688044,None,1075.232506688044,None,5,0,1.0020976600353606,1076.5033300720388,None,1076.5033300720388,None,1076.5033300720388,None,1077.5216287900112,None,1,0.5014657559804618,1077.5216287900112,None,82,1078.0395829780027,None,115,A,1,2021_May_24_1628,GazeFlow,2020.1.2,59.86565166647968,
8,Block510.xls,A,10,4,112,52,22,incongruent,Left,Right,Left,75,69,6,yellow,2,5,/home/docky/apps/exp/images/76Y.jpeg,/home/docky/apps/exp/images/69Yi.jpeg,0,7,7,7,0,3,3,3,1079.0409315529978,None,1079.0409315529978,None,1,6.212941078993026,1079.0409315529978,None,1085.2877244900446,None,1085.2877244900446,None,1087.7901934470283,None,1087.7901934470283,None,1.0504230189835653,1089.5885848110192,None,1089.5885848110192,None,5,1,0.9681827829917893,1090.630739788001,None,1090.630739788001,None,1090.630739788001,None,1091.6153063700185,None,1,0.43422514700796455,1091.6153063700185,None,84,1092.0664179320447,None,115,A,1,2021_May_24_1628,GazeFlow,2020.1.2,59.86565166647968,
8,Block510.xls,A,10,5,17,17,11,congruent,Left,Left,Right,33,35,2,yellow,2,6,/home/docky/apps/exp/images/33Y.jpeg,/home/docky/apps/exp/images/35Yi.jpeg,0,7,7,7,0,4,4,4,1093.0683807880268,None,1093.0683807880268,None,1,6.062283652019687,1093.0683807880268,None,1099.1667804419994,None,1099.1667804419994,None,1101.6694365460426,None,1101.6694365460426,None,2.353101440006867,1103.4708796340274,None,1103.4708796340274,None,5,0,1.2842182370368391,1105.8110205230187,None,1105.8110205230187,None,1105.8110205230187,None,1107.1120083930437,None,1,0.818994732981082,1107.1120083930437,None,82,1107.946839641023,None,115,A,1,2021_May_24_1628,GazeFlow,2020.1.2,59.86565166647968,
8,Block510.xls,A,10,6,31,31,12,congruent,Right,Right,Left,19,16,3,blue,2,5,/home/docky/apps/exp/images/19Bi.jpeg,/home/docky/apps/exp/images/16B.jpeg,0,7,7,7,0,5,5,5,1108.9495171330054,None,1108.9495171330054,None,1,5.695152869971935,1108.9495171330054,None,1114.678148519015,None,1114.678148519015,None,1117.1810563240433,None,1117.1810563240433,None,0.949985490005929,1118.9843168980442,None,1118.9843168980442,None,5,1,1.0178925580112264,1119.9213160999934,None,1119.9213160999934,None,1119.9213160999934,None,1120.9557856890024,None,1,0.5521798799745739,1120.9557856890024,None,84,1121.5239811970387,None,115,A,1,2021_May_24_1628,GazeFlow,2020.1.2,59.86565166647968,
8,Block510.xls,A,10,7,61,1,21,incongruent,Right,Left,Right,16,19,3,blue,2,6,/home/docky/apps/exp/images/16Bi.jpeg,/home/docky/apps/exp/images/19B.jpeg,0,7,7,7,0,6,6,6,1122.5254761920078,None,1122.5254761920078,None,1,4.793458021013066,1122.5254761920078,None,1127.352626856009,None,1127.352626856009,None,1129.8573052480351,None,1129.8573052480351,None,1.1671165819861926,1131.653727072,None,1131.653727072,None,6,1,1.0184045230271295,1132.8125214989996,None,1132.8125214989996,None,1132.8125214989996,None,1133.847599686007,None,1,0.5008773540030234,1133.847599686007,None,86,1134.3654807670391,None,115,A,1,2021_May_24_1628,GazeFlow,2020.1.2,59.86565166647968,
8,Block510.xls,A,10,8,94,34,22,incongruent,Left,Right,Left,38,35,3,blue,2,5,/home/docky/apps/exp/images/38Bi.jpeg,/home/docky/apps/exp/images/35B.jpeg,0,7,7,7,0,7,7,7,1135.3671314590028,None,1135.3671314590028,None,1,7.298197600001004,1135.3671314590028,None,1142.699162517034,None,1142.699162517034,None,1145.2019215960172,None,1145.2019215960172,None,1.1002686489955522,1147.0051592779928,None,1147.0051592779928,None,5,1,1.0347072129952721,1148.0925282930257,None,1148.0925282930257,None,1148.0925282930257,None,1149.1437850330258,None,1,0.501138300052844,1149.1437850330258,None,88,1149.6619345130166,None,115,A,1,2021_May_24_1628,GazeFlow,2020.1.2,59.86565166647968,
8,Block510.xls,A,,,,,,,,,,,,,,,,,,0,7,7,7,,,,,,,,,,,,,,,,,,,,,,,,,,,,,,,,,,,,,,,,,,,,115,A,1,2021_May_24_1628,GazeFlow,2020.1.2,59.86565166647968,
9,Block507.xls,A,7,1,110,50,22,incongruent,Left,Right,Left,66,65,1,yellow,2,5,/home/docky/apps/exp/images/66Y.jpeg,/home/docky/apps/exp/images/35Bi.jpeg,0,8,8,8,0,0,0,0,1174.360971260001,None,1174.360971260001,None,1,4.496718406036962,1174.360971260001,None,1178.887739657017,None,1178.887739657017,None,1181.4077292000293,None,1181.4077292000293,None,1.400242033007089,1183.2092425570008,None,1183.2092425570008,None,5,1,1.2518456380348653,1184.5964369170251,None,1184.5964369170251,None,1184.5964369170251,None,1185.86546542804,None,1,0.4670796539867297,1185.86546542804,None,90,1186.3494750370155,None,115,A,1,2021_May_24_1628,GazeFlow,2020.1.2,59.86565166647968,
9,Block507.xls,A,7,2,90,30,22,incongruent,Right,Left,Right,16,19,3,blue,2,6,/home/docky/apps/exp/images/16Bi.jpeg,/home/docky/apps/exp/images/19B.jpeg,0,8,8,8,0,1,1,1,1187.3517810810008,None,1187.3517810810008,None,1,5.077405929041561,1187.3517810810008,None,1192.462537132029,None,1192.462537132029,None,1194.9647519180435,None,1194.9647519180435,None,1.2673241889569908,1196.7684600939974,None,1196.7684600939974,None,6,1,0.9179366150056012,1198.0227875430137,None,1198.0227875430137,None,1198.0227875430137,None,1198.957218333031,None,1,0.4849399839877151,1198.957218333031,None,92,1199.4587199650123,None,115,A,1,2021_May_24_1628,GazeFlow,2020.1.2,59.86565166647968,
9,Block507.xls,A,7,3,16,16,11,congruent,Left,Left,Right,33,35,2,yellow,2,6,/home/docky/apps/exp/images/33Yi.jpeg,/home/docky/apps/exp/images/35Y.jpeg,0,8,8,8,0,2,2,2,1200.4602754700463,None,1200.4602754700463,None,1,6.630235591961537,1200.4602754700463,None,1207.1242967880098,None,1207.1242967880098,None,1209.6274642950157,None,1209.6274642950157,None,1.083642897021491,1211.4308571339934,None,1211.4308571339934,None,6,1,1.0183796070050448,1212.5009326900472,None,1212.5009326900472,None,1212.5009326900472,None,1213.5353044200456,None,1,0.4183130179881118,1213.5353044200456,None,94,1213.9702020870172,None,115,A,1,2021_May_24_1628,GazeFlow,2020.1.2,59.86565166647968,
9,Block507.xls,A,7,4,117,57,22,incongruent,Left,Right,Left,77,72,5,yellow,2,5,/home/docky/apps/exp/images/77Y.jpeg,/home/docky/apps/exp/images/72Yi.jpeg,0,8,8,8,0,3,3,3,1214.9720349920099,None,1214.9720349920099,None,1,7.532259025028907,1214.9720349920099,None,1222.5377279990353,None,1222.5377279990353,None,1225.0404123580083,None,1225.0404123580083,None,1.718151583976578,1226.8435714429943,None,1226.8435714429943,None,5,1,1.118501898017712,1228.5488604310085,None,1228.5488604310085,None,1228.5488604310085,None,1229.6834503680002,None,1,0.9857902100193314,1229.6834503680002,None,96,1230.6859368600417,None,115,A,1,2021_May_24_1628,GazeFlow,2020.1.2,59.86565166647968,
9,Block507.xls,A,7,5,53,53,12,congruent,Right,Right,Left,75,69,6,yellow,2,5,/home/docky/apps/exp/images/76Yi.jpeg,/home/docky/apps/exp/images/69Y.jpeg,0,8,8,8,0,4,4,4,1231.6880828120047,None,1231.6880828120047,None,1,6.212804103968665,1231.6880828120047,None,1237.9341236250475,None,1237.9341236250475,None,1240.4370880940114,None,1240.4370880940114,None,1.3842460989835672,1242.240526737005,None,1242.240526737005,None,5,1,1.1020661940565333,1243.6114839889924,None,1243.6114839889924,None,1243.6114839889924,None,1244.729980256001,None,1,0.4840952630038373,1244.729980256001,None,98,1245.2305837960448,None,115,A,1,2021_May_24_1628,GazeFlow,2020.1.2,59.86565166647968,
9,Block507.xls,A,7,6,96,36,22,incongruent,Left,Right,Left,66,65,1,blue,2,5,/home/docky/apps/exp/images/66Bi.jpeg,/home/docky/apps/exp/images/35Y.jpeg,0,8,8,8,0,5,5,5,1246.232892525033,None,1246.232892525033,None,1,7.11422866396606,1246.232892525033,None,1253.3809976759949,None,1253.3809976759949,None,1255.884041285026,None,1255.884041285026,None,1.1504766570287757,1257.6824388570385,None,1257.6824388570385,None,6,0,0.7843636380275711,1258.8242302660365,None,1258.8242302660365,None,1258.8242302660365,None,1259.6251811830443,None,1,0.38516664603957906,1259.6251811830443,None,96,1260.026450016012,None,115,A,1,2021_May_24_1628,GazeFlow,2020.1.2,59.86565166647968,
9,Block507.xls,A,7,7,58,58,12,congruent,Right,Right,Left,77,72,5,yellow,2,5,/home/docky/apps/exp/images/77Yi.jpeg,/home/docky/apps/exp/images/72Y.jpeg,0,8,8,8,0,6,6,6,1261.0278549370123,None,1261.0278549370123,None,1,6.847975397016853,1261.0278549370123,None,1267.9089603589964,None,1267.9089603589964,None,1270.413674975047,None,1270.413674975047,None,1.3677470929687843,1272.2155587880407,None,1272.2155587880407,None,5,1,0.985589446965605,1273.5695156379952,None,1273.5695156379952,None,1273.5695156379952,None,1274.5713412550394,None,1,0.48486118897562847,1274.5713412550394,None,98,1275.0723288060399,None,115,A,1,2021_May_24_1628,GazeFlow,2020.1.2,59.86565166647968,
9,Block507.xls,A,7,8,41,41,12,congruent,Right,Right,Left,79,76,3,blue,2,5,/home/docky/apps/exp/images/79Bi.jpeg,/home/docky/apps/exp/images/76B.jpeg,0,8,8,8,0,7,7,7,1276.073831583024,None,1276.073831583024,None,1,8.684196622984018,1276.073831583024,None,1284.7919362560497,None,1284.7919362560497,None,1287.2950885280152,None,1287.2950885280152,None,3.6559936680132523,1289.0987226860016,None,1289.0987226860016,None,5,1,0.9191063269972801,1292.7555116030271,None,1292.7555116030271,None,1292.7555116030271,None,1293.6916628880426,None,1,0.5340945390053093,1293.6916628880426,None,100,1294.2424506830284,None,115,A,1,2021_May_24_1628,GazeFlow,2020.1.2,59.86565166647968,
9,Block507.xls,A,,,,,,,,,,,,,,,,,,0,8,8,8,,,,,,,,,,,,,,,,,,,,,,,,,,,,,,,,,,,,,,,,,,,,115,A,1,2021_May_24_1628,GazeFlow,2020.1.2,59.86565166647968,
10,Block515.xls,A,15,1,107,47,22,incongruent,Left,Right,Left,35,33,2,yellow,2,5,/home/docky/apps/exp/images/35Yi.jpeg,/home/docky/apps/exp/images/33Y.jpeg,0,9,9,9,0,0,0,0,1324.4856039910228,None,1324.4856039910228,None,1,5.433780449966434,1324.4856039910228,None,1329.9505218020058,None,1329.9505218020058,None,1332.4677904600394,None,1332.4677904600394,None,1.9681855860399082,1334.2701333480072,None,1334.2701333480072,None,5,1,1.0012099490268156,1336.2248278670013,None,1336.2248278670013,None,1336.2248278670013,None,1337.242666036007,None,1,0.5510876099579036,1337.242666036007,None,102,1337.8107619140064,None,115,A,1,2021_May_24_1628,GazeFlow,2020.1.2,59.86565166647968,
10,Block515.xls,A,15,2,55,55,12,congruent,Right,Right,Left,76,69,7,yellow,2,5,/home/docky/apps/exp/images/76Yi.jpeg,/home/docky/apps/exp/images/69Y.jpeg,0,9,9,9,0,1,1,1,1338.8126041590003,None,1338.8126041590003,None,1,4.743476814008318,1338.8126041590003,None,1343.5894498020061,None,1343.5894498020061,None,1346.09823163104,None,1346.09823163104,None,1.1838897449779324,1347.895541371021,None,1347.895541371021,None,5,1,1.0685134459636174,1349.066032200004,None,1349.066032200004,None,1349.066032200004,None,1350.1521419110359,None,1,0.5507299620076083,1350.1521419110359,None,104,1350.7192607730394,None,115,A,1,2021_May_24_1628,GazeFlow,2020.1.2,59.86565166647968,
10,Block515.xls,A,15,3,75,15,21,incongruent,Right,Left,Right,33,35,2,yellow,2,6,/home/docky/apps/exp/images/33Yi.jpeg,/home/docky/apps/exp/images/35Y.jpeg,0,9,9,9,0,2,2,2,1351.7210414910223,None,1351.7210414910223,None,1,6.697166991012637,1351.7210414910223,None,1358.4516826780164,None,1358.4516826780164,None,1360.9601280060015,None,1360.9601280060015,None,1.8516343189985491,1362.7582327360287,None,1362.7582327360287,None,5,0,1.2184245869866572,1364.5963647400495,None,1364.5963647400495,None,1364.5963647400495,None,1365.8317458370002,None,1,0.8348784950212575,1365.8317458370002,None,102,1366.6833204920404,None,115,A,1,2021_May_24_1628,GazeFlow,2020.1.2,59.86565166647968,
10,Block515.xls,A,15,4,62,2,21,incongruent,Right,Left,Right,35,38,3,blue,2,6,/home/docky/apps/exp/images/35Bi.jpeg,/home/docky/apps/exp/images/38B.jpeg,0,9,9,9,0,3,3,3,1367.6856114020338,None,1367.6856114020338,None,1,7.063900689012371,1367.6856114020338,None,1374.7833843860426,None,1374.7833843860426,None,1377.2877354270313,None,1377.2877354270313,None,2.8708591149770655,1379.0899210920325,None,1379.0899210920325,None,6,1,0.9195520199718885,1381.9618234740337,None,1381.9618234740337,None,1381.9618234740337,None,1382.8979579920415,None,1,0.46755805902648717,1382.8979579920415,None,104,1383.3822867160197,None,115,A,1,2021_May_24_1628,GazeFlow,2020.1.2,59.86565166647968,
10,Block515.xls,A,15,5,100,40,22,incongruent,Left,Right,Left,79,76,3,blue,2,5,/home/docky/apps/exp/images/79Bi.jpeg,/home/docky/apps/exp/images/76B.jpeg,0,9,9,9,0,4,4,4,1384.3848284090054,None,1384.3848284090054,None,1,6.346252279006876,1384.3848284090054,None,1390.7643846680294,None,1390.7643846680294,None,1393.269223870011,None,1393.269223870011,None,1.1670630470034666,1395.0701085610199,None,1395.0701085610199,None,5,1,0.9008721280260943,1396.2246992190485,None,1396.2246992190485,None,1396.2246992190485,None,1397.1422962250072,None,1,0.4347247370169498,1397.1422962250072,None,106,1397.5936078550294,None,115,A,1,2021_May_24_1628,GazeFlow,2020.1.2,59.86565166647968,
10,Block515.xls,A,15,6,108,48,22,incongruent,Left,Right,Left,39,38,1,yellow,2,5,/home/docky/apps/exp/images/39Y.jpeg,/home/docky/apps/exp/images/38Yi.jpeg,0,9,9,9,0,5,5,5,1398.5954411320272,None,1398.5954411320272,None,1,7.314598350960296,1398.5954411320272,None,1405.943900290993,None,1405.943900290993,None,1408.4473427910125,None,1408.4473427910125,None,1.8183594130096026,1410.2522202419932,None,1410.2522202419932,None,6,0,1.0190426129847765,1412.0551810809993,None,1412.0551810809993,None,1412.0551810809993,None,1413.0902973000193,None,1,0.4169688019901514,1413.0902973000193,None,104,1413.5242029920337,None,115,A,1,2021_May_24_1628,GazeFlow,2020.1.2,59.86565166647968,
10,Block515.xls,A,15,7,59,59,12,congruent,Right,Right,Left,80,79,1,yellow,2,5,/home/docky/apps/exp/images/80Y.jpeg,/home/docky/apps/exp/images/79Yi.jpeg,0,9,9,9,0,6,6,6,1414.5260682870285,None,1414.5260682870285,None,1,6.296690214017872,1414.5260682870285,None,1420.855934345047,None,1420.855934345047,None,1423.3607679490233,None,1423.3607679490233,None,1.2172609550179914,1425.1621160990326,None,1425.1621160990326,None,5,1,0.9511942149838433,1426.366389008006,None,1426.366389008006,None,1426.366389008006,None,1427.3340911840205,None,1,0.5353314319509082,1427.3340911840205,None,106,1427.8856160620344,None,115,A,1,2021_May_24_1628,GazeFlow,2020.1.2,59.86565166647968,
10,Block515.xls,A,15,8,8,8,11,congruent,Left,Left,Right,38,39,1,blue,2,6,/home/docky/apps/exp/images/38B.jpeg,/home/docky/apps/exp/images/39Bi.jpeg,0,9,9,9,0,7,7,7,1428.8872917169938,None,1428.8872917169938,None,1,5.711888576042838,1428.8872917169938,None,1434.6327425540076,None,1434.6327425540076,None,1437.1369699680363,None,1437.1369699680363,None,1.734859271964524,1438.9387253239984,None,1438.9387253239984,None,6,1,0.9686386269750074,1440.6604565610178,None,1440.6604565610178,None,1440.6604565610178,None,1441.6455878990237,None,1,0.484180229017511,1441.6455878990237,None,108,1442.1461564100464,None,115,A,1,2021_May_24_1628,GazeFlow,2020.1.2,59.86565166647968,
10,Block515.xls,A,,,,,,,,,,,,,,,,,,0,9,9,9,,,,,,,,,,,,,,,,,,,,,,,,,,,,,,,,,,,,,,,,,,,,115,A,1,2021_May_24_1628,GazeFlow,2020.1.2,59.86565166647968,
11,Block512.xls,A,12,1,30,30,11,congruent,Left,Left,Right,79,82,3,yellow,2,6,/home/docky/apps/exp/images/79Yi.jpeg,/home/docky/apps/exp/images/80Y.jpeg,0,10,10,10,0,0,0,0,1461.9538720440469,None,1461.9538720440469,None,1,5.634910836000927,1461.9538720440469,None,1467.6108939190162,None,1467.6108939190162,None,1470.134932288027,None,1470.134932288027,None,1.6510321800014935,1471.9387085650233,None,1471.9387085650233,None,6,1,0.9184333810117096,1473.574772238033,None,1473.574772238033,None,1473.574772238033,None,1474.5092561390484,None,1,0.6177304040174931,1474.5092561390484,None,110,1475.1436666240334,None,115,A,1,2021_May_24_1628,GazeFlow,2020.1.2,59.86565166647968,
11,Block512.xls,A,12,2,115,55,22,incongruent,Left,Right,Left,76,69,7,yellow,2,5,/home/docky/apps/exp/images/76Yi.jpeg,/home/docky/apps/exp/images/69Y.jpeg,0,10,10,10,0,1,1,1,1476.1455018350389,None,1476.1455018350389,None,1,6.396886505011935,1476.1455018350389,None,1482.5759326490224,None,1482.5759326490224,None,1485.0788579600048,None,1485.0788579600048,None,1.5676639140001498,1486.881940109015,None,1486.881940109015,None,5,1,1.0190142230130732,1488.4364298740402,None,1488.4364298740402,None,1488.4364298740402,None,1489.4716038000188,None,1,0.5006500640301965,1489.4716038000188,None,112,1489.988809261995,None,115,A,1,2021_May_24_1628,GazeFlow,2020.1.2,59.86565166647968,
11,Block512.xls,A,12,3,66,6,21,incongruent,Right,Left,Right,38,39,1,blue,2,6,/home/docky/apps/exp/images/38B.jpeg,/home/docky/apps/exp/images/39Bi.jpeg,0,10,10,10,0,2,2,2,1490.9917452179943,None,1490.9917452179943,None,1,6.278817565005738,1490.9917452179943,None,1497.304633880034,None,1497.304633880034,None,1499.8076578940381,None,1499.8076578940381,None,1.4680792930303141,1501.6054555629962,None,1501.6054555629962,None,5,0,1.0854478380060755,1503.0651982750278,None,1503.0651982750278,None,1503.0651982750278,None,1504.1665991130285,None,1,0.3841936640092172,1504.1665991130285,None,110,1504.5672043430386,None,115,A,1,2021_May_24_1628,GazeFlow,2020.1.2,59.86565166647968,
11,Block512.xls,A,12,4,35,35,12,congruent,Right,Right,Left,66,65,1,blue,2,5,/home/docky/apps/exp/images/66B.jpeg,/home/docky/apps/exp/images/35Yi.jpeg,0,10,10,10,0,3,3,3,1505.5695429770276,None,1505.5695429770276,None,1,6.446255201008171,1505.5695429770276,None,1512.0495750289992,None,1512.0495750289992,None,1514.5553152520442,None,1514.5553152520442,None,1.3007769630057737,1516.3560175350285,None,1516.3560175350285,None,5,1,6.762892954982817,1517.6434952010168,None,1517.6434952010168,None,1517.6434952010168,None,1524.422891536029,None,1,0.9689736639847979,1524.422891536029,None,112,1525.408143423032,None,115,A,1,2021_May_24_1628,GazeFlow,2020.1.2,59.86565166647968,
11,Block512.xls,A,12,5,40,40,12,congruent,Right,Right,Left,79,76,3,blue,2,5,/home/docky/apps/exp/images/79Bi.jpeg,/home/docky/apps/exp/images/76B.jpeg,0,10,10,10,0,4,4,4,1526.4101092620404,None,1526.4101092620404,None,1,7.582039374974556,1526.4101092620404,None,1534.0256603200105,None,1534.0256603200105,None,1536.528961883043,None,1536.528961883043,None,1.0335755239939317,1538.3320828300202,None,1538.3320828300202,None,5,1,1.1015866340021603,1539.3519862570101,None,1539.3519862570101,None,1539.3519862570101,None,1540.4700827720226,None,1,0.6023827369790524,1540.4700827720226,None,114,1541.0886908990215,None,115,A,1,2021_May_24_1628,GazeFlow,2020.1.2,59.86565166647968,
11,Block512.xls,A,12,6,64,4,21,incongruent,Right,Left,Right,65,66,1,blue,2,6,/home/docky/apps/exp/images/35Yi.jpeg,/home/docky/apps/exp/images/66B.jpeg,0,10,10,10,0,5,5,5,1542.0900707209948,None,1542.0900707209948,None,1,5.945577839040197,1542.0900707209948,None,1548.0693997250055,None,1548.0693997250055,None,1550.5786556730163,None,1550.5786556730163,None,1.1337993210181594,1552.3781612670282,None,1552.3781612670282,None,6,1,1.2185608859872445,1553.4960691830493,None,1553.4960691830493,None,1553.4960691830493,None,1554.7316531540127,None,1,0.56749889702769,1554.7316531540127,None,116,1555.3156513040303,None,115,A,1,2021_May_24_1628,GazeFlow,2020.1.2,59.86565166647968,
11,Block512.xls,A,12,7,12,12,11,congruent,Left,Left,Right,76,79,3,blue,2,6,/home/docky/apps/exp/images/76B.jpeg,/home/docky/apps/exp/images/79Bi.jpeg,0,10,10,10,0,6,6,6,1556.317710988049,None,1556.317710988049,None,1,6.028925935970619,1556.317710988049,None,1562.3802615900058,None,1562.3802615900058,None,1564.883684978995,None,1564.883684978995,None,1.1170931669767015,1566.6814584929962,None,1566.6814584929962,None,6,1,0.9511232639779337,1567.7906756550074,None,1567.7906756550074,None,1567.7906756550074,None,1568.7585134410183,None,1,0.5341781600145623,1568.7585134410183,None,118,1569.3096829589922,None,115,A,1,2021_May_24_1628,GazeFlow,2020.1.2,59.86565166647968,
11,Block512.xls,A,12,8,49,49,12,congruent,Right,Right,Left,39,38,1,yellow,2,5,/home/docky/apps/exp/images/39Y.jpeg,/home/docky/apps/exp/images/38Yi.jpeg,0,10,10,10,0,7,7,7,1570.3116526490194,None,1570.3116526490194,None,1,6.746988410013728,1570.3116526490194,None,1577.092482795997,None,1577.092482795997,None,1579.59592457104,None,1579.59592457104,None,1.1505788700305857,1581.3985923349974,None,1581.3985923349974,None,5,1,1.0681456010206603,1582.5356430640095,None,1582.5356430640095,None,1582.5356430640095,None,1583.6204367070459,None,1,0.5020827060216106,1583.6204367070459,None,120,1584.1387854799978,None,115,A,1,2021_May_24_1628,GazeFlow,2020.1.2,59.86565166647968,
11,Block512.xls,A,,,,,,,,,,,,,,,,,,0,10,10,10,,,,,,,,,,,,,,,,,,,,,,,,,,,,,,,,,,,,,,,,,,,,115,A,1,2021_May_24_1628,GazeFlow,2020.1.2,59.86565166647968,
12,Block503.xls,A,3,1,22,22,11,congruent,Left,Left,Right,62,65,3,yellow,2,6,/home/docky/apps/exp/images/38Bi.jpeg,/home/docky/apps/exp/images/35B.jpeg,0,11,11,11,0,0,0,0,1620.375733244,None,1620.375733244,None,1,5.752114069997333,1620.375733244,None,1626.1529894749983,None,1626.1529894749983,None,1628.675342484028,None,1628.675342484028,None,1.1331032359739766,1630.4794911440113,None,1630.4794911440113,None,6,1,2.755134020000696,1631.5974907330237,None,1631.5974907330237,None,1631.5974907330237,None,1634.3690293230466,None,1,0.7352639769669622,1634.3690293230466,None,122,1635.1209434090415,None,115,A,1,2021_May_24_1628,GazeFlow,2020.1.2,59.86565166647968,
12,Block503.xls,A,3,2,65,5,21,incongruent,Right,Left,Right,65,66,1,blue,2,6,/home/docky/apps/exp/images/35Y.jpeg,/home/docky/apps/exp/images/66Bi.jpeg,0,11,11,11,0,1,1,1,1636.1229838100262,None,1636.1229838100262,None,1,5.3777971569797955,1636.1229838100262,None,1641.5340128660318,None,1641.5340128660318,None,1644.037332754,None,1644.037332754,None,1.2006221420015208,1645.840196381032,None,1645.840196381032,None,6,1,1.936429383000359,1647.0276486499934,None,1647.0276486499934,None,1647.0276486499934,None,1648.9807288110023,None,1,0.6350826559937559,1648.9807288110023,None,124,1649.6319741560146,None,115,A,1,2021_May_24_1628,GazeFlow,2020.1.2,59.86565166647968,
12,Block503.xls,A,3,3,76,16,21,incongruent,Right,Left,Right,33,35,2,yellow,2,6,/home/docky/apps/exp/images/33Y.jpeg,/home/docky/apps/exp/images/35Yi.jpeg,0,11,11,11,0,2,2,2,1650.6345917130238,None,1650.6345917130238,None,1,6.479286593967117,1650.6345917130238,None,1657.1476718410267,None,1657.1476718410267,None,1659.6508201700053,None,1659.6508201700053,None,1.4343552319915034,1661.4540058120037,None,1661.4540058120037,None,6,1,1.184986294945702,1662.8749474870274,None,1662.8749474870274,None,1662.8749474870274,None,1664.0773343060282,None,1,0.5502131910179742,1664.0773343060282,None,126,1664.6442889110185,None,115,A,1,2021_May_24_1628,GazeFlow,2020.1.2,59.86565166647968,
12,Block503.xls,A,3,4,29,29,11,congruent,Left,Left,Right,79,82,3,yellow,2,6,/home/docky/apps/exp/images/79Y.jpeg,/home/docky/apps/exp/images/80Yi.jpeg,0,11,11,11,0,3,3,3,1665.6465503800428,None,1665.6465503800428,None,1,6.680239430977963,1665.6465503800428,None,1672.3599942750297,None,1672.3599942750297,None,1674.8485260720481,None,1674.8485260720481,None,1.2171355150057934,1676.6627739430405,None,1676.6627739430405,None,6,1,1.0680879359715618,1677.8708086240222,None,1677.8708086240222,None,1677.8708086240222,None,1678.955839132017,None,1,0.5013689610059373,1678.955839132017,None,128,1679.4736533680116,None,115,A,1,2021_May_24_1628,GazeFlow,2020.1.2,59.86565166647968,
12,Block503.xls,A,3,5,103,43,22,incongruent,Left,Right,Left,39,38,1,blue,2,5,/home/docky/apps/exp/images/39Bi.jpeg,/home/docky/apps/exp/images/38B.jpeg,0,11,11,11,0,4,4,4,1680.4752728700405,None,1680.4752728700405,None,1,5.595233122992795,1680.4752728700405,None,1686.1043187510222,None,1686.1043187510222,None,1688.608629393042,None,1688.608629393042,None,2.1023210989660583,1690.4118013880216,None,1690.4118013880216,None,6,0,0.9180634419899434,1692.4992439000052,None,1692.4992439000052,None,1692.4992439000052,None,1693.4338406710303,None,1,0.4677218919969164,1693.4338406710303,None,126,1693.917935859994,None,115,A,1,2021_May_24_1628,GazeFlow,2020.1.2,59.86565166647968,
12,Block503.xls,A,3,6,47,47,12,congruent,Right,Right,Left,35,33,2,yellow,2,5,/home/docky/apps/exp/images/35Yi.jpeg,/home/docky/apps/exp/images/33Y.jpeg,0,11,11,11,0,5,5,5,1694.9200120730093,None,1694.9200120730093,None,1,6.1625045540276915,1694.9200120730093,None,1701.114256692992,None,1701.114256692992,None,1703.6241865380434,None,1703.6241865380434,None,1.5009885840117931,1705.4233633379918,None,1705.4233633379918,None,5,1,1.15244505595183,1706.9103478930192,None,1706.9103478930192,None,1706.9103478930192,None,1708.0791508220136,None,1,0.5339022090192884,1708.0791508220136,None,128,1708.6298779729987,None,115,A,1,2021_May_24_1628,GazeFlow,2020.1.2,59.86565166647968,
12,Block503.xls,A,3,7,20,20,11,congruent,Left,Left,Right,65,66,1,yellow,2,6,/home/docky/apps/exp/images/35Bi.jpeg,/home/docky/apps/exp/images/66Y.jpeg,0,11,11,11,0,6,6,6,1709.6316825970425,None,1709.6316825970425,None,1,6.797357061994262,1709.6316825970425,None,1716.4629476070404,None,1716.4629476070404,None,1718.9661303250468,None,1718.9661303250468,None,0.9833313759882003,1720.768896566995,None,1720.768896566995,None,6,1,0.9843403510167263,1721.7394108350272,None,1721.7394108350272,None,1721.7394108350272,None,1722.740580320009,None,1,0.5186299239867367,1722.740580320009,None,130,1723.275356986036,None,115,A,1,2021_May_24_1628,GazeFlow,2020.1.2,59.86565166647968,
12,Block503.xls,A,3,8,27,27,11,congruent,Left,Left,Right,72,77,5,yellow,2,6,/home/docky/apps/exp/images/72Yi.jpeg,/home/docky/apps/exp/images/77Y.jpeg,0,11,11,11,0,7,7,7,1724.2766951390076,None,1724.2766951390076,None,1,6.229578082973603,1724.2766951390076,None,1730.5382609640365,None,1730.5382609640365,None,1733.0427287400234,None,1733.0427287400234,None,0.8330162540078163,1734.8462404350284,None,1734.8462404350284,None,6,1,1.0012427849578671,1735.666215666046,None,1735.666215666046,None,1735.666215666046,None,1736.6839678970282,None,1,0.48447346198372543,1736.6839678970282,None,132,1737.1860786680481,None,115,A,1,2021_May_24_1628,GazeFlow,2020.1.2,59.86565166647968,
12,Block503.xls,A,,,,,,,,,,,,,,,,,,0,11,11,11,,,,,,,,,,,,,,,,,,,,,,,,,,,,,,,,,,,,,,,,,,,,115,A,1,2021_May_24_1628,GazeFlow,2020.1.2,59.86565166647968,
13,Block501.xls,A,1,1,54,54,12,congruent,Right,Right,Left,75,69,6,yellow,2,5,/home/docky/apps/exp/images/76Y.jpeg,/home/docky/apps/exp/images/69Yi.jpeg,0,12,12,12,0,0,0,0,1760.0641967430129,None,1760.0641967430129,None,1,6.639097118983045,1760.0641967430129,None,1766.7312977720285,None,1766.7312977720285,None,1769.2470294040395,None,1769.2470294040395,None,1.3671439759782515,1771.0521558740293,None,1771.0521558740293,None,5,1,1.085882554994896,1772.404110789008,None,1772.404110789008,None,1772.404110789008,None,1773.5061179030454,None,1,0.5339701680350117,1773.5061179030454,None,134,1774.0567213320173,None,115,A,1,2021_May_24_1628,GazeFlow,2020.1.2,59.86565166647968,
13,Block501.xls,A,1,2,70,10,21,incongruent,Right,Left,Right,73,76,3,blue,2,6,/home/docky/apps/exp/images/73Bi.jpeg,/home/docky/apps/exp/images/76B.jpeg,0,12,12,12,0,1,1,1,1775.0589895330486,None,1775.0589895330486,None,1,5.745097247010563,1775.0589895330486,None,1780.8376359959948,None,1780.8376359959948,None,1783.3423520050128,None,1783.3423520050128,None,1.5844513169722632,1785.146073046024,None,1785.146073046024,None,6,1,0.9521150260115974,1786.7154521699995,None,1786.7154521699995,None,1786.7154521699995,None,1787.6838523719925,None,1,0.5505447129835375,1787.6838523719925,None,136,1788.2509871569928,None,115,A,1,2021_May_24_1628,GazeFlow,2020.1.2,59.86565166647968,
13,Block501.xls,A,1,3,84,24,21,incongruent,Right,Left,Right,69,76,7,yellow,2,6,/home/docky/apps/exp/images/69Yi.jpeg,/home/docky/apps/exp/images/76Y.jpeg,0,12,12,12,0,2,2,2,1789.253123136994,None,1789.253123136994,None,1,6.930668637040071,1789.253123136994,None,1796.2144275140017,None,1796.2144275140017,None,1798.7224048760254,None,1798.7224048760254,None,1.6180224129930139,1800.5188886090182,None,1800.5188886090182,None,6,1,1.0360250109806657,1802.128248284047,None,1802.128248284047,None,1802.128248284047,None,1803.1803071770119,None,1,0.4340095480438322,1803.1803071770119,None,138,1803.630703005998,None,115,A,1,2021_May_24_1628,GazeFlow,2020.1.2,59.86565166647968,
13,Block501.xls,A,1,4,26,26,11,congruent,Left,Left,Right,69,75,6,yellow,2,6,/home/docky/apps/exp/images/69Y.jpeg,/home/docky/apps/exp/images/76Yi.jpeg,0,12,12,12,0,3,3,3,1804.6330844340264,None,1804.6330844340264,None,1,7.147434680024162,1804.6330844340264,None,1811.8145284909988,None,1811.8145284909988,None,1814.3175798240118,None,1814.3175798240118,None,1.367346009996254,1816.1205730750225,None,1816.1205730750225,None,6,1,0.9681688049458899,1817.4749925259966,None,1817.4749925259966,None,1817.4749925259966,None,1818.4596194960177,None,1,0.40182614099467173,1818.4596194960177,None,140,1818.87731163,None,115,A,1,2021_May_24_1628,GazeFlow,2020.1.2,59.86565166647968,
13,Block501.xls,A,1,5,97,37,22,incongruent,Left,Right,Left,79,73,6,blue,2,5,/home/docky/apps/exp/images/79B.jpeg,/home/docky/apps/exp/images/73Bi.jpeg,0,12,12,12,0,4,4,4,1819.8790716770454,None,1819.8790716770454,None,1,7.332061378983781,1819.8790716770454,None,1827.2444379460067,None,1827.2444379460067,None,1829.7470563880051,None,1829.7470563880051,None,1.2341029979870655,1831.5456990959938,None,1831.5456990959938,None,5,1,1.0346997390151955,1832.7714061480365,None,1832.7714061480365,None,1832.7714061480365,None,1833.8231890890165,None,1,0.5345362899824977,1833.8231890890165,None,142,1834.3741964840447,None,115,A,1,2021_May_24_1628,GazeFlow,2020.1.2,59.86565166647968,
13,Block501.xls,A,1,6,98,38,22,incongruent,Left,Right,Left,79,73,6,blue,2,5,/home/docky/apps/exp/images/79B.jpeg,/home/docky/apps/exp/images/73Bi.jpeg,0,12,12,12,0,5,5,5,1835.3758461020188,None,1835.3758461020188,None,1,6.04574714996852,1835.3758461020188,None,1841.4551054250333,None,1841.4551054250333,None,1843.9582084140275,None,1843.9582084140275,None,1.2341235770145431,1845.7616693080054,None,1845.7616693080054,None,5,1,1.1520229050074704,1846.9822971470421,None,1846.9822971470421,None,1846.9822971470421,None,1848.1509944060235,None,1,1.9868237129994668,1848.1509944060235,None,144,1850.1543481520494,None,115,A,1,2021_May_24_1628,GazeFlow,2020.1.2,59.86565166647968,
13,Block501.xls,A,1,7,77,17,21,incongruent,Right,Left,Right,65,66,1,yellow,2,6,/home/docky/apps/exp/images/35B.jpeg,/home/docky/apps/exp/images/66Yi.jpeg,0,12,12,12,0,6,6,6,1851.156693447032,None,1851.156693447032,None,1,4.409272207994945,1851.156693447032,None,1855.5995012570056,None,1855.5995012570056,None,1858.104293054028,None,1858.104293054028,None,1.267350098991301,1859.905943874037,None,1859.905943874037,None,6,1,0.9513251130119897,1861.159880079038,None,1861.159880079038,None,1861.159880079038,None,1862.1279055780033,None,1,0.4511965499841608,1862.1279055780033,None,146,1862.5957251660293,None,115,A,1,2021_May_24_1628,GazeFlow,2020.1.2,59.86565166647968,
13,Block501.xls,A,1,8,50,50,12,congruent,Right,Right,Left,66,65,1,yellow,2,5,/home/docky/apps/exp/images/66Y.jpeg,/home/docky/apps/exp/images/35Bi.jpeg,0,12,12,12,0,7,7,7,1863.5972046210081,None,1863.5972046210081,None,1,6.062876771029551,1863.5972046210081,None,1869.6932076720404,None,1869.6932076720404,None,1872.1963650070247,None,1872.1963650070247,None,1.6847128680092283,1874.0016429609968,None,1874.0016429609968,None,5,1,1.1021843350026757,1875.6713141180226,None,1875.6713141180226,None,1875.6713141180226,None,1876.7898868820048,None,1,0.4838617370114662,1876.7898868820048,None,148,1877.2904702860396,None,115,A,1,2021_May_24_1628,GazeFlow,2020.1.2,59.86565166647968,
13,Block501.xls,A,,,,,,,,,,,,,,,,,,0,12,12,12,,,,,,,,,,,,,,,,,,,,,,,,,,,,,,,,,,,,,,,,,,,,115,A,1,2021_May_24_1628,GazeFlow,2020.1.2,59.86565166647968,
14,Block513.xls,A,13,1,32,32,12,congruent,Right,Right,Left,19,16,3,blue,2,5,/home/docky/apps/exp/images/19B.jpeg,/home/docky/apps/exp/images/16Bi.jpeg,0,13,13,13,0,0,0,0,1897.3468386839959,None,1897.3468386839959,None,1,6.169884518021718,1897.3468386839959,None,1903.545514062047,None,1903.545514062047,None,1906.0640865750029,None,1906.0640865750029,None,1.266893457970582,1907.8663269390236,None,1907.8663269390236,None,5,1,1.0191221670247614,1909.1194509430206,None,1909.1194509430206,None,1909.1194509430206,None,1910.154643824033,None,1,0.501201051985845,1910.154643824033,None,150,1910.6723516460042,None,115,A,1,2021_May_24_1628,GazeFlow,2020.1.2,59.86565166647968,
14,Block513.xls,A,13,2,81,21,21,incongruent,Right,Left,Right,38,39,1,yellow,2,6,/home/docky/apps/exp/images/38Yi.jpeg,/home/docky/apps/exp/images/39Y.jpeg,0,13,13,13,0,1,1,1,1911.6739274520078,None,1911.6739274520078,None,1,6.012218089017551,1911.6739274520078,None,1917.7179814120173,None,1917.7179814120173,None,1920.2231779840076,None,1920.2231779840076,None,1.4842794159776531,1922.025598383043,None,1922.025598383043,None,6,1,0.9351611269521527,1923.4975624270155,None,1923.4975624270155,None,1923.4975624270155,None,1924.4490954770008,None,1,0.4010183050413616,1924.4490954770008,None,152,1924.8666116560344,None,115,A,1,2021_May_24_1628,GazeFlow,2020.1.2,59.86565166647968,
14,Block513.xls,A,13,3,92,32,22,incongruent,Left,Right,Left,19,16,3,blue,2,5,/home/docky/apps/exp/images/19B.jpeg,/home/docky/apps/exp/images/16Bi.jpeg,0,13,13,13,0,2,2,2,1925.8682894210215,None,1925.8682894210215,None,1,5.678101733967196,1925.8682894210215,None,1931.5785988949938,None,1931.5785988949938,None,1934.083153621992,None,1934.083153621992,None,0.9667428149841726,1935.8862353330478,None,1935.8862353330478,None,5,1,0.934412850998342,1936.8401069690008,None,1936.8401069690008,None,1936.8401069690008,None,1937.7911583600217,None,1,0.4173954580328427,1937.7911583600217,None,154,1938.2257117350237,None,115,A,1,2021_May_24_1628,GazeFlow,2020.1.2,59.86565166647968,
14,Block513.xls,A,13,4,6,6,11,congruent,Left,Left,Right,65,66,1,blue,2,6,/home/docky/apps/exp/images/35Y.jpeg,/home/docky/apps/exp/images/66Bi.jpeg,0,13,13,13,0,3,3,3,1939.227464879048,None,1939.227464879048,None,1,5.694995772966649,1939.227464879048,None,1944.956217523024,None,1944.956217523024,None,1947.4594217700069,None,1947.4594217700069,None,1.3843640979612246,1949.2632395710098,None,1949.2632395710098,None,5,0,1.035121560038533,1950.6334706270136,None,1950.6334706270136,None,1950.6334706270136,None,1951.6853153239936,None,1,0.4346100150141865,1951.6853153239936,None,152,1952.1363242620137,None,115,A,1,2021_May_24_1628,GazeFlow,2020.1.2,59.86565166647968,
14,Block513.xls,A,13,5,67,7,21,incongruent,Right,Left,Right,38,39,1,blue,2,6,/home/docky/apps/exp/images/38Bi.jpeg,/home/docky/apps/exp/images/39B.jpeg,0,13,13,13,0,4,4,4,1953.137648880016,None,1953.137648880016,None,1,6.363402071001474,1953.137648880016,None,1959.5345680650207,None,1959.5345680650207,None,1962.0378449080163,None,1962.0378449080163,None,1.1003679409623146,1963.8405565519934,None,1963.8405565519934,None,6,1,1.0015614909934811,1964.9277290760074,None,1964.9277290760074,None,1964.9277290760074,None,1965.9459695270052,None,1,0.38460443896474317,1965.9459695270052,None,154,1966.347075807047,None,115,A,1,2021_May_24_1628,GazeFlow,2020.1.2,59.86565166647968,
14,Block513.xls,A,13,6,111,51,22,incongruent,Left,Right,Left,66,65,1,yellow,2,5,/home/docky/apps/exp/images/66Yi.jpeg,/home/docky/apps/exp/images/35B.jpeg,0,13,13,13,0,5,5,5,1967.3485063190456,None,1967.3485063190456,None,1,5.779203056998085,1967.3485063190456,None,1973.162459690997,None,1973.162459690997,None,1975.6656827430124,None,1975.6656827430124,None,1.4343078949605115,1977.4692417810438,None,1977.4692417810438,None,5,1,0.8510273370193318,1978.88824865903,None,1978.88824865903,None,1978.88824865903,None,1979.75576589501,None,1,0.46755586902145296,1979.75576589501,None,156,1980.2399872240494,None,115,A,1,2021_May_24_1628,GazeFlow,2020.1.2,59.86565166647968,
14,Block513.xls,A,13,7,88,28,21,incongruent,Right,Left,Right,79,82,3,yellow,2,6,/home/docky/apps/exp/images/79Y.jpeg,/home/docky/apps/exp/images/80Yi.jpeg,0,13,13,13,0,6,6,6,1981.2426202840288,None,1981.2426202840288,None,1,5.410855630994774,1981.2426202840288,None,1986.6858026810223,None,1986.6858026810223,None,1989.1899250210263,None,1989.1899250210263,None,1.684856647043489,1990.9931103039999,None,1990.9931103039999,None,6,1,0.9017906410153955,1992.6650487279985,None,1992.6650487279985,None,1992.6650487279985,None,1993.5833575240104,None,1,0.36682853498496115,1993.5833575240104,None,158,1993.9670757730491,None,115,A,1,2021_May_24_1628,GazeFlow,2020.1.2,59.86565166647968,
14,Block513.xls,A,13,8,14,14,11,congruent,Left,Left,Right,80,83,3,blue,2,6,/home/docky/apps/exp/images/80B.jpeg,/home/docky/apps/exp/images/83Bi.jpeg,0,13,13,13,0,7,7,7,1994.9689698010334,None,1994.9689698010334,None,1,5.845314888982102,1994.9689698010334,None,2000.8478711390053,None,2000.8478711390053,None,2003.3527655010112,None,2003.3527655010112,None,1.6179825279978104,2005.1545130730374,None,2005.1545130730374,None,6,1,0.9684505850309506,2006.759086931008,None,2006.759086931008,None,2006.759086931008,None,2007.7441646750085,None,1,0.38376420497661456,2007.7441646750085,None,160,2008.1446952290135,None,115,A,1,2021_May_24_1628,GazeFlow,2020.1.2,59.86565166647968,
14,Block513.xls,A,,,,,,,,,,,,,,,,,,0,13,13,13,,,,,,,,,,,,,,,,,,,,,,,,,,,,,,,,,,,,,,,,,,,,115,A,1,2021_May_24_1628,GazeFlow,2020.1.2,59.86565166647968,
15,Block514.xls,A,14,1,113,53,22,incongruent,Left,Right,Left,75,69,6,yellow,2,5,/home/docky/apps/exp/images/76Y.jpeg,/home/docky/apps/exp/images/69Yi.jpeg,0,14,14,14,0,0,0,0,2030.6400700320373,None,2030.6400700320373,None,1,4.881562536000274,2030.6400700320373,None,2035.549291050993,None,2035.549291050993,None,2038.0738572280388,None,2038.0738572280388,None,1.2503718539956026,2039.8717673330102,None,2039.8717673330102,None,5,1,1.068419103976339,2041.1091913760174,None,2041.1091913760174,None,2041.1091913760174,None,2042.1938314550207,None,1,0.5183975389809348,2042.1938314550207,None,162,2042.7287777450401,None,115,A,1,2021_May_24_1628,GazeFlow,2020.1.2,59.86565166647968,
15,Block514.xls,A,14,2,45,45,12,congruent,Right,Right,Left,39,38,1,blue,2,5,/home/docky/apps/exp/images/39B.jpeg,/home/docky/apps/exp/images/38Bi.jpeg,0,14,14,14,0,1,1,1,2043.7302881700452,None,2043.7302881700452,None,1,6.714384215010796,2043.7302881700452,None,2050.4778006570414,None,2050.4778006570414,None,2052.9803881309927,None,2052.9803881309927,None,1.2504964339896105,2054.783601391013,None,2054.783601391013,None,5,1,1.0022578610223718,2056.021235708031,None,2056.021235708031,None,2056.021235708031,None,2057.0401276480407,None,1,0.5010034420411102,2057.0401276480407,None,164,2057.557422415004,None,115,A,1,2021_May_24_1628,GazeFlow,2020.1.2,59.86565166647968,
15,Block514.xls,A,14,3,52,52,12,congruent,Right,Right,Left,75,69,6,yellow,2,5,/home/docky/apps/exp/images/76Y.jpeg,/home/docky/apps/exp/images/69Yi.jpeg,0,14,14,14,0,2,2,2,2058.5590804370004,None,2058.5590804370004,None,1,6.296216104994528,2058.5590804370004,None,2064.889105114038,None,2064.889105114038,None,2067.393722155015,None,2067.393722155015,None,1.234112144971732,2069.1957356480416,None,2069.1957356480416,None,5,1,1.0524251189781353,2070.415718668024,None,2070.415718668024,None,2070.415718668024,None,2071.4845597780077,None,1,0.4843065289896913,2071.4845597780077,None,166,2071.9854904310196,None,115,A,1,2021_May_24_1628,GazeFlow,2020.1.2,59.86565166647968,
15,Block514.xls,A,14,4,106,46,22,incongruent,Left,Right,Left,35,33,2,yellow,2,5,/home/docky/apps/exp/images/35Yi.jpeg,/home/docky/apps/exp/images/33Y.jpeg,0,14,14,14,0,3,3,3,2072.986940117029,None,2072.986940117029,None,1,5.544932521996088,2072.986940117029,None,2078.5655637020245,None,2078.5655637020245,None,2081.069049131009,None,2081.069049131009,None,1.1841326160356402,2082.8740043900325,None,2082.8740043900325,None,5,1,1.241562419978436,2084.0533330150065,None,2084.0533330150065,None,2084.0533330150065,None,2085.311318645021,None,1,0.4678674539900385,2085.311318645021,None,168,2085.795626762032,None,115,A,1,2021_May_24_1628,GazeFlow,2020.1.2,59.86565166647968,
15,Block514.xls,A,14,5,109,49,22,incongruent,Left,Right,Left,39,38,1,yellow,2,5,/home/docky/apps/exp/images/39Yi.jpeg,/home/docky/apps/exp/images/38Y.jpeg,0,14,14,14,0,4,4,4,2086.7974766190164,None,2086.7974766190164,None,1,5.527782374992967,2086.7974766190164,None,2092.359070879,None,2092.359070879,None,2094.8618753509945,None,2094.8618753509945,None,1.6015310669899918,2096.6606511280406,None,2096.6606511280406,None,5,1,1.0853714320110157,2098.2533358450164,None,2098.2533358450164,None,2098.2533358450164,None,2099.355192056042,None,1,0.38412225199863315,2099.355192056042,None,170,2099.7559946690453,None,115,A,1,2021_May_24_1628,GazeFlow,2020.1.2,59.86565166647968,
15,Block514.xls,A,14,6,89,29,21,incongruent,Right,Left,Right,79,82,3,yellow,2,6,/home/docky/apps/exp/images/79Yi.jpeg,/home/docky/apps/exp/images/80Y.jpeg,0,14,14,14,0,5,5,5,2100.7578358449973,None,2100.7578358449973,None,1,5.9453685490298085,2100.7578358449973,None,2106.737073800992,None,2106.737073800992,None,2109.2416098590475,None,2109.2416098590475,None,1.1003712189849466,2111.0452596760006,None,2111.0452596760006,None,6,1,0.9847134309820831,2112.1302678390057,None,2112.1302678390057,None,2112.1302678390057,None,2113.1313964240253,None,1,0.3848862280137837,2113.1313964240253,None,172,2113.5328044469934,None,115,A,1,2021_May_24_1628,GazeFlow,2020.1.2,59.86565166647968,
15,Block514.xls,A,14,7,91,31,22,incongruent,Left,Right,Left,19,16,3,blue,2,5,/home/docky/apps/exp/images/19Bi.jpeg,/home/docky/apps/exp/images/16B.jpeg,0,14,14,14,0,6,6,6,2114.534379402001,None,2114.534379402001,None,1,5.061372856958769,2114.534379402001,None,2119.6313186199986,None,2119.6313186199986,None,2122.13174303103,None,2122.13174303103,None,1.2337630579713732,2123.9345609800075,None,2123.9345609800075,None,5,1,0.9178054649964906,2125.155633744027,None,2125.155633744027,None,2125.155633744027,None,2126.090311988024,None,1,0.41774188296403736,2126.090311988024,None,174,2126.524550745031,None,115,A,1,2021_May_24_1628,GazeFlow,2020.1.2,59.86565166647968,
15,Block514.xls,A,14,8,79,19,21,incongruent,Right,Left,Right,62,65,3,yellow,2,6,/home/docky/apps/exp/images/38B.jpeg,/home/docky/apps/exp/images/35Bi.jpeg,0,14,14,14,0,7,7,7,2127.526854816999,None,2127.526854816999,None,1,5.56110087299021,2127.526854816999,None,2133.121596097015,None,2133.121596097015,None,2135.626397339045,None,2135.626397339045,None,1.3174073200207204,2137.430076877994,None,2137.430076877994,None,6,1,0.9180481870425865,2138.7318893159973,None,2138.7318893159973,None,2138.7318893159973,None,2139.667001861031,None,1,0.2999975110287778,2139.667001861031,None,176,2139.9839965710416,None,115,A,1,2021_May_24_1628,GazeFlow,2020.1.2,59.86565166647968,
15,Block514.xls,A,,,,,,,,,,,,,,,,,,0,14,14,14,,,,,,,,,,,,,,,,,,,,,,,,,,,,,,,,,,,,,,,,,,,,115,A,1,2021_May_24_1628,GazeFlow,2020.1.2,59.86565166647968,
