Nblock,condsFile,grouping,Block,TrialBlock,N,trialN,trialCond,gazeCon,gazedirR,corrBinR,corrBinP,valLBY,valRBY,diff,colorCube,feedbacktext,corrAns,imageL,imageR,SelBlocks.thisRepN,SelBlocks.thisTrialN,SelBlocks.thisN,SelBlocks.thisIndex,Trials.thisRepN,Trials.thisTrialN,Trials.thisN,Trials.thisIndex,waitCube.started,waitCube.stopped,text_3.started,text_3.stopped,StartKeyPress.keys,StartKeyPress.rt,StartKeyPress.started,StartKeyPress.stopped,StimL.started,StimL.stopped,StimR.started,StimR.stopped,imageStim2L.started,imageStim2L.stopped,imageStim2R.started,imageStim2R.stopped,RTkeyRelease,imageStim3L.started,imageStim3L.stopped,imageStim3R.started,imageStim3R.stopped,dropResp.keys,dropResp.corr,dropResp.rt,dropResp.started,dropResp.stopped,imageStim5L.started,imageStim5L.stopped,imageStim5R.started,imageStim5R.stopped,text_2.started,text_2.stopped,ReturnSpace.keys,ReturnSpace.rt,ReturnSpace.started,ReturnSpace.stopped,totalpoints,textFeedback.started,textFeedback.stopped,participant,group,session,date,expName,psychopyVersion,frameRate,
1,Block809.xls,B,9,1,93,93,None,congruent,Right,Right,Left,80,79,1,yellow,2,5,/home/docky/apps/exp/images/80Y.jpeg,/home/docky/apps/exp/images/79Yi.jpeg,0,0,0,0,0,0,0,0,81.30117389699444,None,81.30117389699444,None,1,4.597099959035404,81.30117389699444,None,85.93375916499645,None,85.93375916499645,None,88.4484878279618,None,88.4484878279618,None,1.4507567919790745,90.2521074799588,None,90.2521074799588,None,5,1,1.0186853670165874,91.68505144998198,None,91.68505144998198,None,91.68505144998198,None,92.72028245398542,None,1,0.9849956899997778,92.72028245398542,None,2,93.72200256999349,None,116,B,1,2021_May_25_0925,GazeFlow,2020.1.2,59.94262650745422,
1,Block809.xls,B,9,2,15,15,None,congruent,Left,Left,Right,38,39,1,blue,2,6,/home/docky/apps/exp/images/38B.jpeg,/home/docky/apps/exp/images/39Bi.jpeg,0,0,0,0,0,1,1,1,94.7242576709832,None,94.7242576709832,None,1,6.7967248760396615,94.7242576709832,None,101.55498227098724,None,101.55498227098724,None,104.06380289699882,None,104.06380289699882,None,1.1168410510290414,105.86309806600912,None,105.86309806600912,None,6,1,1.2015170700033195,106.96486203599488,None,106.96486203599488,None,106.96486203599488,None,108.1832093920093,None,1,1.068880106031429,108.1832093920093,None,4,109.26868531800574,None,116,B,1,2021_May_25_0925,GazeFlow,2020.1.2,59.94262650745422,
1,Block809.xls,B,9,3,117,21,None,incongruent,Left,Right,Left,39,38,1,yellow,2,5,/home/docky/apps/exp/images/39Yi.jpeg,/home/docky/apps/exp/images/38Y.jpeg,0,0,0,0,0,2,2,2,110.27114969899412,None,110.27114969899412,None,1,7.381155505019706,110.27114969899412,None,117.6861764100031,None,117.6861764100031,None,120.19095153699163,None,120.19095153699163,None,1.4842456800397485,121.99288241396425,None,121.99288241396425,None,6,0,1.2520977759850211,123.46369476697873,None,123.46369476697873,None,123.46369476697873,None,124.73251839895966,None,1,0.7343229750404134,124.73251839895966,None,2,125.48325831501279,None,116,B,1,2021_May_25_0925,GazeFlow,2020.1.2,59.94262650745422,
1,Block809.xls,B,9,4,94,94,None,congruent,Right,Right,Left,80,79,1,yellow,2,5,/home/docky/apps/exp/images/80Y.jpeg,/home/docky/apps/exp/images/79Yi.jpeg,0,0,0,0,0,3,3,3,126.48556248599198,None,126.48556248599198,None,1,6.530055071983952,126.48556248599198,None,133.04938111297088,None,133.04938111297088,None,135.55183398997178,None,135.55183398997178,None,1.016690117015969,137.35556116898078,None,137.35556116898078,None,5,1,1.2350518070161343,138.35899896395858,None,138.35899896395858,None,138.35899896395858,None,139.61098422197392,None,1,0.868273010943085,139.61098422197392,None,4,140.49583234800957,None,116,B,1,2021_May_25_0925,GazeFlow,2020.1.2,59.94262650745422,
1,Block809.xls,B,9,5,41,41,None,congruent,Right,Right,Left,79,76,3,blue,2,5,/home/docky/apps/exp/images/79Bi.jpeg,/home/docky/apps/exp/images/76B.jpeg,0,0,0,0,0,4,4,4,141.49796112597687,None,141.49796112597687,None,1,7.8156667980365455,141.49796112597687,None,149.3475331160007,None,149.3475331160007,None,151.8529990009847,None,151.8529990009847,None,1.8013557409867644,153.65402553300373,None,153.65402553300373,None,6,0,1.3691881600534543,155.44199457101058,None,155.44199457101058,None,155.44199457101058,None,156.82765888998983,None,1,0.7848064490244724,156.82765888998983,None,2,157.62962277897168,None,116,B,1,2021_May_25_0925,GazeFlow,2020.1.2,59.94262650745422,
1,Block809.xls,B,9,6,36,36,None,congruent,Right,Right,Left,79,73,6,blue,2,5,/home/docky/apps/exp/images/79Bi.jpeg,/home/docky/apps/exp/images/73B.jpeg,0,0,0,0,0,5,5,5,158.63164759398205,None,158.63164759398205,None,1,6.430235527979676,158.63164759398205,None,165.0946523490129,None,165.0946523490129,None,167.59952192899073,None,167.59952192899073,None,0.9837755350163206,169.4030666569597,None,169.4030666569597,None,5,1,1.2517817839980125,170.37135490897344,None,170.37135490897344,None,170.37135490897344,None,171.6398772529792,None,1,0.7360107880085707,171.6398772529792,None,4,172.3911719530006,None,116,B,1,2021_May_25_0925,GazeFlow,2020.1.2,59.94262650745422,
1,Block809.xls,B,9,7,78,78,None,congruent,Right,Right,Left,39,38,1,yellow,2,5,/home/docky/apps/exp/images/39Yi.jpeg,/home/docky/apps/exp/images/38Y.jpeg,0,0,0,0,0,6,6,6,173.39325130800717,None,173.39325130800717,None,1,6.096330625005066,173.39325130800717,None,179.52294761198573,None,179.52294761198573,None,182.02604274998885,None,182.02604274998885,None,1.1835540200117975,183.82899595296476,None,183.82899595296476,None,5,1,1.2022385969758034,184.99969712400343,None,184.99969712400343,None,184.99969712400343,None,186.21853156900033,None,1,0.700958134024404,186.21853156900033,None,6,186.9362443590071,None,116,B,1,2021_May_25_0925,GazeFlow,2020.1.2,59.94262650745422,
1,Block809.xls,B,9,8,29,29,None,congruent,Right,Right,Left,38,35,3,blue,2,5,/home/docky/apps/exp/images/38B.jpeg,/home/docky/apps/exp/images/35Bi.jpeg,0,0,0,0,0,7,7,7,187.93788928096183,None,187.93788928096183,None,1,6.697623364976607,187.93788928096183,None,194.66926894598873,None,194.66926894598873,None,197.17345901497174,None,197.17345901497174,None,0.9833214419777505,198.97560815600445,None,198.97560815600445,None,5,1,1.2019264440168627,199.9453394919983,None,199.9453394919983,None,199.9453394919983,None,201.16365220496664,None,1,0.7515713620232418,201.16365220496664,None,8,201.93199756997637,None,116,B,1,2021_May_25_0925,GazeFlow,2020.1.2,59.94262650745422,
1,Block809.xls,B,,,,,,,,,,,,,,,,,,0,0,0,0,,,,,,,,,,,,,,,,,,,,,,,,,,,,,,,,,,,,,,,,,,,,116,B,1,2021_May_25_0925,GazeFlow,2020.1.2,59.94262650745422,
2,Block805.xls,B,5,1,16,16,None,congruent,Left,Left,Right,73,76,3,blue,2,6,/home/docky/apps/exp/images/73B.jpeg,/home/docky/apps/exp/images/76Bi.jpeg,0,1,1,1,0,0,0,0,227.18849670200143,None,227.18849670200143,None,1,7.379931634000968,227.18849670200143,None,234.5983709289576,None,234.5983709289576,None,237.11802863096818,None,237.11802863096818,None,0.8994294089497998,238.92166242800886,None,238.92166242800886,None,6,1,1.184972805029247,239.8061350969947,None,239.8061350969947,None,239.8061350969947,None,241.00789995398372,None,1,0.7018278990290128,241.00789995398372,None,10,241.7262883229996,None,116,B,1,2021_May_25_0925,GazeFlow,2020.1.2,59.94262650745422,
2,Block805.xls,B,5,2,2,2,None,congruent,Left,Left,Right,16,19,3,blue,2,6,/home/docky/apps/exp/images/16B.jpeg,/home/docky/apps/exp/images/19Bi.jpeg,0,1,1,1,0,1,1,1,242.72776151797734,None,242.72776151797734,None,1,6.947517360036727,242.72776151797734,None,249.71001552196685,None,249.71001552196685,None,252.21203531697392,None,252.21203531697392,None,1.0838267939980142,254.0159435349633,None,254.0159435349633,None,6,1,1.302326611999888,255.0857040619594,None,255.0857040619594,None,255.0857040619594,None,256.40467190899653,None,1,0.7346451340126805,256.40467190899653,None,12,257.1557636419893,None,116,B,1,2021_May_25_0925,GazeFlow,2020.1.2,59.94262650745422,
2,Block805.xls,B,5,3,64,64,None,congruent,Left,Left,Right,69,76,7,yellow,2,6,/home/docky/apps/exp/images/69Y.jpeg,/home/docky/apps/exp/images/76Yi.jpeg,0,1,1,1,0,2,2,2,258.15834726800676,None,258.15834726800676,None,1,4.893025002034847,258.15834726800676,None,263.08532919100253,None,263.08532919100253,None,265.58968542999355,None,265.58968542999355,None,1.2507519160280935,267.39173960196786,None,267.39173960196786,None,6,1,1.2190435659722425,268.6287478139857,None,268.6287478139857,None,268.6287478139857,None,269.8643100539921,None,1,0.70092079002643,269.8643100539921,None,14,270.5816192610073,None,116,B,1,2021_May_25_0925,GazeFlow,2020.1.2,59.94262650745422,
2,Block805.xls,B,5,4,61,61,None,congruent,Left,Left,Right,38,39,1,yellow,2,6,/home/docky/apps/exp/images/38Yi.jpeg,/home/docky/apps/exp/images/39Y.jpeg,0,1,1,1,0,3,3,3,271.58382701000664,None,271.58382701000664,None,1,5.278268841968384,271.58382701000664,None,276.8955739979865,None,276.8955739979865,None,279.39861494797515,None,279.39861494797515,None,2.4363224269472994,281.20146133500384,None,281.20146133500384,None,6,1,0.983963095000945,283.6251159000094,None,283.6251159000094,None,283.6251159000094,None,284.6256333839847,None,1,0.5677875810069963,284.6256333839847,None,16,285.2100062830141,None,116,B,1,2021_May_25_0925,GazeFlow,2020.1.2,59.94262650745422,
2,Block805.xls,B,5,5,23,23,None,congruent,Left,Left,Right,80,83,3,blue,2,6,/home/docky/apps/exp/images/80B.jpeg,/home/docky/apps/exp/images/83Bi.jpeg,0,1,1,1,0,4,4,4,286.2128082769923,None,286.2128082769923,None,1,5.060422736045439,286.2128082769923,None,291.30659906798974,None,291.30659906798974,None,293.8099235210102,None,293.8099235210102,None,1.3506678399862722,295.60753456596285,None,295.60753456596285,None,6,1,1.1021927230176516,296.95036234898726,None,296.95036234898726,None,296.95036234898726,None,298.0691017250065,None,1,0.6011269519804046,298.0691017250065,None,18,298.68633846601006,None,116,B,1,2021_May_25_0925,GazeFlow,2020.1.2,59.94262650745422,
2,Block805.xls,B,5,6,87,87,None,congruent,Right,Right,Left,76,69,7,yellow,2,5,/home/docky/apps/exp/images/76Yi.jpeg,/home/docky/apps/exp/images/69Y.jpeg,0,1,1,1,0,5,5,5,299.68863851501374,None,299.68863851501374,None,1,5.294145210005809,299.68863851501374,None,305.0165525309858,None,305.0165525309858,None,307.5197271499783,None,307.5197271499783,None,1.334212733025197,309.3248627259745,None,309.3248627259745,None,5,1,1.1355574569897726,310.6437925269711,None,310.6437925269711,None,310.6437925269711,None,311.79577147896634,None,1,0.5840566700208001,311.79577147896634,None,20,312.3966547049931,None,116,B,1,2021_May_25_0925,GazeFlow,2020.1.2,59.94262650745422,
2,Block805.xls,B,5,7,4,4,None,congruent,Left,Left,Right,35,38,3,blue,2,6,/home/docky/apps/exp/images/35B.jpeg,/home/docky/apps/exp/images/38Bi.jpeg,0,1,1,1,0,6,6,6,313.3985460579861,None,313.3985460579861,None,1,5.311381892010104,313.3985460579861,None,318.74318563897396,None,318.74318563897396,None,321.24600639397977,None,321.24600639397977,None,1.6682079079910181,323.04975783795817,None,323.04975783795817,None,6,1,0.9853568429825827,324.70426147896796,None,324.70426147896796,None,324.70426147896796,None,325.70558394596446,None,1,0.517892318952363,325.70558394596446,None,22,326.23999144596746,None,116,B,1,2021_May_25_0925,GazeFlow,2020.1.2,59.94262650745422,
2,Block805.xls,B,5,8,114,18,None,incongruent,Right,Left,Right,79,82,3,yellow,2,6,/home/docky/apps/exp/images/79Y.jpeg,/home/docky/apps/exp/images/80Yi.jpeg,0,1,1,1,0,7,7,7,327.24174264399335,None,327.24174264399335,None,1,5.311678442987613,327.24174264399335,None,332.5869059159886,None,332.5869059159886,None,335.08989822497824,None,335.08989822497824,None,1.2504163199919276,336.89283838600386,None,336.89283838600386,None,6,1,1.0857650710386224,338.1303686510073,None,338.1303686510073,None,338.1303686510073,None,339.2323070029961,None,1,0.4845158079988323,339.2323070029961,None,24,339.7332859080052,None,116,B,1,2021_May_25_0925,GazeFlow,2020.1.2,59.94262650745422,
2,Block805.xls,B,,,,,,,,,,,,,,,,,,0,1,1,1,,,,,,,,,,,,,,,,,,,,,,,,,,,,,,,,,,,,,,,,,,,,116,B,1,2021_May_25_0925,GazeFlow,2020.1.2,59.94262650745422,
3,Block804.xls,B,4,1,95,95,None,congruent,Right,Right,Left,80,79,1,yellow,2,5,/home/docky/apps/exp/images/80Yi.jpeg,/home/docky/apps/exp/images/79Y.jpeg,0,2,2,2,0,0,0,0,360.6587327889865,None,360.6587327889865,None,1,6.93880366999656,360.6587327889865,None,367.6247567589744,None,367.6247567589744,None,370.1429107519798,None,370.1429107519798,None,1.099507934995927,371.9464938889723,None,371.9464938889723,None,5,1,1.0513117639929987,373.0314695640118,None,373.0314695640118,None,373.0314695640118,None,374.09956584498286,None,1,0.7024345109821297,374.09956584498286,None,26,374.81813419400714,None,116,B,1,2021_May_25_0925,GazeFlow,2020.1.2,59.94262650745422,
3,Block804.xls,B,4,2,107,11,None,incongruent,Left,Right,Left,83,80,3,blue,2,5,/home/docky/apps/exp/images/83Bi.jpeg,/home/docky/apps/exp/images/80B.jpeg,0,2,2,2,0,1,1,1,375.81981268996606,None,375.81981268996606,None,1,5.895074801985174,375.81981268996606,None,381.74908295396017,None,381.74908295396017,None,384.25389464601176,None,384.25389464601176,None,1.233576169994194,386.0561134449672,None,386.0561134449672,None,5,1,1.1856174260028638,387.2756938689854,None,387.2756938689854,None,387.2756938689854,None,388.4778214080143,None,1,0.5839183040079661,388.4778214080143,None,28,389.07870278996415,None,116,B,1,2021_May_25_0925,GazeFlow,2020.1.2,59.94262650745422,
3,Block804.xls,B,4,3,27,27,None,congruent,Right,Right,Left,19,16,3,blue,2,5,/home/docky/apps/exp/images/19Bi.jpeg,/home/docky/apps/exp/images/16B.jpeg,0,2,2,2,0,2,2,2,390.08054600597825,None,390.08054600597825,None,1,4.843950101989321,390.08054600597825,None,394.95803244400304,None,394.95803244400304,None,397.46280575799756,None,397.46280575799756,None,1.3340838169679046,399.26446412096266,None,399.26446412096266,None,5,1,1.2681421649758704,400.5851229740074,None,400.5851229740074,None,400.5851229740074,None,401.87106988800224,None,1,0.6671496059861965,401.87106988800224,None,30,402.5547937799711,None,116,B,1,2021_May_25_0925,GazeFlow,2020.1.2,59.94262650745422,
3,Block804.xls,B,4,4,101,5,None,incongruent,Right,Left,Right,76,79,3,blue,2,6,/home/docky/apps/exp/images/76B.jpeg,/home/docky/apps/exp/images/79Bi.jpeg,0,2,2,2,0,3,3,3,403.55684886401286,None,403.55684886401286,None,1,5.144043097039685,403.55684886401286,None,408.73727532295743,None,408.73727532295743,None,411.2379814219894,None,411.2379814219894,None,1.4008040829794481,413.0425409139716,None,413.0425409139716,None,5,0,1.0520469460170716,414.42860732699046,None,414.42860732699046,None,414.42860732699046,None,415.497077876993,None,1,0.8013070870074444,415.497077876993,None,28,416.314762916998,None,116,B,1,2021_May_25_0925,GazeFlow,2020.1.2,59.94262650745422,
3,Block804.xls,B,4,5,47,47,None,congruent,Right,Right,Left,39,38,1,blue,2,5,/home/docky/apps/exp/images/39Bi.jpeg,/home/docky/apps/exp/images/38B.jpeg,0,2,2,2,0,4,4,4,417.31742236897117,None,417.31742236897117,None,1,5.244114075961988,417.31742236897117,None,422.59716489200946,None,422.59716489200946,None,425.09819896600675,None,425.09819896600675,None,1.1168643760029227,426.9011812999961,None,426.9011812999961,None,5,1,1.1515424200333655,428.0053612079937,None,428.0053612079937,None,428.0053612079937,None,429.1733322979999,None,1,0.7178459800197743,429.1733322979999,None,30,429.90792891400633,None,116,B,1,2021_May_25_0925,GazeFlow,2020.1.2,59.94262650745422,
3,Block804.xls,B,4,6,90,90,None,congruent,Right,Right,Left,77,72,5,yellow,2,5,/home/docky/apps/exp/images/77Yi.jpeg,/home/docky/apps/exp/images/72Y.jpeg,0,2,2,2,0,5,5,5,430.90999027801445,None,430.90999027801445,None,1,5.244700604991522,430.90999027801445,None,436.1888340319856,None,436.1888340319856,None,438.6911273569567,None,438.6911273569567,None,1.2005972480401397,440.49007146200165,None,440.49007146200165,None,5,1,1.0850188879994676,441.68154414900346,None,441.68154414900346,None,441.68154414900346,None,442.78336397896055,None,1,0.83440689597046,442.78336397896055,None,32,443.6346053419984,None,116,B,1,2021_May_25_0925,GazeFlow,2020.1.2,59.94262650745422,
3,Block804.xls,B,4,7,12,12,None,congruent,Left,Left,Right,38,39,1,blue,2,6,/home/docky/apps/exp/images/38B.jpeg,/home/docky/apps/exp/images/39Bi.jpeg,0,2,2,2,0,6,6,6,444.6364356619888,None,444.6364356619888,None,1,7.214960608980618,444.6364356619888,None,451.8882321889978,None,451.8882321889978,None,454.3879280730034,None,454.3879280730034,None,1.6349532039603218,456.1907629930065,None,456.1907629930065,None,6,1,1.2189670380321331,457.8128461649758,None,457.8128461649758,None,457.8128461649758,None,459.0483933039941,None,1,0.6841650590067729,459.0483933039941,None,34,459.7492662339937,None,116,B,1,2021_May_25_0925,GazeFlow,2020.1.2,59.94262650745422,
3,Block804.xls,B,4,8,20,20,None,congruent,Left,Left,Right,76,79,3,blue,2,6,/home/docky/apps/exp/images/76Bi.jpeg,/home/docky/apps/exp/images/79B.jpeg,0,2,2,2,0,7,7,7,460.75140653096605,None,460.75140653096605,None,1,6.263209106982686,460.75140653096605,None,467.0476791859837,None,467.0476791859837,None,469.55113591096597,None,469.55113591096597,None,1.1337541380198672,471.35600227699615,None,471.35600227699615,None,6,1,1.1682792649953626,472.4747928029974,None,472.4747928029974,None,472.4747928029974,None,473.65957518998766,None,1,0.6352550809970126,473.65957518998766,None,36,474.3108609939809,None,116,B,1,2021_May_25_0925,GazeFlow,2020.1.2,59.94262650745422,
3,Block804.xls,B,,,,,,,,,,,,,,,,,,0,2,2,2,,,,,,,,,,,,,,,,,,,,,,,,,,,,,,,,,,,,,,,,,,,,116,B,1,2021_May_25_0925,GazeFlow,2020.1.2,59.94262650745422,
4,Block814.xls,B,14,1,99,3,None,incongruent,Right,Left,Right,65,66,1,blue,2,6,/home/docky/apps/exp/images/35Yi.jpeg,/home/docky/apps/exp/images/66B.jpeg,0,3,3,3,0,0,0,0,493.0485327260103,None,493.0485327260103,None,1,6.837279008002952,493.0485327260103,None,499.9085110799642,None,499.9085110799642,None,502.4339647309971,None,502.4339647309971,None,1.1000526149873622,504.23543469200376,None,504.23543469200376,None,6,1,1.0854341330123134,505.3216672309791,None,505.3216672309791,None,505.3216672309791,None,506.4231265329872,None,1,0.5190256729838438,506.4231265329872,None,38,506.9580497359857,None,116,B,1,2021_May_25_0925,GazeFlow,2020.1.2,59.94262650745422,
4,Block814.xls,B,14,2,34,34,None,congruent,Right,Right,Left,66,65,1,blue,2,5,/home/docky/apps/exp/images/66B.jpeg,/home/docky/apps/exp/images/35Yi.jpeg,0,3,3,3,0,1,1,1,507.95973318698816,None,507.95973318698816,None,1,5.728456854005344,507.95973318698816,None,513.7218395409873,None,513.7218395409873,None,516.226470656984,None,516.226470656984,None,1.0669254299718887,518.0286175599904,None,518.0286175599904,None,5,1,1.1683796299621463,519.0818602750078,None,519.0818602750078,None,519.0818602750078,None,520.2666685729637,None,1,0.6856971000088379,520.2666685729637,None,40,520.9687045270111,None,116,B,1,2021_May_25_0925,GazeFlow,2020.1.2,59.94262650745422,
4,Block814.xls,B,14,3,91,91,None,congruent,Right,Right,Left,77,72,5,yellow,2,5,/home/docky/apps/exp/images/77Yi.jpeg,/home/docky/apps/exp/images/72Y.jpeg,0,3,3,3,0,2,2,2,521.9701559179812,None,521.9701559179812,None,1,5.861987260985188,521.9701559179812,None,527.8640689289896,None,527.8640689289896,None,530.369245762995,None,530.369245762995,None,0.9499954109778628,532.1717759969761,None,532.1717759969761,None,5,1,1.1349344769841991,533.1090273979935,None,533.1090273979935,None,533.1090273979935,None,534.2606376039912,None,1,0.9685301500139758,534.2606376039912,None,42,535.2461443099892,None,116,B,1,2021_May_25_0925,GazeFlow,2020.1.2,59.94262650745422,
4,Block814.xls,B,14,4,68,68,None,congruent,Left,Left,Right,72,77,5,yellow,2,6,/home/docky/apps/exp/images/72Yi.jpeg,/home/docky/apps/exp/images/77Y.jpeg,0,3,3,3,0,3,3,3,536.2477791779675,None,536.2477791779675,None,1,4.743365615024231,536.2477791779675,None,541.0247889760067,None,541.0247889760067,None,543.5298645859584,None,543.5298645859584,None,1.367723036033567,545.3330820359988,None,545.3330820359988,None,6,1,1.018726720008999,546.6853578409646,None,546.6853578409646,None,546.6853578409646,None,547.7203056329745,None,1,0.7345862100482918,547.7203056329745,None,44,548.47154571797,None,116,B,1,2021_May_25_0925,GazeFlow,2020.1.2,59.94262650745422,
4,Block814.xls,B,14,5,66,66,None,congruent,Left,Left,Right,69,76,7,yellow,2,6,/home/docky/apps/exp/images/69Yi.jpeg,/home/docky/apps/exp/images/76Y.jpeg,0,3,3,3,0,4,4,4,549.4735574480146,None,549.4735574480146,None,1,4.82667716499418,549.4735574480146,None,554.3340017689625,None,554.3340017689625,None,556.8375829180004,None,556.8375829180004,None,1.2506982000195421,558.6391960639739,None,558.6391960639739,None,6,1,1.1355639140238054,559.8775382890017,None,559.8775382890017,None,559.8775382890017,None,561.0295170189929,None,1,0.6510667999973521,561.0295170189929,None,46,561.6974454770098,None,116,B,1,2021_May_25_0925,GazeFlow,2020.1.2,59.94262650745422,
4,Block814.xls,B,14,6,115,19,None,incongruent,Left,Right,Left,80,79,1,yellow,2,5,/home/docky/apps/exp/images/80Yi.jpeg,/home/docky/apps/exp/images/79Y.jpeg,0,3,3,3,0,5,5,5,562.6990048519801,None,562.6990048519801,None,1,5.779212330991868,562.6990048519801,None,568.5115732909762,None,568.5115732909762,None,571.0142318899743,None,571.0142318899743,None,1.2507837489829399,572.8196296970127,None,572.8196296970127,None,5,1,1.0683326150174253,574.0551743049873,None,574.0551743049873,None,574.0551743049873,None,575.1400302199763,None,1,0.7014238910051063,575.1400302199763,None,48,575.8580629579956,None,116,B,1,2021_May_25_0925,GazeFlow,2020.1.2,59.94262650745422,
4,Block814.xls,B,14,7,9,9,None,congruent,Left,Left,Right,65,66,1,blue,2,6,/home/docky/apps/exp/images/35Yi.jpeg,/home/docky/apps/exp/images/66B.jpeg,0,3,3,3,0,6,6,6,576.8599323089584,None,576.8599323089584,None,1,5.495195936004166,576.8599323089584,None,582.3886746179778,None,582.3886746179778,None,584.8931747020106,None,584.8931747020106,None,1.033386803988833,586.6968675449607,None,586.6968675449607,None,6,1,1.0519489559810609,587.7149456749903,None,587.7149456749903,None,587.7149456749903,None,588.7832453869632,None,1,0.7686331190052442,588.7832453869632,None,50,589.5685050559696,None,116,B,1,2021_May_25_0925,GazeFlow,2020.1.2,59.94262650745422,
4,Block814.xls,B,14,8,14,14,None,congruent,Left,Left,Right,38,39,1,blue,2,6,/home/docky/apps/exp/images/38Bi.jpeg,/home/docky/apps/exp/images/39B.jpeg,0,3,3,3,0,7,7,7,590.5704751049634,None,590.5704751049634,None,1,5.694976633996703,590.5704751049634,None,596.2988870069967,None,596.2988870069967,None,598.8046944449889,None,598.8046944449889,None,1.2508402399835177,600.6006942169624,None,600.6006942169624,None,5,0,1.0348094170331024,601.8424659270095,None,601.8424659270095,None,601.8424659270095,None,602.8938493119786,None,1,0.6680175410001539,602.8938493119786,None,48,603.5782881439663,None,116,B,1,2021_May_25_0925,GazeFlow,2020.1.2,59.94262650745422,
4,Block814.xls,B,,,,,,,,,,,,,,,,,,0,3,3,3,,,,,,,,,,,,,,,,,,,,,,,,,,,,,,,,,,,,,,,,,,,,116,B,1,2021_May_25_0925,GazeFlow,2020.1.2,59.94262650745422,
5,Block812.xls,B,12,1,18,18,None,congruent,Left,Left,Right,73,76,3,blue,2,6,/home/docky/apps/exp/images/73B.jpeg,/home/docky/apps/exp/images/76Bi.jpeg,0,4,4,4,0,0,0,0,640.7364873579936,None,640.7364873579936,None,1,6.835798849002458,640.7364873579936,None,647.599798634008,None,647.599798634008,None,650.1200426619616,None,650.1200426619616,None,1.082867830991745,651.923701696971,None,651.923701696971,None,6,1,1.0514264149824157,652.9918072459986,None,652.9918072459986,None,652.9918072459986,None,654.0600469699712,None,1,0.8020790169830434,654.0600469699712,None,50,654.8786313529708,None,116,B,1,2021_May_25_0925,GazeFlow,2020.1.2,59.94262650745422,
5,Block812.xls,B,12,2,3,3,None,congruent,Left,Left,Right,16,19,3,blue,2,6,/home/docky/apps/exp/images/16Bi.jpeg,/home/docky/apps/exp/images/19B.jpeg,0,4,4,4,0,1,1,1,655.8802684789989,None,655.8802684789989,None,1,5.678749840008095,655.8802684789989,None,661.5932660080143,None,661.5932660080143,None,664.0950955389999,None,664.0950955389999,None,1.0481823709560558,665.9008207579609,None,665.9008207579609,None,6,1,1.0014409070136026,666.9354768759804,None,666.9354768759804,None,666.9354768759804,None,667.9535534749739,None,1,0.7181521449820139,667.9535534749739,None,52,668.6882861859631,None,116,B,1,2021_May_25_0925,GazeFlow,2020.1.2,59.94262650745422,
5,Block812.xls,B,12,3,56,56,None,congruent,Left,Left,Right,62,65,3,yellow,2,6,/home/docky/apps/exp/images/38Bi.jpeg,/home/docky/apps/exp/images/35B.jpeg,0,4,4,4,0,2,2,2,669.6905224049697,None,669.6905224049697,None,1,5.528353646979667,669.6905224049697,None,675.2522297700052,None,675.2522297700052,None,677.7567916130065,None,677.7567916130065,None,0.8831754520069808,679.5541779649793,None,679.5541779649793,None,6,1,1.151823969965335,680.4283785769949,None,680.4283785769949,None,680.4283785769949,None,681.596629348991,None,1,0.752340295992326,681.596629348991,None,54,682.3653257669648,None,116,B,1,2021_May_25_0925,GazeFlow,2020.1.2,59.94262650745422,
5,Block812.xls,B,12,4,11,11,None,congruent,Left,Left,Right,38,39,1,blue,2,6,/home/docky/apps/exp/images/38B.jpeg,/home/docky/apps/exp/images/39Bi.jpeg,0,4,4,4,0,3,3,3,683.3671496509924,None,683.3671496509924,None,1,6.3298877159832045,683.3671496509924,None,689.7302529430017,None,689.7302529430017,None,692.2350091679837,None,692.2350091679837,None,1.2507665490265936,694.037161684013,None,694.037161684013,None,6,1,1.1690670289681293,695.2736558989855,None,695.2736558989855,None,695.2736558989855,None,696.4592770639574,None,1,0.7679068819852546,696.4592770639574,None,56,697.2440383440116,None,116,B,1,2021_May_25_0925,GazeFlow,2020.1.2,59.94262650745422,
5,Block812.xls,B,12,5,116,20,None,incongruent,Left,Right,Left,35,33,2,yellow,2,5,/home/docky/apps/exp/images/35Yi.jpeg,/home/docky/apps/exp/images/33Y.jpeg,0,4,4,4,0,4,4,4,698.2459020770038,None,698.2459020770038,None,1,4.442356996994931,698.2459020770038,None,702.7221772979829,None,702.7221772979829,None,705.2270474979887,None,705.2270474979887,None,1.0166977040353231,707.0281885240111,None,707.0281885240111,None,5,1,1.2686102479929104,708.0319836799754,None,708.0319836799754,None,708.0319836799754,None,709.3173405599664,None,1,0.7349300479982048,709.3173405599664,None,58,710.06893893698,None,116,B,1,2021_May_25_0925,GazeFlow,2020.1.2,59.94262650745422,
5,Block812.xls,B,12,6,40,40,None,congruent,Right,Right,Left,79,76,3,blue,2,5,/home/docky/apps/exp/images/79Bi.jpeg,/home/docky/apps/exp/images/76B.jpeg,0,4,4,4,0,5,5,5,711.0708550959826,None,711.0708550959826,None,1,4.458967413986102,711.0708550959826,None,715.563746439002,None,715.563746439002,None,718.0663362069754,None,718.0663362069754,None,1.1674628000473604,719.8698168799747,None,719.8698168799747,None,6,0,1.6200106350006536,721.0238045689766,None,721.0238045689766,None,721.0238045689766,None,722.6602133970009,None,1,0.7009733500308357,722.6602133970009,None,56,723.3779271930107,None,116,B,1,2021_May_25_0925,GazeFlow,2020.1.2,59.94262650745422,
5,Block812.xls,B,12,7,76,76,None,congruent,Right,Right,Left,39,38,1,yellow,2,5,/home/docky/apps/exp/images/39Yi.jpeg,/home/docky/apps/exp/images/38Y.jpeg,0,4,4,4,0,6,6,6,724.380165178969,None,724.380165178969,None,1,4.542520369985141,724.380165178969,None,728.9563928009593,None,728.9563928009593,None,731.4613573760143,None,731.4613573760143,None,1.033388418960385,733.2648467720137,None,733.2648467720137,None,5,1,1.0680739620001987,734.2832443870138,None,734.2832443870138,None,734.2832443870138,None,735.3680251929909,None,1,0.7356369869667105,735.3680251929909,None,58,736.1197327509872,None,116,B,1,2021_May_25_0925,GazeFlow,2020.1.2,59.94262650745422,
5,Block812.xls,B,12,8,77,77,None,congruent,Right,Right,Left,39,38,1,yellow,2,5,/home/docky/apps/exp/images/39Y.jpeg,/home/docky/apps/exp/images/38Yi.jpeg,0,4,4,4,0,7,7,7,737.1212066969601,None,737.1212066969601,None,1,4.560130270023365,737.1212066969601,None,741.714867800998,None,741.714867800998,None,744.2236440289998,None,744.2236440289998,None,1.0671215080074035,746.0210291619878,None,746.0210291619878,None,5,1,1.0343756820075214,747.0748733609798,None,747.0748733609798,None,747.0748733609798,None,748.1261215650011,None,1,0.7519922720384784,748.1261215650011,None,60,748.89447336999,None,116,B,1,2021_May_25_0925,GazeFlow,2020.1.2,59.94262650745422,
5,Block812.xls,B,,,,,,,,,,,,,,,,,,0,4,4,4,,,,,,,,,,,,,,,,,,,,,,,,,,,,,,,,,,,,,,,,,,,,116,B,1,2021_May_25_0925,GazeFlow,2020.1.2,59.94262650745422,
6,Block803.xls,B,3,1,84,84,None,congruent,Right,Right,Left,75,69,6,yellow,2,5,/home/docky/apps/exp/images/76Yi.jpeg,/home/docky/apps/exp/images/69Y.jpeg,0,5,5,5,0,0,0,0,769.2866938000079,None,769.2866938000079,None,1,5.215160616033245,769.2866938000079,None,774.5314524649875,None,774.5314524649875,None,777.0526946369791,None,777.0526946369791,None,1.06616759597091,778.8516298779869,None,778.8516298779869,None,5,1,1.8373888279893436,779.9047986220103,None,779.9047986220103,None,779.9047986220103,None,781.7581813259749,None,1,0.8345721589867026,781.7581813259749,None,62,782.6096741000074,None,116,B,1,2021_May_25_0925,GazeFlow,2020.1.2,59.94262650745422,
6,Block803.xls,B,3,2,82,82,None,congruent,Right,Right,Left,66,65,1,yellow,2,5,/home/docky/apps/exp/images/66Y.jpeg,/home/docky/apps/exp/images/35Bi.jpeg,0,5,5,5,0,1,1,1,783.6119110999862,None,783.6119110999862,None,1,5.327100899012294,783.6119110999862,None,788.9730783730047,None,788.9730783730047,None,791.4777198809898,None,791.4777198809898,None,0.9501100619672798,793.2795430209953,None,793.2795430209953,None,5,1,1.185093957989011,794.2160239400109,None,794.2160239400109,None,794.2160239400109,None,795.417709464964,None,1,0.7681909179664217,795.417709464964,None,64,796.2025198169868,None,116,B,1,2021_May_25_0925,GazeFlow,2020.1.2,59.94262650745422,
6,Block803.xls,B,3,3,80,80,None,congruent,Right,Right,Left,66,65,1,yellow,2,5,/home/docky/apps/exp/images/66Yi.jpeg,/home/docky/apps/exp/images/35B.jpeg,0,5,5,5,0,2,2,2,797.2045213159872,None,797.2045213159872,None,1,5.91223696799716,797.2045213159872,None,803.1504909729701,None,803.1504909729701,None,805.6552727940143,None,805.6552727940143,None,1.3010004420066252,807.4515119279968,None,807.4515119279968,None,6,0,1.002568234980572,808.7441125609912,None,808.7441125609912,None,808.7441125609912,None,809.7624536509975,None,1,0.5686037850100547,809.7624536509975,None,62,810.3471003439627,None,116,B,1,2021_May_25_0925,GazeFlow,2020.1.2,59.94262650745422,
6,Block803.xls,B,3,4,79,79,None,congruent,Right,Right,Left,66,65,1,yellow,2,5,/home/docky/apps/exp/images/66Y.jpeg,/home/docky/apps/exp/images/35Bi.jpeg,0,5,5,5,0,3,3,3,811.3488759159809,None,811.3488759159809,None,1,4.175761555961799,811.3488759159809,None,815.5579551130068,None,815.5579551130068,None,818.0614222969743,None,818.0614222969743,None,0.9332568930112757,819.8639286739635,None,819.8639286739635,None,5,1,1.386023108032532,820.7843148139655,None,820.7843148139655,None,820.7843148139655,None,822.1868789129658,None,1,0.7509494199766777,822.1868789129658,None,64,822.9542944550049,None,116,B,1,2021_May_25_0925,GazeFlow,2020.1.2,59.94262650745422,
6,Block803.xls,B,3,5,92,92,None,congruent,Right,Right,Left,77,72,5,yellow,2,5,/home/docky/apps/exp/images/77Y.jpeg,/home/docky/apps/exp/images/72Yi.jpeg,0,5,5,5,0,4,4,4,823.9564155410044,None,823.9564155410044,None,1,5.4280130849801935,823.9564155410044,None,829.4182318520034,None,829.4182318520034,None,831.9212080319994,None,831.9212080319994,None,1.0834530940046534,833.7243076500017,None,833.7243076500017,None,5,1,1.1018222729908302,834.7946218599682,None,834.7946218599682,None,834.7946218599682,None,835.9129349169671,None,1,1.2522991619771346,835.9129349169671,None,66,837.1823068989906,None,116,B,1,2021_May_25_0925,GazeFlow,2020.1.2,59.94262650745422,
6,Block803.xls,B,3,6,106,10,None,incongruent,Left,Right,Left,79,76,3,blue,2,5,/home/docky/apps/exp/images/79Bi.jpeg,/home/docky/apps/exp/images/76B.jpeg,0,5,5,5,0,5,5,5,838.1839856609586,None,838.1839856609586,None,1,4.960447506979108,838.1839856609586,None,843.17842551996,None,843.17842551996,None,845.6810581350001,None,845.6810581350001,None,1.2171544710290618,847.4791015830124,None,847.4791015830124,None,5,1,2.4875294609810226,848.6885060349596,None,848.6885060349596,None,848.6885060349596,None,851.192809241009,None,1,0.601119298953563,851.192809241009,None,68,851.8105794150033,None,116,B,1,2021_May_25_0925,GazeFlow,2020.1.2,59.94262650745422,
6,Block803.xls,B,3,7,25,25,None,congruent,Right,Right,Left,19,16,3,blue,2,5,/home/docky/apps/exp/images/19Bi.jpeg,/home/docky/apps/exp/images/16B.jpeg,0,5,5,5,0,6,6,6,852.8131022769958,None,852.8131022769958,None,1,5.210704703989904,852.8131022769958,None,858.0573415569961,None,858.0573415569961,None,860.5619148439728,None,860.5619148439728,None,1.2170894020237029,862.3636098720017,None,862.3636098720017,None,5,1,1.1019424029509537,863.5673660679604,None,863.5673660679604,None,863.5673660679604,None,864.6861037740018,None,1,0.7174497169908136,864.6861037740018,None,70,865.4203315339983,None,116,B,1,2021_May_25_0925,GazeFlow,2020.1.2,59.94262650745422,
6,Block803.xls,B,3,8,46,46,None,congruent,Right,Right,Left,39,38,1,blue,2,5,/home/docky/apps/exp/images/39B.jpeg,/home/docky/apps/exp/images/38Bi.jpeg,0,5,5,5,0,7,7,7,866.4220685699838,None,866.4220685699838,None,1,5.161610633018427,866.4220685699838,None,871.6153953640023,None,871.6153953640023,None,874.1196956249769,None,874.1196956249769,None,2.0689856149838306,875.9232887219987,None,875.9232887219987,None,5,1,1.3020327070262283,877.9787770810071,None,877.9787770810071,None,877.9787770810071,None,879.2973764199996,None,1,0.7016832779627293,879.2973764199996,None,72,880.0156480869628,None,116,B,1,2021_May_25_0925,GazeFlow,2020.1.2,59.94262650745422,
6,Block803.xls,B,,,,,,,,,,,,,,,,,,0,5,5,5,,,,,,,,,,,,,,,,,,,,,,,,,,,,,,,,,,,,,,,,,,,,116,B,1,2021_May_25_0925,GazeFlow,2020.1.2,59.94262650745422,
7,Block810.xls,B,10,1,119,23,None,incongruent,Left,Right,Left,76,69,7,yellow,2,5,/home/docky/apps/exp/images/76Yi.jpeg,/home/docky/apps/exp/images/69Y.jpeg,0,6,6,6,0,0,0,0,903.8143971919781,None,903.8143971919781,None,1,6.4483558789943345,903.8143971919781,None,910.2890497400076,None,910.2890497400076,None,912.8133138929843,None,912.8133138929843,None,1.0996980700292625,914.6100704459823,None,914.6100704459823,None,5,1,1.285885174991563,915.7017374729621,None,915.7017374729621,None,915.7017374729621,None,917.0041924639954,None,1,0.81787200801773,917.0041924639954,None,74,917.8384698109585,None,116,B,1,2021_May_25_0925,GazeFlow,2020.1.2,59.94262650745422,
7,Block810.xls,B,10,2,43,43,None,congruent,Right,Right,Left,83,80,3,blue,2,5,/home/docky/apps/exp/images/83B.jpeg,/home/docky/apps/exp/images/80Bi.jpeg,0,6,6,6,0,1,1,1,918.8407798359985,None,918.8407798359985,None,1,4.944100905035157,918.8407798359985,None,923.8182864029659,None,923.8182864029659,None,926.32296132599,None,926.32296132599,None,1.0000542740453966,928.1247949819663,None,928.1247949819663,None,5,1,1.051255211001262,929.1114772940055,None,929.1114772940055,None,929.1114772940055,None,930.1793102360098,None,1,0.8191378010087647,930.1793102360098,None,76,931.0148477969924,None,116,B,1,2021_May_25_0925,GazeFlow,2020.1.2,59.94262650745422,
7,Block810.xls,B,10,3,53,53,None,congruent,Left,Left,Right,65,66,1,yellow,2,6,/home/docky/apps/exp/images/35Bi.jpeg,/home/docky/apps/exp/images/66Y.jpeg,0,6,6,6,0,2,2,2,932.0162087079952,None,932.0162087079952,None,1,5.010526560014114,932.0162087079952,None,937.0590343209915,None,937.0590343209915,None,939.5637377959793,None,939.5637377959793,None,1.0836448469781317,941.3666950539919,None,941.3666950539919,None,6,1,1.1016719110193662,942.4371790369623,None,942.4371790369623,None,942.4371790369623,None,943.5554152340046,None,1,0.7530218940228224,943.5554152340046,None,78,944.3235947199864,None,116,B,1,2021_May_25_0925,GazeFlow,2020.1.2,59.94262650745422,
7,Block810.xls,B,10,4,74,74,None,congruent,Right,Right,Left,35,33,2,yellow,2,5,/home/docky/apps/exp/images/35Y.jpeg,/home/docky/apps/exp/images/33Yi.jpeg,0,6,6,6,0,3,3,3,945.3255981099792,None,945.3255981099792,None,1,5.127699812001083,945.3255981099792,None,950.4866137069766,None,950.4866137069766,None,952.9898146080086,None,952.9898146080086,None,1.0487728999578394,954.7949472590117,None,954.7949472590117,None,5,1,1.0682941320119426,955.8298014489701,None,955.8298014489701,None,955.8298014489701,None,956.9145681749796,None,1,0.8516041180118918,956.9145681749796,None,80,957.7831391610089,None,116,B,1,2021_May_25_0925,GazeFlow,2020.1.2,59.94262650745422,
7,Block810.xls,B,10,5,21,21,None,congruent,Left,Left,Right,76,79,3,blue,2,6,/home/docky/apps/exp/images/76B.jpeg,/home/docky/apps/exp/images/79Bi.jpeg,0,6,6,6,0,4,4,4,958.7854397099582,None,958.7854397099582,None,1,6.914600747986697,958.7854397099582,None,965.7330238419818,None,965.7330238419818,None,968.2398406039574,None,968.2398406039574,None,0.9502127710147761,970.0391227999935,None,970.0391227999935,None,6,1,1.1688808579929173,970.9759126770077,None,970.9759126770077,None,970.9759126770077,None,972.1609043519711,None,1,0.7348984889686108,972.1609043519711,None,82,972.9124299139949,None,116,B,1,2021_May_25_0925,GazeFlow,2020.1.2,59.94262650745422,
7,Block810.xls,B,10,6,85,85,None,congruent,Right,Right,Left,75,69,6,yellow,2,5,/home/docky/apps/exp/images/76Y.jpeg,/home/docky/apps/exp/images/69Yi.jpeg,0,6,6,6,0,5,5,5,973.9142274449696,None,973.9142274449696,None,1,6.246658228046726,973.9142274449696,None,980.1941140369745,None,980.1941140369745,None,982.6972852610052,None,982.6972852610052,None,1.333813339995686,984.4949610260082,None,984.4949610260082,None,5,1,1.1192984730005264,985.8213532319642,None,985.8213532319642,None,985.8213532319642,None,986.9567975130049,None,1,0.9685995689942501,986.9567975130049,None,84,987.9413390879636,None,116,B,1,2021_May_25_0925,GazeFlow,2020.1.2,59.94262650745422,
7,Block810.xls,B,10,7,49,49,None,congruent,Left,Left,Right,33,35,2,yellow,2,6,/home/docky/apps/exp/images/33Yi.jpeg,/home/docky/apps/exp/images/35Y.jpeg,0,6,6,6,0,6,6,6,988.943608111993,None,988.943608111993,None,1,6.580128407978918,988.943608111993,None,995.5552888140082,None,995.5552888140082,None,998.0657195349922,None,998.0657195349922,None,0.9667344340123236,999.8640835409751,None,999.8640835409751,None,5,0,1.1183698629611172,1000.8171388930059,None,1000.8171388930059,None,1000.8171388930059,None,1001.9520091069862,None,1,1.0356529879500158,1001.9520091069862,None,82,1003.0040270810132,None,116,B,1,2021_May_25_0925,GazeFlow,2020.1.2,59.94262650745422,
7,Block810.xls,B,10,8,63,63,None,congruent,Left,Left,Right,38,39,1,yellow,2,6,/home/docky/apps/exp/images/38Y.jpeg,/home/docky/apps/exp/images/39Yi.jpeg,0,6,6,6,0,7,7,7,1004.0061661909567,None,1004.0061661909567,None,1,4.709831140993629,1004.0061661909567,None,1008.7498927259585,None,1008.7498927259585,None,1011.2529444909887,None,1011.2529444909887,None,0.9668868749868125,1013.058296158968,None,1013.058296158968,None,6,1,1.0346778120147064,1014.0095060779713,None,1014.0095060779713,None,1014.0095060779713,None,1015.0610069789691,None,1,0.7854442359530367,1015.0610069789691,None,84,1015.8624210949638,None,116,B,1,2021_May_25_0925,GazeFlow,2020.1.2,59.94262650745422,
7,Block810.xls,B,,,,,,,,,,,,,,,,,,0,6,6,6,,,,,,,,,,,,,,,,,,,,,,,,,,,,,,,,,,,,,,,,,,,,116,B,1,2021_May_25_0925,GazeFlow,2020.1.2,59.94262650745422,
8,Block801.xls,B,1,1,1,1,None,congruent,Left,Left,Right,16,19,3,blue,2,6,/home/docky/apps/exp/images/16Bi.jpeg,/home/docky/apps/exp/images/19B.jpeg,0,7,7,7,0,0,0,0,1036.8558300620061,None,1036.8558300620061,None,1,5.4993013959610835,1036.8558300620061,None,1042.3837612759671,None,1042.3837612759671,None,1044.903284472006,None,1044.903284472006,None,0.8993875870364718,1046.706794625963,None,1046.706794625963,None,6,1,0.984801388985943,1047.5913484299672,None,1047.5913484299672,None,1047.5913484299672,None,1048.5927272549598,None,1,0.8520376789965667,1048.5927272549598,None,86,1049.4614931310061,None,116,B,1,2021_May_25_0925,GazeFlow,2020.1.2,59.94262650745422,
8,Block801.xls,B,1,2,105,9,None,incongruent,Left,Right,Left,79,73,6,blue,2,5,/home/docky/apps/exp/images/79B.jpeg,/home/docky/apps/exp/images/73Bi.jpeg,0,7,7,7,0,1,1,1,1050.463183632004,None,1050.463183632004,None,1,4.259069479012396,1050.463183632004,None,1054.7558837310062,None,1054.7558837310062,None,1057.2584990949836,None,1057.2584990949836,None,1.1005247790017165,1059.0618340999936,None,1059.0618340999936,None,5,1,1.018422852968797,1060.149049628002,None,1060.149049628002,None,1060.149049628002,None,1061.1838756639627,None,1,0.7520024189725518,1061.1838756639627,None,88,1061.9524561049766,None,116,B,1,2021_May_25_0925,GazeFlow,2020.1.2,59.94262650745422,
8,Block801.xls,B,1,3,62,62,None,congruent,Left,Left,Right,38,39,1,yellow,2,6,/home/docky/apps/exp/images/38Y.jpeg,/home/docky/apps/exp/images/39Yi.jpeg,0,7,7,7,0,2,2,2,1062.9541343359742,None,1062.9541343359742,None,1,4.894395013980102,1062.9541343359742,None,1067.8819210949587,None,1067.8819210949587,None,1070.3859816080076,None,1070.3859816080076,None,1.1335364760016091,1072.1896748119616,None,1072.1896748119616,None,6,1,1.1016290680272505,1073.3079204150126,None,1073.3079204150126,None,1073.3079204150126,None,1074.4264699699706,None,1,0.7021885520080104,1074.4264699699706,None,90,1075.1447167589795,None,116,B,1,2021_May_25_0925,GazeFlow,2020.1.2,59.94262650745422,
8,Block801.xls,B,1,4,38,38,None,congruent,Right,Right,Left,79,73,6,blue,2,5,/home/docky/apps/exp/images/79B.jpeg,/home/docky/apps/exp/images/73Bi.jpeg,0,7,7,7,0,3,3,3,1076.1462931209826,None,1076.1462931209826,None,1,6.362959554011468,1076.1462931209826,None,1082.5431692280108,None,1082.5431692280108,None,1085.0479609749746,None,1085.0479609749746,None,0.9501536340103485,1086.8515074489987,None,1086.8515074489987,None,5,1,1.3186375409713946,1087.786041587009,None,1087.786041587009,None,1087.786041587009,None,1089.1219701169757,None,1,0.8010746149811894,1089.1219701169757,None,92,1089.939546198002,None,116,B,1,2021_May_25_0925,GazeFlow,2020.1.2,59.94262650745422,
8,Block801.xls,B,1,5,6,6,None,congruent,Left,Left,Right,35,38,3,blue,2,6,/home/docky/apps/exp/images/35Bi.jpeg,/home/docky/apps/exp/images/38B.jpeg,0,7,7,7,0,4,4,4,1090.9416936499765,None,1090.9416936499765,None,1,5.878651926992461,1090.9416936499765,None,1096.854314822005,None,1096.854314822005,None,1099.3588348960038,None,1099.3588348960038,None,0.9500848570023663,1101.1608097429853,None,1101.1608097429853,None,6,1,1.1349124949774705,1102.0971999120084,None,1102.0971999120084,None,1102.0971999120084,None,1103.2488415769767,None,1,0.8849824590142816,1103.2488415769767,None,94,1104.1509498690139,None,116,B,1,2021_May_25_0925,GazeFlow,2020.1.2,59.94262650745422,
8,Block801.xls,B,1,6,51,51,None,congruent,Left,Left,Right,33,35,2,yellow,2,6,/home/docky/apps/exp/images/33Yi.jpeg,/home/docky/apps/exp/images/35Y.jpeg,0,7,7,7,0,5,5,5,1105.1529328039614,None,1105.1529328039614,None,1,5.995226697996259,1105.1529328039614,None,1111.18309283501,None,1111.18309283501,None,1113.686471236986,None,1113.686471236986,None,1.0502279070205986,1115.4837468159967,None,1115.4837468159967,None,6,1,1.1851610529702157,1116.5253571009962,None,1116.5253571009962,None,1116.5253571009962,None,1117.7270631169667,None,1,0.868440271995496,1117.7270631169667,None,96,1118.6119198089582,None,116,B,1,2021_May_25_0925,GazeFlow,2020.1.2,59.94262650745422,
8,Block801.xls,B,1,7,73,73,None,congruent,Right,Right,Left,35,33,2,yellow,2,5,/home/docky/apps/exp/images/35Yi.jpeg,/home/docky/apps/exp/images/33Y.jpeg,0,7,7,7,0,6,6,6,1119.61393020401,None,1119.61393020401,None,1,6.312962293974124,1119.61393020401,None,1125.9591616260004,None,1125.9591616260004,None,1128.46323436097,None,1128.46323436097,None,0.8331496159662493,1130.2672582599916,None,1130.2672582599916,None,5,1,1.1020601249765605,1131.0865982609685,None,1131.0865982609685,None,1131.0865982609685,None,1132.2048609539634,None,1,0.9360972499707714,1132.2048609539634,None,98,1133.1573456859915,None,116,B,1,2021_May_25_0925,GazeFlow,2020.1.2,59.94262650745422,
8,Block801.xls,B,1,8,96,96,None,congruent,Right,Right,Left,80,79,1,yellow,2,5,/home/docky/apps/exp/images/80Yi.jpeg,/home/docky/apps/exp/images/79Y.jpeg,0,7,7,7,0,7,7,7,1134.1586166709894,None,1134.1586166709894,None,1,5.194380955013912,1134.1586166709894,None,1139.3867564189713,None,1139.3867564189713,None,1141.8918961939635,None,1141.8918961939635,None,1.4507155389874242,1143.695215892978,None,1143.695215892978,None,6,0,1.2693060230230913,1145.1306359599694,None,1145.1306359599694,None,1145.1306359599694,None,1146.4163815329666,None,1,0.7509583429782651,1146.4163815329666,None,96,1147.184389194008,None,116,B,1,2021_May_25_0925,GazeFlow,2020.1.2,59.94262650745422,
8,Block801.xls,B,,,,,,,,,,,,,,,,,,0,7,7,7,,,,,,,,,,,,,,,,,,,,,,,,,,,,,,,,,,,,,,,,,,,,116,B,1,2021_May_25_0925,GazeFlow,2020.1.2,59.94262650745422,
9,Block802.xls,B,2,1,30,30,None,congruent,Right,Right,Left,38,35,3,blue,2,5,/home/docky/apps/exp/images/38B.jpeg,/home/docky/apps/exp/images/35Bi.jpeg,0,8,8,8,0,0,0,0,1170.31459158496,None,1170.31459158496,None,1,5.249942897993606,1170.31459158496,None,1175.592456894985,None,1175.592456894985,None,1178.1106802219874,None,1178.1106802219874,None,1.7508656700374559,1179.9154980629683,None,1179.9154980629683,None,5,1,1.786286279966589,1181.6519342159736,None,1181.6519342159736,None,1181.6519342159736,None,1183.4548960629618,None,1,0.734466516005341,1183.4548960629618,None,98,1184.2061745479587,None,116,B,1,2021_May_25_0925,GazeFlow,2020.1.2,59.94262650745422,
9,Block802.xls,B,2,2,5,5,None,congruent,Left,Left,Right,35,38,3,blue,2,6,/home/docky/apps/exp/images/35B.jpeg,/home/docky/apps/exp/images/38Bi.jpeg,0,8,8,8,0,1,1,1,1185.208539937972,None,1185.208539937972,None,1,4.960021053964738,1185.208539937972,None,1190.2022104969947,None,1190.2022104969947,None,1192.7056340209674,None,1192.7056340209674,None,0.9501208150177263,1194.5034671889734,None,1194.5034671889734,None,6,1,1.0181657469947822,1195.4450976829976,None,1195.4450976829976,None,1195.4450976829976,None,1196.4797919899574,None,1,0.7015371519955806,1196.4797919899574,None,100,1197.1986700919806,None,116,B,1,2021_May_25_0925,GazeFlow,2020.1.2,59.94262650745422,
9,Block802.xls,B,2,3,103,7,None,incongruent,Left,Right,Left,19,16,3,blue,2,5,/home/docky/apps/exp/images/19Bi.jpeg,/home/docky/apps/exp/images/16B.jpeg,0,8,8,8,0,2,2,2,1198.2000437320094,None,1198.2000437320094,None,1,4.592884818033781,1198.2000437320094,None,1202.8267165499856,None,1202.8267165499856,None,1205.3297092859866,None,1205.3297092859866,None,0.8999876269954257,1207.1333471479593,None,1207.1333471479593,None,5,1,1.051187184988521,1208.0198320669588,None,1208.0198320669588,None,1208.0198320669588,None,1209.0877611219767,None,1,0.7347090509720147,1209.0877611219767,None,102,1209.8396575800143,None,116,B,1,2021_May_25_0925,GazeFlow,2020.1.2,59.94262650745422,
9,Block802.xls,B,2,4,35,35,None,congruent,Right,Right,Left,66,65,1,blue,2,5,/home/docky/apps/exp/images/66B.jpeg,/home/docky/apps/exp/images/35Yi.jpeg,0,8,8,8,0,3,3,3,1210.8414523929823,None,1210.8414523929823,None,1,6.84749011695385,1210.8414523929823,None,1217.7223659009906,None,1217.7223659009906,None,1220.2257768939598,None,1220.2257768939598,None,1.1003376030130312,1222.0286323250039,None,1222.0286323250039,None,5,1,1.1021651130286045,1223.1155095699942,None,1223.1155095699942,None,1223.1155095699942,None,1224.233762126998,None,1,1.169061079970561,1224.233762126998,None,104,1225.419498695992,None,116,B,1,2021_May_25_0925,GazeFlow,2020.1.2,59.94262650745422,
9,Block802.xls,B,2,5,42,42,None,congruent,Right,Right,Left,83,80,3,blue,2,5,/home/docky/apps/exp/images/83Bi.jpeg,/home/docky/apps/exp/images/80B.jpeg,0,8,8,8,0,4,4,4,1226.4220257929992,None,1226.4220257929992,None,1,5.0271008660201915,1226.4220257929992,None,1231.4823830749956,None,1231.4823830749956,None,1233.9852787749842,None,1233.9852787749842,None,0.9998966580023989,1235.7886108940002,None,1235.7886108940002,None,5,1,1.1182354729971848,1236.775583495968,None,1236.775583495968,None,1236.775583495968,None,1237.910206253,None,1,1.0860900050029159,1237.910206253,None,106,1239.0128244999796,None,116,B,1,2021_May_25_0925,GazeFlow,2020.1.2,59.94262650745422,
9,Block802.xls,B,2,6,104,8,None,incongruent,Left,Right,Left,38,35,3,blue,2,5,/home/docky/apps/exp/images/38B.jpeg,/home/docky/apps/exp/images/35Bi.jpeg,0,8,8,8,0,5,5,5,1240.0148304959876,None,1240.0148304959876,None,1,5.578120513004251,1240.0148304959876,None,1245.6266057289904,None,1245.6266057289904,None,1248.131443872,None,1248.131443872,None,2.1692249280167744,1249.9334098729887,None,1249.9334098729887,None,5,1,1.535857663024217,1252.0886051119887,None,1252.0886051119887,None,1252.0886051119887,None,1253.6407448889804,None,1,0.8187229610048234,1253.6407448889804,None,108,1254.4761772569618,None,116,B,1,2021_May_25_0925,GazeFlow,2020.1.2,59.94262650745422,
9,Block802.xls,B,2,7,22,22,None,congruent,Left,Left,Right,80,83,3,blue,2,6,/home/docky/apps/exp/images/80Bi.jpeg,/home/docky/apps/exp/images/83B.jpeg,0,8,8,8,0,6,6,6,1255.478473169962,None,1255.478473169962,None,1,5.611161987006199,1255.478473169962,None,1261.1208899309859,None,1261.1208899309859,None,1263.628018132993,None,1263.628018132993,None,0.9163349780137651,1265.4247144910041,None,1265.4247144910041,None,6,1,1.1518611119827256,1266.3329178349813,None,1266.3329178349813,None,1266.3329178349813,None,1267.5012779029785,None,1,0.7689353080349974,1267.5012779029785,None,110,1268.2866105719586,None,116,B,1,2021_May_25_0925,GazeFlow,2020.1.2,59.94262650745422,
9,Block802.xls,B,2,8,54,54,None,congruent,Left,Left,Right,65,66,1,yellow,2,6,/home/docky/apps/exp/images/35Bi.jpeg,/home/docky/apps/exp/images/66Y.jpeg,0,8,8,8,0,7,7,7,1269.2885748289991,None,1269.2885748289991,None,1,6.078918776998762,1269.2885748289991,None,1275.4012286110083,None,1275.4012286110083,None,1277.9046507409657,None,1277.9046507409657,None,0.8666022809920833,1279.7066017909674,None,1279.7066017909674,None,6,1,1.168518804013729,1280.560761895962,None,1280.560761895962,None,1280.560761895962,None,1281.7459562749718,None,1,0.9184569680364802,1281.7459562749718,None,112,1282.6807684489759,None,116,B,1,2021_May_25_0925,GazeFlow,2020.1.2,59.94262650745422,
9,Block802.xls,B,,,,,,,,,,,,,,,,,,0,8,8,8,,,,,,,,,,,,,,,,,,,,,,,,,,,,,,,,,,,,,,,,,,,,116,B,1,2021_May_25_0925,GazeFlow,2020.1.2,59.94262650745422,
10,Block813.xls,B,13,1,70,70,None,congruent,Left,Left,Right,79,82,3,yellow,2,6,/home/docky/apps/exp/images/79Yi.jpeg,/home/docky/apps/exp/images/80Y.jpeg,0,9,9,9,0,0,0,0,1302.4881669669994,None,1302.4881669669994,None,1,7.584020428999793,1302.4881669669994,None,1310.0980595789733,None,1310.0980595789733,None,1312.6233180859708,None,1312.6233180859708,None,0.9995438290061429,1314.4042123169638,None,1314.4042123169638,None,6,1,1.2851810589781962,1315.395112668979,None,1315.395112668979,None,1315.395112668979,None,1316.6969508089824,None,1,1.119114414032083,1316.6969508089824,None,114,1317.8327587869717,None,116,B,1,2021_May_25_0925,GazeFlow,2020.1.2,59.94262650745422,
10,Block813.xls,B,13,2,60,60,None,congruent,Left,Left,Right,38,39,1,yellow,2,6,/home/docky/apps/exp/images/38Yi.jpeg,/home/docky/apps/exp/images/39Y.jpeg,0,9,9,9,0,1,1,1,1318.8346883209888,None,1318.8346883209888,None,1,6.1794883570401,1318.8346883209888,None,1325.0476939479704,None,1325.0476939479704,None,1327.5545597780147,None,1327.5545597780147,None,1.267576750018634,1329.353852174012,None,1329.353852174012,None,5,0,1.2862350160139613,1330.60788012197,None,1330.60788012197,None,1330.60788012197,None,1331.910324277007,None,1,0.834775663970504,1331.910324277007,None,112,1332.7615156419924,None,116,B,1,2021_May_25_0925,GazeFlow,2020.1.2,59.94262650745422,
10,Block813.xls,B,13,3,81,81,None,congruent,Right,Right,Left,66,65,1,yellow,2,5,/home/docky/apps/exp/images/66Y.jpeg,/home/docky/apps/exp/images/35Bi.jpeg,0,9,9,9,0,2,2,2,1333.7634541789885,None,1333.7634541789885,None,1,5.377957642020192,1333.7634541789885,None,1339.1778100259835,None,1339.1778100259835,None,1341.6776012989576,None,1341.6776012989576,None,1.01710528699914,1343.475829914969,None,1343.475829914969,None,5,1,1.0681909029954113,1344.4849551789812,None,1344.4849551789812,None,1344.4849551789812,None,1345.5697073999909,None,1,1.035456266021356,1345.5697073999909,None,114,1346.621749828977,None,116,B,1,2021_May_25_0925,GazeFlow,2020.1.2,59.94262650745422,
10,Block813.xls,B,13,4,110,14,None,incongruent,Right,Left,Right,65,66,1,yellow,2,6,/home/docky/apps/exp/images/35B.jpeg,/home/docky/apps/exp/images/66Yi.jpeg,0,9,9,9,0,3,3,3,1347.6237871120102,None,1347.6237871120102,None,1,6.296605009003542,1347.6237871120102,None,1353.9537858819822,None,1353.9537858819822,None,1356.4583600639598,None,1356.4583600639598,None,1.0672955909976736,1358.2593032210134,None,1358.2593032210134,None,5,0,1.1350937790120952,1359.3136846639682,None,1359.3136846639682,None,1359.3136846639682,None,1360.465622216987,None,1,0.951937737991102,1360.465622216987,None,112,1361.4341015619575,None,116,B,1,2021_May_25_0925,GazeFlow,2020.1.2,59.94262650745422,
10,Block813.xls,B,13,5,17,17,None,congruent,Left,Left,Right,73,76,3,blue,2,6,/home/docky/apps/exp/images/73Bi.jpeg,/home/docky/apps/exp/images/76B.jpeg,0,9,9,9,0,4,4,4,1362.4359669960104,None,1362.4359669960104,None,1,4.743488998967223,1362.4359669960104,None,1367.2128348369733,None,1367.2128348369733,None,1369.7155486239935,None,1369.7155486239935,None,0.9667927339905873,1371.513558792998,None,1371.513558792998,None,6,1,1.0848220949992537,1372.4726630779915,None,1372.4726630779915,None,1372.4726630779915,None,1373.5741913759848,None,1,0.8349714099895209,1373.5741913759848,None,114,1374.4260915439809,None,116,B,1,2021_May_25_0925,GazeFlow,2020.1.2,59.94262650745422,
10,Block813.xls,B,13,6,111,15,None,incongruent,Right,Left,Right,62,65,3,yellow,2,6,/home/docky/apps/exp/images/38B.jpeg,/home/docky/apps/exp/images/35Bi.jpeg,0,9,9,9,0,5,5,5,1375.4282479889807,None,1375.4282479889807,None,1,4.592513996001799,1375.4282479889807,None,1380.0571069609723,None,1380.0571069609723,None,1382.5590961279813,None,1382.5590961279813,None,1.7849319170345552,1384.3615033520036,None,1384.3615033520036,None,5,0,1.2352426630095579,1386.1324596829945,None,1386.1324596829945,None,1386.1324596829945,None,1387.3847280959599,None,1,0.8349920960026793,1387.3847280959599,None,112,1388.2356737029622,None,116,B,1,2021_May_25_0925,GazeFlow,2020.1.2,59.94262650745422,
10,Block813.xls,B,13,7,55,55,None,congruent,Left,Left,Right,65,66,1,yellow,2,6,/home/docky/apps/exp/images/35B.jpeg,/home/docky/apps/exp/images/66Yi.jpeg,0,9,9,9,0,6,6,6,1389.2384889799869,None,1389.2384889799869,None,1,4.859586790029425,1389.2384889799869,None,1394.1320530219818,None,1394.1320530219818,None,1396.635267539008,None,1396.635267539008,None,2.152420492959209,1398.434638184961,None,1398.434638184961,None,6,1,1.71951803896809,1400.5773516480112,None,1400.5773516480112,None,1400.5773516480112,None,1402.3136926579755,None,1,0.6179823870188557,1402.3136926579755,None,114,1402.9482274809852,None,116,B,1,2021_May_25_0925,GazeFlow,2020.1.2,59.94262650745422,
10,Block813.xls,B,13,8,26,26,None,congruent,Right,Right,Left,19,16,3,blue,2,5,/home/docky/apps/exp/images/19B.jpeg,/home/docky/apps/exp/images/16Bi.jpeg,0,9,9,9,0,7,7,7,1403.9503284230013,None,1403.9503284230013,None,1,4.809947589994408,1403.9503284230013,None,1408.7938273549662,None,1408.7938273549662,None,1411.2986356960027,None,1411.2986356960027,None,1.1338628660305403,1413.1000322019681,None,1413.1000322019681,None,5,1,1.1858626400353387,1414.2202971809893,None,1414.2202971809893,None,1414.2202971809893,None,1415.4226454669842,None,1,0.8345046330359764,1415.4226454669842,None,116,1416.2741320159985,None,116,B,1,2021_May_25_0925,GazeFlow,2020.1.2,59.94262650745422,
10,Block813.xls,B,,,,,,,,,,,,,,,,,,0,9,9,9,,,,,,,,,,,,,,,,,,,,,,,,,,,,,,,,,,,,,,,,,,,,116,B,1,2021_May_25_0925,GazeFlow,2020.1.2,59.94262650745422,
11,Block806.xls,B,6,1,10,10,None,congruent,Left,Left,Right,65,66,1,blue,2,6,/home/docky/apps/exp/images/35Y.jpeg,/home/docky/apps/exp/images/66Bi.jpeg,0,10,10,10,0,0,0,0,1438.4193843959947,None,1438.4193843959947,None,1,8.7714975119452,1438.4193843959947,None,1447.2250556669896,None,1447.2250556669896,None,1449.7400196059607,None,1449.7400196059607,None,1.0662951470003463,1451.5369826550013,None,1451.5369826550013,None,5,0,1.1182485799654387,1452.5951013009762,None,1452.5951013009762,None,1452.5951013009762,None,1453.7299570610048,None,1,0.8516520709963515,1453.7299570610048,None,114,1454.5980242359801,None,116,B,1,2021_May_25_0925,GazeFlow,2020.1.2,59.94262650745422,
11,Block806.xls,B,6,2,89,89,None,congruent,Right,Right,Left,76,69,7,yellow,2,5,/home/docky/apps/exp/images/76Yi.jpeg,/home/docky/apps/exp/images/69Y.jpeg,0,10,10,10,0,1,1,1,1455.6003643079894,None,1455.6003643079894,None,1,4.475927905994467,1455.6003643079894,None,1460.1099655749858,None,1460.1099655749858,None,1462.6134550849674,None,1462.6134550849674,None,1.1505909439874813,1464.4168317680014,None,1464.4168317680014,None,5,1,1.151658012997359,1465.553686379979,None,1465.553686379979,None,1465.553686379979,None,1466.7221096580033,None,1,1.0182959249941632,1466.7221096580033,None,116,1467.757678550959,None,116,B,1,2021_May_25_0925,GazeFlow,2020.1.2,59.94262650745422,
11,Block806.xls,B,6,3,88,88,None,congruent,Right,Right,Left,76,69,7,yellow,2,5,/home/docky/apps/exp/images/76Y.jpeg,/home/docky/apps/exp/images/69Yi.jpeg,0,10,10,10,0,2,2,2,1468.7595731779584,None,1468.7595731779584,None,1,5.260388655005954,1468.7595731779584,None,1474.0538756629685,None,1474.0538756629685,None,1476.556674686959,None,1476.556674686959,None,0.983392239024397,1478.3605501489947,None,1478.3605501489947,None,5,1,1.118327539996244,1479.3302644059877,None,1479.3302644059877,None,1479.3302644059877,None,1480.465179583989,None,1,0.8855663590366021,1480.465179583989,None,118,1481.3667337349616,None,116,B,1,2021_May_25_0925,GazeFlow,2020.1.2,59.94262650745422,
11,Block806.xls,B,6,4,109,13,None,incongruent,Right,Left,Right,33,35,2,yellow,2,6,/home/docky/apps/exp/images/33Yi.jpeg,/home/docky/apps/exp/images/35Y.jpeg,0,10,10,10,0,3,3,3,1482.3692723129643,None,1482.3692723129643,None,1,5.027179508993868,1482.3692723129643,None,1487.4299853069824,None,1487.4299853069824,None,1489.9348259989638,None,1489.9348259989638,None,1.0667740349890664,1491.7368225129903,None,1491.7368225129903,None,5,0,1.1186441060272045,1492.7898030949873,None,1492.7898030949873,None,1492.7898030949873,None,1493.924759179994,None,1,1.2691086510312743,1493.924759179994,None,116,1495.210545332986,None,116,B,1,2021_May_25_0925,GazeFlow,2020.1.2,59.94262650745422,
11,Block806.xls,B,6,5,37,37,None,congruent,Right,Right,Left,79,73,6,blue,2,5,/home/docky/apps/exp/images/79Bi.jpeg,/home/docky/apps/exp/images/73B.jpeg,0,10,10,10,0,4,4,4,1496.2126123139751,None,1496.2126123139751,None,1,6.981116349983495,1496.2126123139751,None,1503.22882940399,None,1503.22882940399,None,1505.7304932599654,None,1505.7304932599654,None,1.033447651017923,1507.5294494899572,None,1507.5294494899572,None,5,1,1.1683283929596655,1508.5537520759972,None,1508.5537520759972,None,1508.5537520759972,None,1509.7388980329852,None,1,0.8682442760327831,1509.7388980329852,None,118,1510.6237207970116,None,116,B,1,2021_May_25_0925,GazeFlow,2020.1.2,59.94262650745422,
11,Block806.xls,B,6,6,108,12,None,incongruent,Left,Right,Left,39,38,1,blue,2,5,/home/docky/apps/exp/images/39Bi.jpeg,/home/docky/apps/exp/images/38B.jpeg,0,10,10,10,0,5,5,5,1511.6257141379756,None,1511.6257141379756,None,1,4.9772812140290625,1511.6257141379756,None,1516.6366416370147,None,1516.6366416370147,None,1519.1400218689814,None,1519.1400218689814,None,0.9000176549889147,1520.9426857979852,None,1520.9426857979852,None,5,1,1.0682759669725783,1521.8292944279965,None,1521.8292944279965,None,1521.8292944279965,None,1522.9140527119744,None,1,1.1026989870006219,1522.9140527119744,None,120,1524.0330860539689,None,116,B,1,2021_May_25_0925,GazeFlow,2020.1.2,59.94262650745422,
11,Block806.xls,B,6,7,52,52,None,congruent,Left,Left,Right,65,66,1,yellow,2,6,/home/docky/apps/exp/images/35B.jpeg,/home/docky/apps/exp/images/66Yi.jpeg,0,10,10,10,0,6,6,6,1525.0350869050017,None,1525.0350869050017,None,1,5.461378180014435,1525.0350869050017,None,1530.5303591139964,None,1530.5303591139964,None,1533.0334084189963,None,1533.0334084189963,None,1.384581424004864,1534.836581335985,None,1534.836581335985,None,5,0,1.085777260013856,1536.2074713640031,None,1536.2074713640031,None,1536.2074713640031,None,1537.3090014259797,None,1,0.8519883290282451,1537.3090014259797,None,118,1538.1774864509935,None,116,B,1,2021_May_25_0925,GazeFlow,2020.1.2,59.94262650745422,
11,Block806.xls,B,6,8,75,75,None,congruent,Right,Right,Left,35,33,2,yellow,2,5,/home/docky/apps/exp/images/35Yi.jpeg,/home/docky/apps/exp/images/33Y.jpeg,0,10,10,10,0,7,7,7,1539.1794990630005,None,1539.1794990630005,None,1,4.692973790981341,1539.1794990630005,None,1543.9063964500092,None,1543.9063964500092,None,1546.4147936609806,None,1546.4147936609806,None,0.9833547720336355,1548.2129554479616,None,1548.2129554479616,None,5,1,1.0015336479991674,1549.182557903987,None,1549.182557903987,None,1549.182557903987,None,1550.200651563995,None,1,1.0188548560254276,1550.200651563995,None,120,1551.236150548968,None,116,B,1,2021_May_25_0925,GazeFlow,2020.1.2,59.94262650745422,
11,Block806.xls,B,,,,,,,,,,,,,,,,,,0,10,10,10,,,,,,,,,,,,,,,,,,,,,,,,,,,,,,,,,,,,,,,,,,,,116,B,1,2021_May_25_0925,GazeFlow,2020.1.2,59.94262650745422,
12,Block811.xls,B,11,1,86,86,None,congruent,Right,Right,Left,75,69,6,yellow,2,5,/home/docky/apps/exp/images/76Y.jpeg,/home/docky/apps/exp/images/69Yi.jpeg,0,11,11,11,0,0,0,0,1572.429078238958,None,1572.429078238958,None,1,4.861888031999115,1572.429078238958,None,1577.3172667190083,None,1577.3172667190083,None,1579.841262516973,None,1579.841262516973,None,1.0164512380142696,1581.6258210919914,None,1581.6258210919914,None,5,1,1.1850986100034788,1582.6310207039933,None,1582.6310207039933,None,1582.6310207039933,None,1583.8329663649783,None,1,0.8184965919936076,1583.8329663649783,None,122,1584.667704440013,None,116,B,1,2021_May_25_0925,GazeFlow,2020.1.2,59.94262650745422,
12,Block811.xls,B,11,2,83,83,None,congruent,Right,Right,Left,75,69,6,yellow,2,5,/home/docky/apps/exp/images/76Yi.jpeg,/home/docky/apps/exp/images/69Y.jpeg,0,11,11,11,0,1,1,1,1585.6697474959656,None,1585.6697474959656,None,1,3.975426246004645,1585.6697474959656,None,1589.6786548639648,None,1589.6786548639648,None,1592.181565656967,None,1592.181565656967,None,1.0502593929995783,1593.9871639710036,None,1593.9871639710036,None,5,1,1.0850390690029599,1595.0217144599883,None,1595.0217144599883,None,1595.0217144599883,None,1596.123185859993,None,1,0.8184724220191129,1596.123185859993,None,124,1596.9581778600113,None,116,B,1,2021_May_25_0925,GazeFlow,2020.1.2,59.94262650745422,
12,Block811.xls,B,11,3,28,28,None,congruent,Right,Right,Left,38,35,3,blue,2,5,/home/docky/apps/exp/images/38Bi.jpeg,/home/docky/apps/exp/images/35B.jpeg,0,11,11,11,0,2,2,2,1597.9606229419587,None,1597.9606229419587,None,1,4.4258663459913805,1597.9606229419587,None,1602.4197341299732,None,1602.4197341299732,None,1604.9233208670048,None,1604.9233208670048,None,1.1335612090188079,1606.7282924869796,None,1606.7282924869796,None,5,1,1.1015726019977592,1607.8467047439772,None,1607.8467047439772,None,1607.8467047439772,None,1608.964832158992,None,1,0.8016555520007387,1608.964832158992,None,126,1609.783295781992,None,116,B,1,2021_May_25_0925,GazeFlow,2020.1.2,59.94262650745422,
12,Block811.xls,B,11,4,58,58,None,congruent,Left,Left,Right,62,65,3,yellow,2,6,/home/docky/apps/exp/images/38B.jpeg,/home/docky/apps/exp/images/35Bi.jpeg,0,11,11,11,0,3,3,3,1610.7849731309689,None,1610.7849731309689,None,1,4.643199047015514,1610.7849731309689,None,1615.4657310649636,None,1615.4657310649636,None,1617.9667120339582,None,1617.9667120339582,None,1.0501644359901547,1619.768496153003,None,1619.768496153003,None,6,1,1.101801312994212,1620.8052330790088,None,1620.8052330790088,None,1620.8052330790088,None,1621.9233767229598,None,1,0.7525047590024769,1621.9233767229598,None,128,1622.691944126971,None,116,B,1,2021_May_25_0925,GazeFlow,2020.1.2,59.94262650745422,
12,Block811.xls,B,11,5,32,32,None,congruent,Right,Right,Left,66,65,1,blue,2,5,/home/docky/apps/exp/images/66Bi.jpeg,/home/docky/apps/exp/images/35Y.jpeg,0,11,11,11,0,4,4,4,1623.6940664869617,None,1623.6940664869617,None,1,4.759444566036109,1623.6940664869617,None,1628.4877366249566,None,1628.4877366249566,None,1630.9852933670045,None,1630.9852933670045,None,1.067005155957304,1632.7941716429777,None,1632.7941716429777,None,5,1,0.951310486998409,1633.8471884849714,None,1633.8471884849714,None,1633.8471884849714,None,1634.8150019280147,None,1,0.7192109719617292,1634.8150019280147,None,130,1635.5505878189579,None,116,B,1,2021_May_25_0925,GazeFlow,2020.1.2,59.94262650745422,
12,Block811.xls,B,11,6,67,67,None,congruent,Left,Left,Right,72,77,5,yellow,2,6,/home/docky/apps/exp/images/72Y.jpeg,/home/docky/apps/exp/images/77Yi.jpeg,0,11,11,11,0,5,5,5,1636.5518306489685,None,1636.5518306489685,None,1,4.659964491031133,1636.5518306489685,None,1641.2471116799861,None,1641.2471116799861,None,1643.7503158419859,None,1643.7503158419859,None,1.0837855329737067,1645.5471537680132,None,1645.5471537680132,None,6,1,1.1183895469876006,1646.6218431409798,None,1646.6218431409798,None,1646.6218431409798,None,1647.7568280149717,None,1,0.8183743419940583,1647.7568280149717,None,132,1648.5918680879986,None,116,B,1,2021_May_25_0925,GazeFlow,2020.1.2,59.94262650745422,
12,Block811.xls,B,11,7,120,24,None,incongruent,Left,Right,Left,77,72,5,yellow,2,5,/home/docky/apps/exp/images/77Y.jpeg,/home/docky/apps/exp/images/72Yi.jpeg,0,11,11,11,0,6,6,6,1649.5936718109879,None,1649.5936718109879,None,1,7.5822218469693325,1649.5936718109879,None,1657.209733030002,None,1657.209733030002,None,1659.712574928999,None,1659.712574928999,None,1.1672407169826329,1661.5119321399834,None,1661.5119321399834,None,5,1,1.0012173170107417,1662.6698142900132,None,1662.6698142900132,None,1662.6698142900132,None,1663.6877425769926,None,1,0.7360073490417562,1663.6877425769926,None,134,1664.4397527310066,None,116,B,1,2021_May_25_0925,GazeFlow,2020.1.2,59.94262650745422,
12,Block811.xls,B,11,8,57,57,None,congruent,Left,Left,Right,62,65,3,yellow,2,6,/home/docky/apps/exp/images/38Bi.jpeg,/home/docky/apps/exp/images/35B.jpeg,0,11,11,11,0,7,7,7,1665.4411933340016,None,1665.4411933340016,None,1,4.910661614034325,1665.4411933340016,None,1670.3854465709883,None,1670.3854465709883,None,1672.890122641984,None,1672.890122641984,None,1.03348400502,1674.69169529801,None,1674.69169529801,None,6,1,1.0349422679864801,1675.7117524719797,None,1675.7117524719797,None,1675.7117524719797,None,1676.7631906719762,None,1,0.8022888129926287,1676.7631906719762,None,136,1677.5819593619672,None,116,B,1,2021_May_25_0925,GazeFlow,2020.1.2,59.94262650745422,
12,Block811.xls,B,,,,,,,,,,,,,,,,,,0,11,11,11,,,,,,,,,,,,,,,,,,,,,,,,,,,,,,,,,,,,,,,,,,,,116,B,1,2021_May_25_0925,GazeFlow,2020.1.2,59.94262650745422,
13,Block808.xls,B,8,1,118,22,None,incongruent,Left,Right,Left,75,69,6,yellow,2,5,/home/docky/apps/exp/images/76Y.jpeg,/home/docky/apps/exp/images/69Yi.jpeg,0,12,12,12,0,0,0,0,1702.6821287740022,None,1702.6821287740022,None,1,5.7684629909927025,1702.6821287740022,None,1708.4733108159853,None,1708.4733108159853,None,1710.9973353339592,None,1710.9973353339592,None,1.0495233529945835,1712.8012473710114,None,1712.8012473710114,None,5,1,1.2184229920385405,1713.8362687350018,None,1713.8362687350018,None,1713.8362687350018,None,1715.0708781799767,None,1,0.9518578379647806,1715.0708781799767,None,138,1716.0395369689795,None,116,B,1,2021_May_25_0925,GazeFlow,2020.1.2,59.94262650745422,
13,Block808.xls,B,8,2,7,7,None,congruent,Left,Left,Right,65,66,1,blue,2,6,/home/docky/apps/exp/images/35Yi.jpeg,/home/docky/apps/exp/images/66B.jpeg,0,12,12,12,0,1,1,1,1717.0416249079863,None,1717.0416249079863,None,1,5.027432894974481,1717.0416249079863,None,1722.1023751499597,None,1722.1023751499597,None,1724.6055198810063,None,1724.6055198810063,None,0.8665988750290126,1726.4084468570072,None,1726.4084468570072,None,6,1,1.2353798940312117,1727.2620168579742,None,1727.2620168579742,None,1727.2620168579742,None,1728.5137883760035,None,1,0.7688866819953546,1728.5137883760035,None,140,1729.2991178169614,None,116,B,1,2021_May_25_0925,GazeFlow,2020.1.2,59.94262650745422,
13,Block808.xls,B,8,3,112,16,None,incongruent,Right,Left,Right,69,76,7,yellow,2,6,/home/docky/apps/exp/images/69Yi.jpeg,/home/docky/apps/exp/images/76Y.jpeg,0,12,12,12,0,2,2,2,1730.3007638420095,None,1730.3007638420095,None,1,6.7139070489793085,1730.3007638420095,None,1737.0481664509862,None,1737.0481664509862,None,1739.5518222620012,None,1739.5518222620012,None,1.0834473190479912,1741.3567834050045,None,1741.3567834050045,None,6,1,1.1858880700310692,1742.4249850419583,None,1742.4249850419583,None,1742.4249850419583,None,1743.626718401967,None,1,0.8515551330056041,1743.626718401967,None,142,1744.495135021978,None,116,B,1,2021_May_25_0925,GazeFlow,2020.1.2,59.94262650745422,
13,Block808.xls,B,8,4,97,1,None,incongruent,Right,Left,Right,16,19,3,blue,2,6,/home/docky/apps/exp/images/16Bi.jpeg,/home/docky/apps/exp/images/19B.jpeg,0,12,12,12,0,3,3,3,1745.4968273859704,None,1745.4968273859704,None,1,5.37806959298905,1745.4968273859704,None,1750.9082117479993,None,1750.9082117479993,None,1753.4118069380056,None,1753.4118069380056,None,1.3341687580104917,1755.2144446030143,None,1755.2144446030143,None,6,1,1.285076542000752,1756.5356364289764,None,1756.5356364289764,None,1756.5356364289764,None,1757.8382509099902,None,1,0.6337340519530699,1757.8382509099902,None,144,1758.4885939969681,None,116,B,1,2021_May_25_0925,GazeFlow,2020.1.2,59.94262650745422,
13,Block808.xls,B,8,5,24,24,None,congruent,Left,Left,Right,80,83,3,blue,2,6,/home/docky/apps/exp/images/80Bi.jpeg,/home/docky/apps/exp/images/83B.jpeg,0,12,12,12,0,4,4,4,1759.4907116150134,None,1759.4907116150134,None,1,4.710152230982203,1759.4907116150134,None,1764.2351646939642,None,1764.2351646939642,None,1766.7386794149643,None,1766.7386794149643,None,0.9332465720362961,1768.536192219006,None,1768.536192219006,None,6,1,1.2186525709694251,1769.4606117539806,None,1769.4606117539806,None,1769.4606117539806,None,1770.6960345290136,None,1,0.8016952199977823,1770.6960345290136,None,146,1771.5140323649975,None,116,B,1,2021_May_25_0925,GazeFlow,2020.1.2,59.94262650745422,
13,Block808.xls,B,8,6,13,13,None,congruent,Left,Left,Right,38,39,1,blue,2,6,/home/docky/apps/exp/images/38Bi.jpeg,/home/docky/apps/exp/images/39B.jpeg,0,12,12,12,0,5,5,5,1772.5160206599976,None,1772.5160206599976,None,1,5.277845778968185,1772.5160206599976,None,1777.827511099982,None,1777.827511099982,None,1780.3305495799868,None,1780.3305495799868,None,1.0668732600170188,1782.135720168997,None,1782.135720168997,None,5,0,1.3863175950245932,1783.1873788000084,None,1783.1873788000084,None,1783.1873788000084,None,1784.5899195219972,None,1,0.7843887109775096,1784.5899195219972,None,144,1785.3908076770022,None,116,B,1,2021_May_25_0925,GazeFlow,2020.1.2,59.94262650745422,
13,Block808.xls,B,8,7,8,8,None,congruent,Left,Left,Right,65,66,1,blue,2,6,/home/docky/apps/exp/images/35Y.jpeg,/home/docky/apps/exp/images/66Bi.jpeg,0,12,12,12,0,6,6,6,1786.3926981799887,None,1786.3926981799887,None,1,4.493315535015427,1786.3926981799887,None,1790.9195103690145,None,1790.9195103690145,None,1793.4223196539679,None,1793.4223196539679,None,2.4367189130280167,1795.225416606001,None,1795.225416606001,None,6,1,1.353075459948741,1797.6644235010026,None,1797.6644235010026,None,1797.6644235010026,None,1799.0341614650097,None,1,0.6850205049850047,1799.0341614650097,None,146,1799.7353768359753,None,116,B,1,2021_May_25_0925,GazeFlow,2020.1.2,59.94262650745422,
13,Block808.xls,B,8,8,31,31,None,congruent,Right,Right,Left,66,65,1,blue,2,5,/home/docky/apps/exp/images/66B.jpeg,/home/docky/apps/exp/images/35Yi.jpeg,0,12,12,12,0,7,7,7,1800.7380673689768,None,1800.7380673689768,None,1,5.243568040954415,1800.7380673689768,None,1806.015476800967,None,1806.015476800967,None,1808.5204538700054,None,1808.5204538700054,None,0.8828052100143395,1810.3217003630125,None,1810.3217003630125,None,5,1,0.9679494960000739,1811.191824761976,None,1811.191824761976,None,1811.191824761976,None,1812.176401033008,None,1,0.7347996039898135,1812.176401033008,None,148,1812.9280833069934,None,116,B,1,2021_May_25_0925,GazeFlow,2020.1.2,59.94262650745422,
13,Block808.xls,B,,,,,,,,,,,,,,,,,,0,12,12,12,,,,,,,,,,,,,,,,,,,,,,,,,,,,,,,,,,,,,,,,,,,,116,B,1,2021_May_25_0925,GazeFlow,2020.1.2,59.94262650745422,
14,Block815.xls,B,15,1,65,65,None,congruent,Left,Left,Right,69,76,7,yellow,2,6,/home/docky/apps/exp/images/69Yi.jpeg,/home/docky/apps/exp/images/76Y.jpeg,0,13,13,13,0,0,0,0,1838.0283574709902,None,1838.0283574709902,None,1,6.3878586160135455,1838.0283574709902,None,1844.4414789300063,None,1844.4414789300063,None,1846.9616483999998,None,1846.9616483999998,None,0.7489873340236954,1848.765429475985,None,1848.765429475985,None,6,1,1.2352085640304722,1849.4995022999938,None,1849.4995022999938,None,1849.4995022999938,None,1850.751532898983,None,1,0.9525716680218466,1850.751532898983,None,150,1851.7199515170068,None,116,B,1,2021_May_25_0925,GazeFlow,2020.1.2,59.94262650745422,
14,Block815.xls,B,15,2,102,6,None,incongruent,Right,Left,Right,80,83,3,blue,2,6,/home/docky/apps/exp/images/80B.jpeg,/home/docky/apps/exp/images/83Bi.jpeg,0,13,13,13,0,1,1,1,1852.721941633965,None,1852.721941633965,None,1,5.494893792027142,1852.721941633965,None,1858.2504734229879,None,1858.2504734229879,None,1860.7550031109713,None,1860.7550031109713,None,1.1835455460241064,1862.5523145339685,None,1862.5523145339685,None,6,1,1.3197373959701508,1863.7270338449744,None,1863.7270338449744,None,1863.7270338449744,None,1865.0628910840023,None,1,0.8181264799786732,1865.0628910840023,None,152,1865.8974749129848,None,116,B,1,2021_May_25_0925,GazeFlow,2020.1.2,59.94262650745422,
14,Block815.xls,B,15,3,33,33,None,congruent,Right,Right,Left,66,65,1,blue,2,5,/home/docky/apps/exp/images/66Bi.jpeg,/home/docky/apps/exp/images/35Y.jpeg,0,13,13,13,0,2,2,2,1866.8994808499701,None,1866.8994808499701,None,1,4.543089115002658,1866.8994808499701,None,1871.4761551299598,None,1871.4761551299598,None,1873.9803987719934,None,1873.9803987719934,None,1.2175115530262701,1875.7814656139817,None,1875.7814656139817,None,6,0,1.319090035976842,1876.986309911008,None,1876.986309911008,None,1876.986309911008,None,1878.3219873050111,None,1,0.7677001809934154,1878.3219873050111,None,150,1879.1063023440074,None,116,B,1,2021_May_25_0925,GazeFlow,2020.1.2,59.94262650745422,
14,Block815.xls,B,15,4,72,72,None,congruent,Left,Left,Right,79,82,3,yellow,2,6,/home/docky/apps/exp/images/79Yi.jpeg,/home/docky/apps/exp/images/80Y.jpeg,0,13,13,13,0,3,3,3,1880.1082835149718,None,1880.1082835149718,None,1,3.8085839269915596,1880.1082835149718,None,1883.950483757013,None,1883.950483757013,None,1886.4579896159703,None,1886.4579896159703,None,0.9333150589955039,1888.2572393349838,None,1888.2572393349838,None,6,1,1.0848694400046952,1889.1765366990003,None,1889.1765366990003,None,1889.1765366990003,None,1890.2779702540138,None,1,0.7855942879687063,1890.2779702540138,None,152,1891.0800347339828,None,116,B,1,2021_May_25_0925,GazeFlow,2020.1.2,59.94262650745422,
14,Block815.xls,B,15,5,100,4,None,incongruent,Right,Left,Right,73,76,3,blue,2,6,/home/docky/apps/exp/images/73B.jpeg,/home/docky/apps/exp/images/76Bi.jpeg,0,13,13,13,0,4,4,4,1892.0815013009706,None,1892.0815013009706,None,1,4.676321927981917,1892.0815013009706,None,1896.7917396610137,None,1896.7917396610137,None,1899.295286442968,None,1899.295286442968,None,1.2335933879949152,1901.100561216008,None,1901.100561216008,None,5,0,1.1189963599899784,1902.3185986179742,None,1902.3185986179742,None,1902.3185986179742,None,1903.4541887509986,None,1,0.6839754799730144,1903.4541887509986,None,150,1904.1550415260135,None,116,B,1,2021_May_25_0925,GazeFlow,2020.1.2,59.94262650745422,
14,Block815.xls,B,15,6,45,45,None,congruent,Right,Right,Left,39,38,1,blue,2,5,/home/docky/apps/exp/images/39B.jpeg,/home/docky/apps/exp/images/38Bi.jpeg,0,13,13,13,0,5,5,5,1905.156783667975,None,1905.156783667975,None,1,4.576783390017226,1905.156783667975,None,1909.7670369689586,None,1909.7670369689586,None,1912.2716445939732,None,1912.2716445939732,None,1.000089010980446,1914.0737751040142,None,1914.0737751040142,None,6,0,1.0017430490115657,1915.0601192959584,None,1915.0601192959584,None,1915.0601192959584,None,1916.0782310009818,None,1,0.7352456240332685,1916.0782310009818,None,148,1916.8295451049926,None,116,B,1,2021_May_25_0925,GazeFlow,2020.1.2,59.94262650745422,
14,Block815.xls,B,15,7,98,2,None,incongruent,Right,Left,Right,35,38,3,blue,2,6,/home/docky/apps/exp/images/35Bi.jpeg,/home/docky/apps/exp/images/38B.jpeg,0,13,13,13,0,6,6,6,1917.832118213002,None,1917.832118213002,None,1,4.225084463017993,1917.832118213002,None,1922.0895372169907,None,1922.0895372169907,None,1924.5940930919605,None,1924.5940930919605,None,2.4200841049896553,1926.3974350849749,None,1926.3974350849749,None,6,1,0.9674796450417489,1928.8209492730093,None,1928.8209492730093,None,1928.8209492730093,None,1929.8046227939776,None,1,0.7525444810162298,1929.8046227939776,None,150,1930.5730532350135,None,116,B,1,2021_May_25_0925,GazeFlow,2020.1.2,59.94262650745422,
14,Block815.xls,B,15,8,59,59,None,congruent,Left,Left,Right,38,39,1,yellow,2,6,/home/docky/apps/exp/images/38Yi.jpeg,/home/docky/apps/exp/images/39Y.jpeg,0,13,13,13,0,7,7,7,1931.575492531003,None,1931.575492531003,None,1,4.7928195699932985,1931.575492531003,None,1936.401952361979,None,1936.401952361979,None,1938.9055737669696,None,1938.9055737669696,None,1.2840156150050461,1940.707912590995,None,1940.707912590995,None,6,1,1.2190471119829454,1941.9791559400037,None,1941.9791559400037,None,1941.9791559400037,None,1943.2146277789725,None,1,0.7509279900114052,1943.2146277789725,None,152,1943.982645843993,None,116,B,1,2021_May_25_0925,GazeFlow,2020.1.2,59.94262650745422,
14,Block815.xls,B,,,,,,,,,,,,,,,,,,0,13,13,13,,,,,,,,,,,,,,,,,,,,,,,,,,,,,,,,,,,,,,,,,,,,116,B,1,2021_May_25_0925,GazeFlow,2020.1.2,59.94262650745422,
15,Block807.xls,B,7,1,71,71,None,congruent,Left,Left,Right,79,82,3,yellow,2,6,/home/docky/apps/exp/images/79Y.jpeg,/home/docky/apps/exp/images/80Yi.jpeg,0,14,14,14,0,0,0,0,1966.5621476239758,None,1966.5621476239758,None,1,7.318616631033365,1966.5621476239758,None,1973.913598751009,None,1973.913598751009,None,1976.4305320240092,None,1976.4305320240092,None,1.550496520998422,1978.2333540149848,None,1978.2333540149848,None,6,1,1.3692585779936053,1979.7694195850054,None,1979.7694195850054,None,1979.7694195850054,None,1981.1551415869617,None,1,0.7007705610012636,1981.1551415869617,None,154,1981.8726393010002,None,116,B,1,2021_May_25_0925,GazeFlow,2020.1.2,59.94262650745422,
15,Block807.xls,B,7,2,44,44,None,congruent,Right,Right,Left,83,80,3,blue,2,5,/home/docky/apps/exp/images/83Bi.jpeg,/home/docky/apps/exp/images/80B.jpeg,0,14,14,14,0,1,1,1,1982.8748463490047,None,1982.8748463490047,None,1,4.37559314200189,1982.8748463490047,None,1987.2823521170067,None,1987.2823521170067,None,1989.7873851910117,None,1989.7873851910117,None,0.9167060449835844,1991.5855947840028,None,1991.5855947840028,None,5,1,1.1018431829870678,1992.4937465089606,None,1992.4937465089606,None,1992.4937465089606,None,1993.6121604449581,None,1,0.9023543310468085,1993.6121604449581,None,156,1994.5303194549633,None,116,B,1,2021_May_25_0925,GazeFlow,2020.1.2,59.94262650745422,
15,Block807.xls,B,7,3,48,48,None,congruent,Right,Right,Left,39,38,1,blue,2,5,/home/docky/apps/exp/images/39Bi.jpeg,/home/docky/apps/exp/images/38B.jpeg,0,14,14,14,0,2,2,2,1995.5328003100003,None,1995.5328003100003,None,1,4.993318421998993,1995.5328003100003,None,2000.5601618429646,None,2000.5601618429646,None,2003.0648523700074,None,2003.0648523700074,None,0.9332844120217487,2004.8685088219936,None,2004.8685088219936,None,5,1,1.0349391819909215,2005.7865096720052,None,2005.7865096720052,None,2005.7865096720052,None,2006.8380572889582,None,1,0.7682695530238561,2006.8380572889582,None,158,2007.6229080749908,None,116,B,1,2021_May_25_0925,GazeFlow,2020.1.2,59.94262650745422,
15,Block807.xls,B,7,4,113,17,None,incongruent,Right,Left,Right,72,77,5,yellow,2,6,/home/docky/apps/exp/images/72Yi.jpeg,/home/docky/apps/exp/images/77Y.jpeg,0,14,14,14,0,3,3,3,2008.6245997470105,None,2008.6245997470105,None,1,4.29244208795717,2008.6245997470105,None,2012.9521606919589,None,2012.9521606919589,None,2015.4590744709712,None,2015.4590744709712,None,0.9166767729911953,2017.2571436419967,None,2017.2571436419967,None,6,1,1.0181705659488216,2018.1605054679676,None,2018.1605054679676,None,2018.1605054679676,None,2019.1950888209976,None,1,0.7188271140330471,2019.1950888209976,None,160,2019.9304706549738,None,116,B,1,2021_May_25_0925,GazeFlow,2020.1.2,59.94262650745422,
15,Block807.xls,B,7,5,69,69,None,congruent,Left,Left,Right,72,77,5,yellow,2,6,/home/docky/apps/exp/images/72Y.jpeg,/home/docky/apps/exp/images/77Yi.jpeg,0,14,14,14,0,4,4,4,2020.9319510550122,None,2020.9319510550122,None,1,3.590867245977279,2020.9319510550122,None,2024.5568242789595,None,2024.5568242789595,None,2027.0672901250073,None,2027.0672901250073,None,0.8836152290459722,2028.863406909979,None,2028.863406909979,None,6,1,0.9514436770114116,2029.7328830700135,None,2029.7328830700135,None,2029.7328830700135,None,2030.700867904001,None,1,0.7852161859627813,2030.700867904001,None,162,2031.5021798469825,None,116,B,1,2021_May_25_0925,GazeFlow,2020.1.2,59.94262650745422,
15,Block807.xls,B,7,6,39,39,None,congruent,Right,Right,Left,79,76,3,blue,2,5,/home/docky/apps/exp/images/79B.jpeg,/home/docky/apps/exp/images/76Bi.jpeg,0,14,14,14,0,5,5,5,2032.5042888759635,None,2032.5042888759635,None,1,4.142234262020793,2032.5042888759635,None,2036.6803206700133,None,2036.6803206700133,None,2039.1830710489885,None,2039.1830710489885,None,0.7664114180370234,2040.9858995599789,None,2040.9858995599789,None,5,1,1.0683141949702986,2041.7394268549979,None,2041.7394268549979,None,2041.7394268549979,None,2042.8242600120138,None,1,0.8859757329919375,2042.8242600120138,None,164,2043.7267817189568,None,116,B,1,2021_May_25_0925,GazeFlow,2020.1.2,59.94262650745422,
15,Block807.xls,B,7,7,50,50,None,congruent,Left,Left,Right,33,35,2,yellow,2,6,/home/docky/apps/exp/images/33Y.jpeg,/home/docky/apps/exp/images/35Yi.jpeg,0,14,14,14,0,6,6,6,2044.728139312996,None,2044.728139312996,None,1,4.9773603869834915,2044.728139312996,None,2049.7427169879666,None,2049.7427169879666,None,2052.24366156396,None,2052.24366156396,None,0.7995439939550124,2054.045371858985,None,2054.045371858985,None,6,1,1.08485607302282,2054.8317184899934,None,2054.8317184899934,None,2054.8317184899934,None,2055.9328957559774,None,1,0.7860495870118029,2055.9328957559774,None,166,2056.7351308459765,None,116,B,1,2021_May_25_0925,GazeFlow,2020.1.2,59.94262650745422,
15,Block807.xls,B,7,8,19,19,None,congruent,Left,Left,Right,76,79,3,blue,2,6,/home/docky/apps/exp/images/76B.jpeg,/home/docky/apps/exp/images/79Bi.jpeg,0,14,14,14,0,7,7,7,2057.7366524849785,None,2057.7366524849785,None,1,7.548770094988868,2057.7366524849785,None,2065.317453584983,None,2065.317453584983,None,2067.8094445560127,None,2067.8094445560127,None,0.9834114330005832,2069.620209329005,None,2069.620209329005,None,6,1,1.0682954880176112,2070.595787225,None,2070.595787225,None,2070.595787225,None,2071.6803711680113,None,1,0.7525739289703779,2071.6803711680113,None,168,2072.4490343639627,None,116,B,1,2021_May_25_0925,GazeFlow,2020.1.2,59.94262650745422,
15,Block807.xls,B,,,,,,,,,,,,,,,,,,0,14,14,14,,,,,,,,,,,,,,,,,,,,,,,,,,,,,,,,,,,,,,,,,,,,116,B,1,2021_May_25_0925,GazeFlow,2020.1.2,59.94262650745422,
