Nblock,condsFile,grouping,Block,TrialBlock,N,trialN,trialCond,gazeCon,gazedirR,corrBinR,corrBinP,valLBY,valRBY,diff,colorCube,feedbacktext,corrAns,imageL,imageR,SelBlocks.thisRepN,SelBlocks.thisTrialN,SelBlocks.thisN,SelBlocks.thisIndex,Trials.thisRepN,Trials.thisTrialN,Trials.thisN,Trials.thisIndex,waitCube.started,waitCube.stopped,text_3.started,text_3.stopped,StartKeyPress.keys,StartKeyPress.rt,StartKeyPress.started,StartKeyPress.stopped,StimL.started,StimL.stopped,StimR.started,StimR.stopped,imageStim2L.started,imageStim2L.stopped,imageStim2R.started,imageStim2R.stopped,RTkeyRelease,imageStim3L.started,imageStim3L.stopped,imageStim3R.started,imageStim3R.stopped,dropResp.keys,dropResp.corr,dropResp.rt,dropResp.started,dropResp.stopped,imageStim5L.started,imageStim5L.stopped,imageStim5R.started,imageStim5R.stopped,text_2.started,text_2.stopped,ReturnSpace.keys,ReturnSpace.rt,ReturnSpace.started,ReturnSpace.stopped,totalpoints,textFeedback.started,textFeedback.stopped,participant,group,session,date,expName,psychopyVersion,frameRate,
1,Block502.xls,A,2,1,93,33,22,incongruent,Left,Right,Left,38,35,3,blue,2,5,/home/docky/apps/exp/images/38B.jpeg,/home/docky/apps/exp/images/35Bi.jpeg,0,0,0,0,0,0,0,0,65.30637950700475,None,65.30637950700475,None,1,3.6941386119578965,65.30637950700475,None,69.03678416000912,None,69.03678416000912,None,71.55276198202046,None,71.55276198202046,None,5.175224139005877,73.35565548302839,None,73.35565548302839,None,5,1,4.287167361006141,78.53362188203027,None,78.53362188203027,None,78.53362188203027,None,82.837233630009,None,1,2.054033497988712,82.837233630009,None,2,84.90789538901299,None,117,A,1,2021_May_25_1150,GazeFlow,2020.1.2,59.83355536429925,
1,Block502.xls,A,2,2,42,42,12,congruent,Right,Right,Left,83,80,3,blue,2,5,/home/docky/apps/exp/images/83Bi.jpeg,/home/docky/apps/exp/images/80B.jpeg,0,0,0,0,0,1,1,1,85.90989714005264,None,85.90989714005264,None,1,9.702320565993432,85.90989714005264,None,95.6461261670338,None,95.6461261670338,None,98.15085674205329,None,98.15085674205329,None,1.9689454990439117,99.9528051680536,None,99.9528051680536,None,5,1,1.2850474290316924,101.9078969330294,None,101.9078969330294,None,101.9078969330294,None,103.20977025304455,None,1,1.0187469610245898,103.20977025304455,None,4,104.24501765804598,None,117,A,1,2021_May_25_1150,GazeFlow,2020.1.2,59.83355536429925,
1,Block502.xls,A,2,3,9,9,11,congruent,Left,Left,Right,38,39,1,blue,2,6,/home/docky/apps/exp/images/38Bi.jpeg,/home/docky/apps/exp/images/39B.jpeg,0,0,0,0,0,2,2,2,105.24749905103818,None,105.24749905103818,None,1,5.594359801034443,105.24749905103818,None,110.87585542100715,None,110.87585542100715,None,113.38054333702894,None,113.38054333702894,None,2.987627303984482,115.18246916704811,None,115.18246916704811,None,5,0,1.3017535249819048,118.1734292950132,None,118.1734292950132,None,118.1734292950132,None,119.49133551400155,None,1,1.0364201990305446,119.49133551400155,None,2,120.5437239020248,None,117,A,1,2021_May_25_1150,GazeFlow,2020.1.2,59.83355536429925,
1,Block502.xls,A,2,4,23,23,11,congruent,Left,Left,Right,38,39,1,yellow,2,6,/home/docky/apps/exp/images/38Yi.jpeg,/home/docky/apps/exp/images/39Y.jpeg,0,0,0,0,0,3,3,3,121.54577532503754,None,121.54577532503754,None,1,5.694542309967801,121.54577532503754,None,127.27411795401713,None,127.27411795401713,None,129.77730988600524,None,129.77730988600524,None,3.4885684109758586,131.5757426780183,None,131.5757426780183,None,5,0,2.0053644470172003,135.07057441101642,None,135.07057441101642,None,135.07057441101642,None,137.09257487702416,None,1,0.7180119709810242,137.09257487702416,None,0,137.82722404703964,None,117,A,1,2021_May_25_1150,GazeFlow,2020.1.2,59.83355536429925,
1,Block502.xls,A,2,5,57,57,12,congruent,Right,Right,Left,77,72,5,yellow,2,5,/home/docky/apps/exp/images/77Y.jpeg,/home/docky/apps/exp/images/72Yi.jpeg,0,0,0,0,0,4,4,4,138.82941701600794,None,138.82941701600794,None,1,5.477240423031617,138.82941701600794,None,144.34043646702776,None,144.34043646702776,None,146.8440376110375,None,146.8440376110375,None,1.083755629020743,148.64699108502828,None,148.64699108502828,None,5,1,1.0349615219747648,149.7173386280192,None,149.7173386280192,None,149.7173386280192,None,150.76870432600845,None,1,0.6355959959910251,150.76870432600845,None,2,151.42034671804868,None,117,A,1,2021_May_25_1150,GazeFlow,2020.1.2,59.83355536429925,
1,Block502.xls,A,2,6,118,58,22,incongruent,Left,Right,Left,80,79,1,yellow,2,5,/home/docky/apps/exp/images/80Yi.jpeg,/home/docky/apps/exp/images/79Y.jpeg,0,0,0,0,0,5,5,5,152.4220169080072,None,152.4220169080072,None,1,5.478356493986212,152.4220169080072,None,157.9338681610534,None,157.9338681610534,None,160.4372091050027,None,160.4372091050027,None,3.4053428519982845,162.2422941630357,None,162.2422941630357,None,5,1,4.341439687006641,165.6490907340194,None,165.6490907340194,None,165.6490907340194,None,170.00655359501252,None,1,0.6684298700420186,170.00655359501252,None,4,170.69117602304323,None,117,A,1,2021_May_25_1150,GazeFlow,2020.1.2,59.83355536429925,
1,Block502.xls,A,2,7,101,41,22,incongruent,Left,Right,Left,83,80,3,blue,2,5,/home/docky/apps/exp/images/83Bi.jpeg,/home/docky/apps/exp/images/80B.jpeg,0,0,0,0,0,6,6,6,171.69313362502726,None,171.69313362502726,None,1,4.542776315007359,171.69313362502726,None,176.2692704439978,None,176.2692704439978,None,178.77439297002275,None,178.77439297002275,None,1.935256067023147,180.57105182600208,None,180.57105182600208,None,5,1,1.001981868990697,182.49769589904463,None,182.49769589904463,None,182.49769589904463,None,183.51561005000258,None,1,0.6349490869906731,183.51561005000258,None,6,184.1671471540467,None,117,A,1,2021_May_25_1150,GazeFlow,2020.1.2,59.83355536429925,
1,Block502.xls,A,2,8,69,9,21,incongruent,Right,Left,Right,73,76,3,blue,2,6,/home/docky/apps/exp/images/73B.jpeg,/home/docky/apps/exp/images/76Bi.jpeg,0,0,0,0,0,7,7,7,185.1689295900287,None,185.1689295900287,None,1,5.394245744973887,185.1689295900287,None,190.59731507702963,None,190.59731507702963,None,193.10185550904134,None,193.10185550904134,None,3.923014709027484,194.90346666803816,None,194.90346666803816,None,6,1,3.056312312022783,198.82985977403587,None,198.82985977403587,None,198.82985977403587,None,201.901859722042,None,1,0.8019415009766817,201.901859722042,None,8,202.71995629701996,None,117,A,1,2021_May_25_1150,GazeFlow,2020.1.2,59.83355536429925,
1,Block502.xls,A,,,,,,,,,,,,,,,,,,0,0,0,0,,,,,,,,,,,,,,,,,,,,,,,,,,,,,,,,,,,,,,,,,,,,117,A,1,2021_May_25_1150,GazeFlow,2020.1.2,59.83355536429925,
2,Block506.xls,A,6,1,120,60,22,incongruent,Left,Right,Left,80,79,1,yellow,2,5,/home/docky/apps/exp/images/80Yi.jpeg,/home/docky/apps/exp/images/79Y.jpeg,0,1,1,1,0,0,0,0,223.09489101701183,None,223.09489101701183,None,1,8.071248936001211,223.09489101701183,None,231.207790125045,None,231.207790125045,None,233.71439463703427,None,233.71439463703427,None,1.517048868990969,235.51178656803677,None,235.51178656803677,None,5,1,1.1033474350115284,237.02023774699774,None,237.02023774699774,None,237.02023774699774,None,238.13887126900954,None,1,0.6845906150410883,238.13887126900954,None,10,238.83981909503927,None,117,A,1,2021_May_25_1150,GazeFlow,2020.1.2,59.83355536429925,
2,Block506.xls,A,6,2,51,51,12,congruent,Right,Right,Left,66,65,1,yellow,2,5,/home/docky/apps/exp/images/66Y.jpeg,/home/docky/apps/exp/images/35Bi.jpeg,0,1,1,1,0,1,1,1,239.84180763701443,None,239.84180763701443,None,1,6.163122245983686,239.84180763701443,None,246.03804991504876,None,246.03804991504876,None,248.54280861304142,None,248.54280861304142,None,3.288312370015774,250.34507984801894,None,250.34507984801894,None,6,0,5.879618333012331,253.63430007104762,None,253.63430007104762,None,253.63430007104762,None,259.53034336603014,None,1,0.7517338040051982,259.53034336603014,None,8,260.2985957360361,None,117,A,1,2021_May_25_1150,GazeFlow,2020.1.2,59.83355536429925,
2,Block506.xls,A,6,3,119,59,22,incongruent,Left,Right,Left,80,79,1,yellow,2,5,/home/docky/apps/exp/images/80Y.jpeg,/home/docky/apps/exp/images/79Yi.jpeg,0,1,1,1,0,2,2,2,261.30040546302916,None,261.30040546302916,None,1,5.57785949803656,261.30040546302916,None,266.9120745070395,None,266.9120745070395,None,269.4150953000062,None,269.4150953000062,None,7.596724589995574,271.21801080700243,None,271.21801080700243,None,6,0,6.630854591028765,278.8171436340199,None,278.8171436340199,None,278.8171436340199,None,285.46403862402076,None,1,1.152507258055266,285.46403862402076,None,6,286.6332425160217,None,117,A,1,2021_May_25_1150,GazeFlow,2020.1.2,59.83355536429925,
2,Block506.xls,A,6,4,28,28,11,congruent,Left,Left,Right,72,77,5,yellow,2,6,/home/docky/apps/exp/images/72Y.jpeg,/home/docky/apps/exp/images/77Yi.jpeg,0,1,1,1,0,3,3,3,287.63476563303266,None,287.63476563303266,None,1,7.214556021033786,287.63476563303266,None,294.88298714801203,None,294.88298714801203,None,297.3862106540473,None,297.3862106540473,None,1.2676537570077926,299.18862983904546,None,299.18862983904546,None,6,1,1.0180387740256265,300.44337656901916,None,300.44337656901916,None,300.44337656901916,None,301.4780202630209,None,1,0.7515921419835649,301.4780202630209,None,8,302.2464160720119,None,117,A,1,2021_May_25_1150,GazeFlow,2020.1.2,59.83355536429925,
2,Block506.xls,A,6,5,85,25,21,incongruent,Right,Left,Right,69,75,6,yellow,2,6,/home/docky/apps/exp/images/69Y.jpeg,/home/docky/apps/exp/images/76Yi.jpeg,0,1,1,1,0,4,4,4,303.2483861820074,None,303.2483861820074,None,1,5.495009758975357,303.2483861820074,None,308.776872300019,None,308.776872300019,None,311.2816246460425,None,311.2816246460425,None,2.2692606819909997,313.08333261701046,None,313.08333261701046,None,6,1,1.5014571379870176,315.3396849000128,None,315.3396849000128,None,315.3396849000128,None,316.8578019370325,None,1,0.635137531964574,316.8578019370325,None,10,317.5095208060229,None,117,A,1,2021_May_25_1150,GazeFlow,2020.1.2,59.83355536429925,
2,Block506.xls,A,6,6,71,11,21,incongruent,Right,Left,Right,76,79,3,blue,2,6,/home/docky/apps/exp/images/76B.jpeg,/home/docky/apps/exp/images/79Bi.jpeg,0,1,1,1,0,5,5,5,318.5115040219971,None,318.5115040219971,None,1,5.811419520992786,318.5115040219971,None,324.3569143670029,None,324.3569143670029,None,326.8617052450427,None,326.8617052450427,None,2.0020643880125135,328.66341509099584,None,328.66341509099584,None,6,1,1.3522102080169134,330.6520914010471,None,330.6520914010471,None,330.6520914010471,None,332.0206548590213,None,1,0.9017233569757082,332.0206548590213,None,12,332.93938416900346,None,117,A,1,2021_May_25_1150,GazeFlow,2020.1.2,59.83355536429925,
2,Block506.xls,A,6,7,56,56,12,congruent,Right,Right,Left,76,69,7,yellow,2,5,/home/docky/apps/exp/images/76Yi.jpeg,/home/docky/apps/exp/images/69Y.jpeg,0,1,1,1,0,6,6,6,333.94151587603847,None,333.94151587603847,None,1,5.861927952966653,333.94151587603847,None,339.8370983490022,None,339.8370983490022,None,342.341870504024,None,342.341870504024,None,1.7515234799939208,344.14542047603754,None,344.14542047603754,None,5,1,1.301938276970759,345.8816393330344,None,345.8816393330344,None,345.8816393330344,None,347.20045681099873,None,1,0.8180034190299921,347.20045681099873,None,14,348.0352742280229,None,117,A,1,2021_May_25_1150,GazeFlow,2020.1.2,59.83355536429925,
2,Block506.xls,A,6,8,33,33,12,congruent,Right,Right,Left,38,35,3,blue,2,5,/home/docky/apps/exp/images/38B.jpeg,/home/docky/apps/exp/images/35Bi.jpeg,0,1,1,1,0,7,7,7,349.0375307170325,None,349.0375307170325,None,1,5.644579746003728,349.0375307170325,None,354.7159606910427,None,354.7159606910427,None,357.2205666000373,None,357.2205666000373,None,3.154714649019297,359.02301755105145,None,359.02301755105145,None,5,1,1.2343972569797188,362.18085117201554,None,362.18085117201554,None,362.18085117201554,None,363.43170023401035,None,1,0.6178725089994259,363.43170023401035,None,16,364.06621604203247,None,117,A,1,2021_May_25_1150,GazeFlow,2020.1.2,59.83355536429925,
2,Block506.xls,A,,,,,,,,,,,,,,,,,,0,1,1,1,,,,,,,,,,,,,,,,,,,,,,,,,,,,,,,,,,,,,,,,,,,,117,A,1,2021_May_25_1150,GazeFlow,2020.1.2,59.83355536429925,
3,Block505.xls,A,5,1,1,1,11,congruent,Left,Left,Right,16,19,3,blue,2,6,/home/docky/apps/exp/images/16Bi.jpeg,/home/docky/apps/exp/images/19B.jpeg,0,2,2,2,0,0,0,0,385.74313320202054,None,385.74313320202054,None,1,5.351382107008249,385.74313320202054,None,391.11938482604455,None,391.11938482604455,None,393.64193312299903,None,393.64193312299903,None,1.7340565000195056,395.4383026010473,None,395.4383026010473,None,6,1,1.0189154539839365,397.1645215770113,None,397.1645215770113,None,397.1645215770113,None,398.19958815100836,None,1,1.2523658389691263,398.19958815100836,None,18,399.4686727730441,None,117,A,1,2021_May_25_1150,GazeFlow,2020.1.2,59.83355536429925,
3,Block505.xls,A,5,2,10,10,11,congruent,Left,Left,Right,73,76,3,blue,2,6,/home/docky/apps/exp/images/73B.jpeg,/home/docky/apps/exp/images/76Bi.jpeg,0,2,2,2,0,1,1,1,400.47084951703437,None,400.47084951703437,None,1,5.02662421396235,400.47084951703437,None,405.5313342110021,None,405.5313342110021,None,408.0366221720469,None,408.0366221720469,None,1.4007621110067703,409.8375512990169,None,409.8375512990169,None,6,1,0.9684268929995596,411.2251334990142,None,411.2251334990142,None,411.2251334990142,None,412.2103307550424,None,1,0.5836745779961348,412.2103307550424,None,20,412.8109128710348,None,117,A,1,2021_May_25_1150,GazeFlow,2020.1.2,59.83355536429925,
3,Block505.xls,A,5,3,95,35,22,incongruent,Left,Right,Left,66,65,1,blue,2,5,/home/docky/apps/exp/images/66B.jpeg,/home/docky/apps/exp/images/35Yi.jpeg,0,2,2,2,0,2,2,2,413.8129655820085,None,413.8129655820085,None,1,7.4652674500248395,413.8129655820085,None,421.30981607502326,None,421.30981607502326,None,423.8166652820073,None,423.8166652820073,None,2.4366891250247136,425.6178111550398,None,425.6178111550398,None,5,1,1.0676994500099681,428.04170774901286,None,428.04170774901286,None,428.04170774901286,None,429.12606120301643,None,1,0.5177185069769621,429.12606120301643,None,22,429.66059835103806,None,117,A,1,2021_May_25_1150,GazeFlow,2020.1.2,59.83355536429925,
3,Block505.xls,A,5,4,46,46,12,congruent,Right,Right,Left,35,33,2,yellow,2,5,/home/docky/apps/exp/images/35Yi.jpeg,/home/docky/apps/exp/images/33Y.jpeg,0,2,2,2,0,3,3,3,430.66235087503446,None,430.66235087503446,None,1,4.943681496020872,430.66235087503446,None,435.6393487940077,None,435.6393487940077,None,438.1427315500332,None,438.1427315500332,None,15.395062235998921,439.9479852040531,None,439.9479852040531,None,5,1,1.3684540680260397,455.3447614200413,None,455.3447614200413,None,455.3447614200413,None,456.72976802202174,None,1,2.4555359929800034,456.72976802202174,None,24,459.20143441302935,None,117,A,1,2021_May_25_1150,GazeFlow,2020.1.2,59.83355536429925,
3,Block505.xls,A,5,5,78,18,21,incongruent,Right,Left,Right,65,66,1,yellow,2,6,/home/docky/apps/exp/images/35Bi.jpeg,/home/docky/apps/exp/images/66Y.jpeg,0,2,2,2,0,4,4,4,460.20347136002965,None,460.20347136002965,None,1,5.995591178012546,460.20347136002965,None,466.2327097800444,None,466.2327097800444,None,468.73583703802433,None,468.73583703802433,None,5.643529437016696,470.5334781600395,None,470.5334781600395,None,5,0,1.2847355380072258,476.1852611480281,None,476.1852611480281,None,476.1852611480281,None,477.48668548703426,None,1,1.3697856040089391,477.48668548703426,None,22,478.8730242040474,None,117,A,1,2021_May_25_1150,GazeFlow,2020.1.2,59.83355536429925,
3,Block505.xls,A,5,6,43,43,12,congruent,Right,Right,Left,83,80,3,blue,2,5,/home/docky/apps/exp/images/83B.jpeg,/home/docky/apps/exp/images/80Bi.jpeg,0,2,2,2,0,5,5,5,479.87495815503644,None,479.87495815503644,None,1,6.763730383012444,479.87495815503644,None,486.6716019700398,None,486.6716019700398,None,489.1794131360366,None,489.1794131360366,None,1.667976300988812,490.9784164670273,None,490.9784164670273,None,5,1,1.2357402329798788,492.6332942870213,None,492.6332942870213,None,492.6332942870213,None,493.8852780419984,None,1,0.9016896319808438,493.8852780419984,None,24,494.80340951203834,None,117,A,1,2021_May_25_1150,GazeFlow,2020.1.2,59.83355536429925,
3,Block505.xls,A,5,7,44,44,12,congruent,Right,Right,Left,39,38,1,blue,2,5,/home/docky/apps/exp/images/39Bi.jpeg,/home/docky/apps/exp/images/38B.jpeg,0,2,2,2,0,6,6,6,495.8056422439986,None,495.8056422439986,None,1,5.12719248700887,495.8056422439986,None,500.9666510550305,None,500.9666510550305,None,503.47139146900736,None,503.47139146900736,None,1.3838715010206215,505.2750795900356,None,505.2750795900356,None,5,1,1.0854146010242403,506.64389127102913,None,506.64389127102913,None,506.64389127102913,None,507.74576296604937,None,1,0.801201286027208,507.74576296604937,None,26,508.56356906401925,None,117,A,1,2021_May_25_1150,GazeFlow,2020.1.2,59.83355536429925,
3,Block505.xls,A,5,8,116,56,22,incongruent,Left,Right,Left,77,72,5,yellow,2,5,/home/docky/apps/exp/images/77Y.jpeg,/home/docky/apps/exp/images/72Y.jpeg,0,2,2,2,0,7,7,7,509.5656394570251,None,509.5656394570251,None,1,5.110998680989724,509.5656394570251,None,514.7101492820075,None,514.7101492820075,None,517.2144598740269,None,517.2144598740269,None,2.0189721250208095,519.016323178017,None,519.016323178017,None,5,1,1.1009790330426767,521.0219959850074,None,521.0219959850074,None,521.0219959850074,None,522.1399778780178,None,1,0.6344135419931263,522.1399778780178,None,28,522.790967339999,None,117,A,1,2021_May_25_1150,GazeFlow,2020.1.2,59.83355536429925,
3,Block505.xls,A,,,,,,,,,,,,,,,,,,0,2,2,2,,,,,,,,,,,,,,,,,,,,,,,,,,,,,,,,,,,,,,,,,,,,117,A,1,2021_May_25_1150,GazeFlow,2020.1.2,59.83355536429925,
4,Block509.xls,A,9,1,34,34,12,congruent,Right,Right,Left,38,35,3,blue,2,5,/home/docky/apps/exp/images/38Bi.jpeg,/home/docky/apps/exp/images/35B.jpeg,0,3,3,3,0,0,0,0,551.8483582080225,None,551.8483582080225,None,1,9.1907780719921,551.8483582080225,None,561.0740378200426,None,561.0740378200426,None,563.5882736230269,None,563.5882736230269,None,2.8201947810011916,565.386168794008,None,565.386168794008,None,5,1,1.2347360220155679,568.2139817800489,None,568.2139817800489,None,568.2139817800489,None,569.4652949490119,None,1,0.7346872260095552,569.4652949490119,None,30,570.2170515130274,None,117,A,1,2021_May_25_1150,GazeFlow,2020.1.2,59.83355536429925,
4,Block509.xls,A,9,2,7,7,11,congruent,Left,Left,Right,65,66,1,blue,2,6,/home/docky/apps/exp/images/35Yi.jpeg,/home/docky/apps/exp/images/66B.jpeg,0,3,3,3,0,1,1,1,571.2191158549977,None,571.2191158549977,None,1,5.177214463008568,571.2191158549977,None,576.4299623590196,None,576.4299623590196,None,578.9347007940523,None,578.9347007940523,None,2.737342464039102,580.7364392930176,None,580.7364392930176,None,6,1,0.9172367969877087,583.4770951530081,None,583.4770951530081,None,583.4770951530081,None,584.4107728039962,None,1,0.5515074579743668,584.4107728039962,None,32,584.9788055550307,None,117,A,1,2021_May_25_1150,GazeFlow,2020.1.2,59.83355536429925,
4,Block509.xls,A,9,3,74,14,21,incongruent,Right,Left,Right,80,83,3,blue,2,6,/home/docky/apps/exp/images/80B.jpeg,/home/docky/apps/exp/images/83Bi.jpeg,0,3,3,3,0,2,2,2,585.9811337300343,None,585.9811337300343,None,1,5.528066039958503,585.9811337300343,None,591.5424505400006,None,591.5424505400006,None,594.0455691800453,None,594.0455691800453,None,3.588785336003639,595.8491474820185,None,595.8491474820185,None,6,1,0.9342267109896056,599.4410974089988,None,599.4410974089988,None,599.4410974089988,None,600.3919382110471,None,1,0.5512632220052183,600.3919382110471,None,34,600.9596557000186,None,117,A,1,2021_May_25_1150,GazeFlow,2020.1.2,59.83355536429925,
4,Block509.xls,A,9,4,19,19,11,congruent,Left,Left,Right,65,66,1,yellow,2,6,/home/docky/apps/exp/images/35Bi.jpeg,/home/docky/apps/exp/images/66Y.jpeg,0,3,3,3,0,3,3,3,601.9621128620347,None,601.9621128620347,None,1,5.193516137020197,601.9621128620347,None,607.1895179650164,None,607.1895179650164,None,609.6925536930212,None,609.6925536930212,None,3.872986653004773,611.4905410010251,None,611.4905410010251,None,5,0,3.2072792630060576,615.3706555010285,None,615.3706555010285,None,615.3706555010285,None,618.5943642000202,None,1,0.6014621509821154,618.5943642000202,None,32,619.2121714060195,None,117,A,1,2021_May_25_1150,GazeFlow,2020.1.2,59.83355536429925,
4,Block509.xls,A,9,5,60,60,12,congruent,Right,Right,Left,80,79,1,yellow,2,5,/home/docky/apps/exp/images/80Yi.jpeg,/home/docky/apps/exp/images/79Y.jpeg,0,3,3,3,0,4,4,4,620.2141767709982,None,620.2141767709982,None,1,4.97716882097302,620.2141767709982,None,625.2244435640168,None,625.2244435640168,None,627.7294915320235,None,627.7294915320235,None,2.771220655005891,629.5265304280329,None,629.5265304280329,None,5,1,1.1009539309889078,632.3050898210495,None,632.3050898210495,None,632.3050898210495,None,633.422842250031,None,1,0.6346441020141356,633.422842250031,None,34,634.0738614230067,None,117,A,1,2021_May_25_1150,GazeFlow,2020.1.2,59.83355536429925,
4,Block509.xls,A,9,6,83,23,21,incongruent,Right,Left,Right,38,39,1,yellow,2,6,/home/docky/apps/exp/images/38Yi.jpeg,/home/docky/apps/exp/images/39Y.jpeg,0,3,3,3,0,5,5,5,635.0764064560062,None,635.0764064560062,None,1,7.063893254031427,635.0764064560062,None,642.1742030110327,None,642.1742030110327,None,644.6800741810002,None,644.6800741810002,None,1.9020435640122741,646.4761411930085,None,646.4761411930085,None,5,0,1.0180748639977537,648.3697959630517,None,648.3697959630517,None,648.3697959630517,None,649.403661378019,None,1,0.684743947989773,649.403661378019,None,32,650.1051149740233,None,117,A,1,2021_May_25_1150,GazeFlow,2020.1.2,59.83355536429925,
4,Block509.xls,A,9,7,4,4,11,congruent,Left,Left,Right,35,38,3,blue,2,6,/home/docky/apps/exp/images/35B.jpeg,/home/docky/apps/exp/images/38Bi.jpeg,0,3,3,3,0,6,6,6,651.1077576480457,None,651.1077576480457,None,1,6.329410871025175,651.1077576480457,None,657.4709275570349,None,657.4709275570349,None,659.9740224360139,None,659.9740224360139,None,2.8876167259877548,661.7786645410233,None,661.7786645410233,None,6,1,1.1864539480302483,664.6660591490217,None,664.6660591490217,None,664.6660591490217,None,665.8691868710448,None,1,0.86927545000799,665.8691868710448,None,34,666.7539116450353,None,117,A,1,2021_May_25_1150,GazeFlow,2020.1.2,59.83355536429925,
4,Block509.xls,A,9,8,24,24,11,congruent,Left,Left,Right,38,39,1,yellow,2,6,/home/docky/apps/exp/images/38Y.jpeg,/home/docky/apps/exp/images/39Yi.jpeg,0,3,3,3,0,7,7,7,667.7565648650052,None,667.7565648650052,None,1,6.629700992023572,667.7565648650052,None,674.4202961600386,None,674.4202961600386,None,676.9249423840083,None,676.9249423840083,None,4.223426181997638,678.7257000450045,None,678.7257000450045,None,6,1,7.196646048978437,682.9533238410368,None,682.9533238410368,None,682.9533238410368,None,690.1668704580516,None,1,0.6011706040007994,690.1668704580516,None,36,690.7845830080332,None,117,A,1,2021_May_25_1150,GazeFlow,2020.1.2,59.83355536429925,
4,Block509.xls,A,,,,,,,,,,,,,,,,,,0,3,3,3,,,,,,,,,,,,,,,,,,,,,,,,,,,,,,,,,,,,,,,,,,,,117,A,1,2021_May_25_1150,GazeFlow,2020.1.2,59.83355536429925,
5,Block504.xls,A,4,1,11,11,11,congruent,Left,Left,Right,73,76,3,blue,2,6,/home/docky/apps/exp/images/73Bi.jpeg,/home/docky/apps/exp/images/76B.jpeg,0,4,4,4,0,0,0,0,714.9663782370044,None,714.9663782370044,None,1,5.853194371040445,714.9663782370044,None,720.846614121052,None,720.846614121052,None,723.3637677860097,None,723.3637677860097,None,3.1207963550114073,725.1665600360138,None,725.1665600360138,None,6,1,1.0343882369925268,728.2916056000395,None,728.2916056000395,None,728.2916056000395,None,729.3424988930346,None,1,1.9040865519782528,729.3424988930346,None,38,731.2632755170343,None,117,A,1,2021_May_25_1150,GazeFlow,2020.1.2,59.83355536429925,
5,Block504.xls,A,4,2,87,27,21,incongruent,Right,Left,Right,72,77,5,yellow,2,6,/home/docky/apps/exp/images/72Y.jpeg,/home/docky/apps/exp/images/77Yi.jpeg,0,4,4,4,0,1,1,1,732.2652897789958,None,732.2652897789958,None,1,6.629542256996501,732.2652897789958,None,738.9270395610365,None,738.9270395610365,None,741.4316974360263,None,741.4316974360263,None,2.8207654780126177,743.235599934007,None,743.235599934007,None,6,1,0.9343678099685349,746.0591743150144,None,746.0591743150144,None,746.0591743150144,None,747.0101071009994,None,1,1.3361921129981056,747.0101071009994,None,40,748.3629352530115,None,117,A,1,2021_May_25_1150,GazeFlow,2020.1.2,59.83355536429925,
5,Block504.xls,A,4,3,48,48,12,congruent,Right,Right,Left,39,38,1,yellow,2,5,/home/docky/apps/exp/images/39Yi.jpeg,/home/docky/apps/exp/images/38Y.jpeg,0,4,4,4,0,2,2,2,749.3652175800526,None,749.3652175800526,None,1,4.943048049986828,749.3652175800526,None,754.3421460130485,None,754.3421460130485,None,756.8449715710012,None,756.8449715710012,None,1.735055203025695,758.6484094700427,None,758.6484094700427,None,5,1,1.235022792010568,760.3700140209985,None,760.3700140209985,None,760.3700140209985,None,761.6215497880476,None,1,1.1194718219921924,761.6215497880476,None,42,762.7572932980256,None,117,A,1,2021_May_25_1150,GazeFlow,2020.1.2,59.83355536429925,
5,Block504.xls,A,4,4,38,38,12,congruent,Right,Right,Left,79,73,6,blue,2,5,/home/docky/apps/exp/images/79B.jpeg,/home/docky/apps/exp/images/73Bi.jpeg,0,4,4,4,0,3,3,3,763.7598320010002,None,763.7598320010002,None,1,6.5132673810003325,763.7598320010002,None,770.3072972680093,None,770.3072972680093,None,772.8111000740319,None,772.8111000740319,None,1.5345060309628025,774.6147439530469,None,774.6147439530469,None,5,1,1.1188945209723897,776.1340032720473,None,776.1340032720473,None,776.1340032720473,None,777.2693954780116,None,1,0.7513600339880213,777.2693954780116,None,44,778.0370794240152,None,117,A,1,2021_May_25_1150,GazeFlow,2020.1.2,59.83355536429925,
5,Block504.xls,A,4,5,2,2,11,congruent,Left,Left,Right,16,19,3,blue,2,6,/home/docky/apps/exp/images/16B.jpeg,/home/docky/apps/exp/images/19Bi.jpeg,0,4,4,4,0,4,4,4,779.0393973769969,None,779.0393973769969,None,1,5.0606607379741035,779.0393973769969,None,784.1332264890079,None,784.1332264890079,None,786.63639921305,None,786.63639921305,None,2.3195502559538,788.4345566650154,None,788.4345566650154,None,6,1,0.984743382956367,790.7458197060041,None,790.7458197060041,None,790.7458197060041,None,791.7468542610295,None,1,0.7518738619983196,791.7468542610295,None,46,792.5153103630291,None,117,A,1,2021_May_25_1150,GazeFlow,2020.1.2,59.83355536429925,
5,Block504.xls,A,4,6,73,13,21,incongruent,Right,Left,Right,80,83,3,blue,2,6,/home/docky/apps/exp/images/80Bi.jpeg,/home/docky/apps/exp/images/83B.jpeg,0,4,4,4,0,5,5,5,793.517637034005,None,793.517637034005,None,1,4.926478822948411,793.517637034005,None,798.4780230620527,None,798.4780230620527,None,800.9814547010465,None,800.9814547010465,None,2.3031562860123813,802.7863702440518,None,802.7863702440518,None,6,1,1.0176325689535588,805.0739328160416,None,805.0739328160416,None,805.0739328160416,None,806.1082007079967,None,1,0.7183986000018194,806.1082007079967,None,48,806.8432488320395,None,117,A,1,2021_May_25_1150,GazeFlow,2020.1.2,59.83355536429925,
5,Block504.xls,A,4,7,63,3,21,incongruent,Right,Left,Right,35,38,3,blue,2,6,/home/docky/apps/exp/images/35B.jpeg,/home/docky/apps/exp/images/38Bi.jpeg,0,4,4,4,0,6,6,6,807.8455077560502,None,807.8455077560502,None,1,5.5942526329890825,807.8455077560502,None,813.4719472060096,None,813.4719472060096,None,815.9786312259967,None,815.9786312259967,None,9.467223011015449,817.7802447029972,None,817.7802447029972,None,6,1,0.917611756012775,827.2502482930431,None,827.2502482930431,None,827.2502482930431,None,828.1845996650518,None,1,0.5010806740028784,828.1845996650518,None,50,828.702554974996,None,117,A,1,2021_May_25_1150,GazeFlow,2020.1.2,59.83355536429925,
5,Block504.xls,A,4,8,86,26,21,incongruent,Right,Left,Right,72,77,5,yellow,2,6,/home/docky/apps/exp/images/72Yi.jpeg,/home/docky/apps/exp/images/77Y.jpeg,0,4,4,4,0,7,7,7,829.7047563090455,None,829.7047563090455,None,1,5.310875394963659,829.7047563090455,None,835.0536913100514,None,835.0536913100514,None,837.5523278450128,None,837.5523278450128,None,2.503513700037729,839.3550379270455,None,839.3550379270455,None,6,1,0.9191751340404153,841.8606217140332,None,841.8606217140332,None,841.8606217140332,None,842.7962189190439,None,1,0.6013229669770226,842.7962189190439,None,52,843.4141900860122,None,117,A,1,2021_May_25_1150,GazeFlow,2020.1.2,59.83355536429925,
5,Block504.xls,A,,,,,,,,,,,,,,,,,,0,4,4,4,,,,,,,,,,,,,,,,,,,,,,,,,,,,,,,,,,,,,,,,,,,,117,A,1,2021_May_25_1150,GazeFlow,2020.1.2,59.83355536429925,
6,Block511.xls,A,11,1,15,15,11,congruent,Left,Left,Right,80,83,3,blue,2,6,/home/docky/apps/exp/images/80Bi.jpeg,/home/docky/apps/exp/images/83B.jpeg,0,5,5,5,0,0,0,0,862.2346754110185,None,862.2346754110185,None,1,6.4365286090178415,862.2346754110185,None,868.6963159300503,None,868.6963159300503,None,871.2195689630462,None,871.2195689630462,None,1.4839779430185445,873.0206983580138,None,873.0206983580138,None,6,1,0.9017086929525249,874.4919008330326,None,874.4919008330326,None,874.4919008330326,None,875.410127308045,None,1,1.3690464720129967,875.410127308045,None,54,876.7956252210424,None,117,A,1,2021_May_25_1150,GazeFlow,2020.1.2,59.83355536429925,
6,Block511.xls,A,11,2,105,45,22,incongruent,Left,Right,Left,39,38,1,blue,2,5,/home/docky/apps/exp/images/39Bi.jpeg,/home/docky/apps/exp/images/38B.jpeg,0,5,5,5,0,1,1,1,877.7976118660299,None,877.7976118660299,None,1,5.2446528089931235,877.7976118660299,None,883.0756489260239,None,883.0756489260239,None,885.5803402440506,None,885.5803402440506,None,3.054407048970461,887.376672014012,None,887.376672014012,None,5,1,0.969636244000867,890.4378571030102,None,890.4378571030102,None,890.4378571030102,None,891.4240235860343,None,1,0.6178424829849973,891.4240235860343,None,56,892.0586379090091,None,117,A,1,2021_May_25_1150,GazeFlow,2020.1.2,59.83355536429925,
6,Block511.xls,A,11,3,68,8,21,incongruent,Right,Left,Right,38,39,1,blue,2,6,/home/docky/apps/exp/images/38B.jpeg,/home/docky/apps/exp/images/39Bi.jpeg,0,5,5,5,0,2,2,2,893.0611339990282,None,893.0611339990282,None,1,5.076825595984701,893.0611339990282,None,898.1715894740191,None,898.1715894740191,None,900.6749914470129,None,900.6749914470129,None,5.692966250004247,902.4737653190386,None,902.4737653190386,None,5,0,1.1011265279958025,908.1744430290419,None,908.1744430290419,None,908.1744430290419,None,909.2921704280307,None,1,0.5013634840142913,909.2921704280307,None,54,909.8100723340176,None,117,A,1,2021_May_25_1150,GazeFlow,2020.1.2,59.83355536429925,
6,Block511.xls,A,11,4,80,20,21,incongruent,Right,Left,Right,62,65,3,yellow,2,6,/home/docky/apps/exp/images/38Bi.jpeg,/home/docky/apps/exp/images/35B.jpeg,0,5,5,5,0,3,3,3,910.8122274180059,None,910.8122274180059,None,1,5.91208939102944,910.8122274180059,None,916.7578554550419,None,916.7578554550419,None,919.2625158440205,None,919.2625158440205,None,1.1167585300281644,921.0660797500168,None,921.0660797500168,None,5,0,1.0515004370245151,922.1677967430442,None,922.1677967430442,None,922.1677967430442,None,923.2359697850188,None,1,0.4848176310188137,923.2359697850188,None,52,923.7374154020217,None,117,A,1,2021_May_25_1150,GazeFlow,2020.1.2,59.83355536429925,
6,Block511.xls,A,11,5,5,5,11,congruent,Left,Left,Right,65,66,1,blue,2,6,/home/docky/apps/exp/images/35Yi.jpeg,/home/docky/apps/exp/images/66B.jpeg,0,5,5,5,0,4,4,4,924.7387358190026,None,924.7387358190026,None,1,5.22772847401211,924.7387358190026,None,930.0002732810099,None,930.0002732810099,None,932.5049742340343,None,932.5049742340343,None,1.2333266020286828,934.3086379230372,None,934.3086379230372,None,6,1,0.7847231919877231,935.5271297690342,None,935.5271297690342,None,935.5271297690342,None,936.327924104,None,1,0.46843671100214124,936.327924104,None,54,936.8128127950476,None,117,A,1,2021_May_25_1150,GazeFlow,2020.1.2,59.83355536429925,
6,Block511.xls,A,11,6,18,18,11,congruent,Left,Left,Right,65,66,1,yellow,2,6,/home/docky/apps/exp/images/35B.jpeg,/home/docky/apps/exp/images/66Yi.jpeg,0,5,5,5,0,5,5,5,937.8141018040478,None,937.8141018040478,None,1,4.97728225501487,937.8141018040478,None,942.8253561390447,None,942.8253561390447,None,945.328424048028,None,945.328424048028,None,5.592765149020124,947.1313474190538,None,947.1313474190538,None,6,1,0.7853900920017622,952.7262393929996,None,952.7262393929996,None,952.7262393929996,None,953.5280935130431,None,1,0.4678570090327412,953.5280935130431,None,56,954.0126420750166,None,117,A,1,2021_May_25_1150,GazeFlow,2020.1.2,59.83355536429925,
6,Block511.xls,A,11,7,25,25,11,congruent,Left,Left,Right,69,75,6,yellow,2,6,/home/docky/apps/exp/images/69Yi.jpeg,/home/docky/apps/exp/images/76Y.jpeg,0,5,5,5,0,6,6,6,955.0149903460406,None,955.0149903460406,None,1,5.410658959997818,955.0149903460406,None,960.4594835670432,None,960.4594835670432,None,962.9626725360285,None,962.9626725360285,None,3.889561508956831,964.7662108680233,None,964.7662108680233,None,6,1,0.8862949240137823,968.6564998760005,None,968.6564998760005,None,968.6564998760005,None,969.559355178033,None,1,0.5177560449810699,969.559355178033,None,58,970.0938974990277,None,117,A,1,2021_May_25_1150,GazeFlow,2020.1.2,59.83355536429925,
6,Block511.xls,A,11,8,3,3,11,congruent,Left,Left,Right,35,38,3,blue,2,6,/home/docky/apps/exp/images/35Bi.jpeg,/home/docky/apps/exp/images/38B.jpeg,0,5,5,5,0,7,7,7,971.0955779020442,None,971.0955779020442,None,1,6.463143301021773,971.0955779020442,None,977.5909190320526,None,977.5909190320526,None,980.0959792570211,None,980.0959792570211,None,2.119219009997323,981.898235279019,None,981.898235279019,None,6,1,0.8678024160326459,984.0047602510313,None,984.0047602510313,None,984.0047602510313,None,984.8895307530183,None,1,0.43381195998517796,984.8895307530183,None,60,985.3402140130056,None,117,A,1,2021_May_25_1150,GazeFlow,2020.1.2,59.83355536429925,
6,Block511.xls,A,,,,,,,,,,,,,,,,,,0,5,5,5,,,,,,,,,,,,,,,,,,,,,,,,,,,,,,,,,,,,,,,,,,,,117,A,1,2021_May_25_1150,GazeFlow,2020.1.2,59.83355536429925,
7,Block508.xls,A,8,1,13,13,11,congruent,Left,Left,Right,76,79,3,blue,2,6,/home/docky/apps/exp/images/76Bi.jpeg,/home/docky/apps/exp/images/79B.jpeg,0,6,6,6,0,0,0,0,1006.3502155010356,None,1006.3502155010356,None,1,6.868920598004479,1006.3502155010356,None,1013.2486164169968,None,1013.2486164169968,None,1015.7670437660418,None,1015.7670437660418,None,1.3338551939814351,1017.5646688780398,None,1017.5646688780398,None,6,1,0.8009989539859816,1018.8891199509962,None,1018.8891199509962,None,1018.8891199509962,None,1019.7067516670213,None,1,0.8685357929789461,1019.7067516670213,None,62,1020.5918283130159,None,117,A,1,2021_May_25_1150,GazeFlow,2020.1.2,59.83355536429925,
7,Block508.xls,A,8,2,21,21,11,congruent,Left,Left,Right,62,65,3,yellow,2,6,/home/docky/apps/exp/images/38B.jpeg,/home/docky/apps/exp/images/35Bi.jpeg,0,6,6,6,0,1,1,1,1021.5939411520376,None,1021.5939411520376,None,1,6.229643348953687,1021.5939411520376,None,1027.8570492200088,None,1027.8570492200088,None,1030.3604728600476,None,1030.3604728600476,None,1.4506159570300952,1032.1639879020513,None,1032.1639879020513,None,6,1,0.9011028520180844,1033.601070311037,None,1033.601070311037,None,1033.601070311037,None,1034.5194258490228,None,1,0.6340609170147218,1034.5194258490228,None,64,1035.170392421016,None,117,A,1,2021_May_25_1150,GazeFlow,2020.1.2,59.83355536429925,
7,Block508.xls,A,8,3,99,39,22,incongruent,Left,Right,Left,79,76,3,blue,2,5,/home/docky/apps/exp/images/79Bi.jpeg,/home/docky/apps/exp/images/76B.jpeg,0,6,6,6,0,2,2,2,1036.1722138140467,None,1036.1722138140467,None,1,5.795215972000733,1036.1722138140467,None,1042.0013599360245,None,1042.0013599360245,None,1044.5060799340135,None,1044.5060799340135,None,2.0524346500169486,1046.3096042330144,None,1046.3096042330144,None,5,1,1.1017365470179357,1048.3463050650316,None,1048.3463050650316,None,1048.3463050650316,None,1049.4646643510205,None,1,0.5843665139982477,1049.4646643510205,None,66,1050.0656363660237,None,117,A,1,2021_May_25_1150,GazeFlow,2020.1.2,59.83355536429925,
7,Block508.xls,A,8,4,37,37,12,congruent,Right,Right,Left,66,65,1,blue,2,5,/home/docky/apps/exp/images/66Bi.jpeg,/home/docky/apps/exp/images/35Y.jpeg,0,6,6,6,0,3,3,3,1051.0681694600498,None,1051.0681694600498,None,1,5.444095459009986,1051.0681694600498,None,1056.5461678550346,None,1056.5461678550346,None,1059.0492642870522,None,1059.0492642870522,None,4.390643153979909,1060.851784027007,None,1060.851784027007,None,5,1,0.986113554041367,1065.244482729002,None,1065.244482729002,None,1065.244482729002,None,1066.2471275270218,None,1,0.4343685950152576,1066.2471275270218,None,68,1066.6980190550094,None,117,A,1,2021_May_25_1150,GazeFlow,2020.1.2,59.83355536429925,
7,Block508.xls,A,8,5,82,22,21,incongruent,Right,Left,Right,38,39,1,yellow,2,6,/home/docky/apps/exp/images/38Y.jpeg,/home/docky/apps/exp/images/39Yi.jpeg,0,6,6,6,0,4,4,4,1067.7005040190415,None,1067.7005040190415,None,1,5.494243406981695,1067.7005040190415,None,1073.2281623129966,None,1073.2281623129966,None,1075.7317985660047,None,1075.7317985660047,None,1.1176279630162753,1077.530659281998,None,1077.530659281998,None,5,0,0.9849539659917355,1078.638464040996,None,1078.638464040996,None,1078.638464040996,None,1079.6401207949966,None,1,0.4350719089852646,1079.6401207949966,None,66,1080.091003277048,None,117,A,1,2021_May_25_1150,GazeFlow,2020.1.2,59.83355536429925,
7,Block508.xls,A,8,6,104,44,22,incongruent,Left,Right,Left,39,38,1,blue,2,5,/home/docky/apps/exp/images/39B.jpeg,/home/docky/apps/exp/images/38Bi.jpeg,0,6,6,6,0,5,5,5,1081.0928559380118,None,1081.0928559380118,None,1,5.544640589039773,1081.0928559380118,None,1086.6711587010068,None,1086.6711587010068,None,1089.1742258520098,None,1089.1742258520098,None,3.1552537030074745,1090.9781762330094,None,1090.9781762330094,None,5,1,1.0524657249916345,1094.134218688996,None,1094.134218688996,None,1094.134218688996,None,1095.2035259930417,None,1,0.4508562170085497,1095.2035259930417,None,68,1095.6712136480492,None,117,A,1,2021_May_25_1150,GazeFlow,2020.1.2,59.83355536429925,
7,Block508.xls,A,8,7,39,39,12,congruent,Right,Right,Left,79,73,6,blue,2,5,/home/docky/apps/exp/images/79B.jpeg,/home/docky/apps/exp/images/73Bi.jpeg,0,6,6,6,0,6,6,6,1096.6734775630175,None,1096.6734775630175,None,1,5.6617936919792555,1096.6734775630175,None,1102.368593768042,None,1102.368593768042,None,1104.8733597260434,None,1104.8733597260434,None,1.3674806029885076,1106.6752505400218,None,1106.6752505400218,None,5,1,3.423264149983879,1108.0291124330251,None,1108.0291124330251,None,1108.0291124330251,None,1111.468853744038,None,1,0.8354825079441071,1111.468853744038,None,70,1112.320476783032,None,117,A,1,2021_May_25_1150,GazeFlow,2020.1.2,59.83355536429925,
7,Block508.xls,A,8,8,36,36,12,congruent,Right,Right,Left,66,65,1,blue,2,5,/home/docky/apps/exp/images/66B.jpeg,/home/docky/apps/exp/images/35Yi.jpeg,0,6,6,6,0,7,7,7,1113.322480707022,None,1113.322480707022,None,1,5.995703000982758,1113.322480707022,None,1119.352293922042,None,1119.352293922042,None,1121.8548350580386,None,1121.8548350580386,None,7.480013663996942,1123.658289455052,None,1123.658289455052,None,5,1,1.1677295750123449,1131.1411959120305,None,1131.1411959120305,None,1131.1411959120305,None,1132.3256680500344,None,1,0.5011852600146085,1132.3256680500344,None,72,1132.84329083201,None,117,A,1,2021_May_25_1150,GazeFlow,2020.1.2,59.83355536429925,
7,Block508.xls,A,,,,,,,,,,,,,,,,,,0,6,6,6,,,,,,,,,,,,,,,,,,,,,,,,,,,,,,,,,,,,,,,,,,,,117,A,1,2021_May_25_1150,GazeFlow,2020.1.2,59.83355536429925,
8,Block510.xls,A,10,1,102,42,22,incongruent,Left,Right,Left,83,80,3,blue,2,5,/home/docky/apps/exp/images/83B.jpeg,/home/docky/apps/exp/images/80Bi.jpeg,0,7,7,7,0,0,0,0,1153.5010264370358,None,1153.5010264370358,None,1,10.143038014997728,1153.5010264370358,None,1163.6754901870154,None,1163.6754901870154,None,1166.1926240610192,None,1166.1926240610192,None,2.3186912150122225,1167.996153589047,None,1167.996153589047,None,5,1,1.001353963976726,1170.3000296290265,None,1170.3000296290265,None,1170.3000296290265,None,1171.3180565450457,None,1,0.567815629998222,1171.3180565450457,None,74,1171.9024655940011,None,117,A,1,2021_May_25_1150,GazeFlow,2020.1.2,59.83355536429925,
8,Block510.xls,A,10,2,114,54,22,incongruent,Left,Right,Left,76,69,7,yellow,2,5,/home/docky/apps/exp/images/76Yi.jpeg,/home/docky/apps/exp/images/69Y.jpeg,0,7,7,7,0,1,1,1,1172.904868371028,None,1172.904868371028,None,1,4.67581412702566,1172.904868371028,None,1177.6144094930496,None,1177.6144094930496,None,1180.1178809680277,None,1180.1178809680277,None,1.4843750990112312,1181.923244153033,None,1181.923244153033,None,5,1,0.9522203339729458,1183.3921562140458,None,1183.3921562140458,None,1183.3921562140458,None,1184.3604791640537,None,1,0.46743736998178065,1184.3604791640537,None,76,1184.8442017850466,None,117,A,1,2021_May_25_1150,GazeFlow,2020.1.2,59.83355536429925,
8,Block510.xls,A,10,3,72,12,21,incongruent,Right,Left,Right,76,79,3,blue,2,6,/home/docky/apps/exp/images/76Bi.jpeg,/home/docky/apps/exp/images/79B.jpeg,0,7,7,7,0,2,2,2,1185.8460642020218,None,1185.8460642020218,None,1,5.2945452249841765,1185.8460642020218,None,1191.1728172660223,None,1191.1728172660223,None,1193.6772570940084,None,1193.6772570940084,None,1.3174023629981093,1195.4746398980496,None,1195.4746398980496,None,6,1,0.9849351869779639,1196.7849736080389,None,1196.7849736080389,None,1196.7849736080389,None,1197.7866189880297,None,1,0.5017624699976295,1197.7866189880297,None,78,1198.3041293830029,None,117,A,1,2021_May_25_1150,GazeFlow,2020.1.2,59.83355536429925,
8,Block510.xls,A,10,4,112,52,22,incongruent,Left,Right,Left,75,69,6,yellow,2,5,/home/docky/apps/exp/images/76Y.jpeg,/home/docky/apps/exp/images/69Yi.jpeg,0,7,7,7,0,3,3,3,1199.3057764040423,None,1199.3057764040423,None,1,5.144609223003499,1199.3057764040423,None,1204.4835696070222,None,1204.4835696070222,None,1206.9885256060516,None,1206.9885256060516,None,1.2673776610172354,1208.791950214014,None,1208.791950214014,None,5,1,0.9679269299958833,1210.0440118249971,None,1210.0440118249971,None,1210.0440118249971,None,1211.0286735150148,None,1,0.534323277999647,1211.0286735150148,None,80,1211.579448116012,None,117,A,1,2021_May_25_1150,GazeFlow,2020.1.2,59.83355536429925,
8,Block510.xls,A,10,5,17,17,11,congruent,Left,Left,Right,33,35,2,yellow,2,6,/home/docky/apps/exp/images/33Y.jpeg,/home/docky/apps/exp/images/35Yi.jpeg,0,7,7,7,0,4,4,4,1212.5814544080058,None,1212.5814544080058,None,1,6.980900854978245,1212.5814544080058,None,1219.5963891050196,None,1219.5963891050196,None,1222.0996116350289,None,1222.0996116350289,None,2.3700461980188265,1223.9022570190136,None,1223.9022570190136,None,5,0,1.3178825920331292,1226.2596766920178,None,1226.2596766920178,None,1226.2596766920178,None,1227.5939502710244,None,1,1.253247543994803,1227.5939502710244,None,78,1228.8635535030044,None,117,A,1,2021_May_25_1150,GazeFlow,2020.1.2,59.83355536429925,
8,Block510.xls,A,10,6,31,31,12,congruent,Right,Right,Left,19,16,3,blue,2,5,/home/docky/apps/exp/images/19Bi.jpeg,/home/docky/apps/exp/images/16B.jpeg,0,7,7,7,0,5,5,5,1229.8655301350518,None,1229.8655301350518,None,1,6.91363911901135,1229.8655301350518,None,1236.8126717500272,None,1236.8126717500272,None,1239.3161574030528,None,1239.3161574030528,None,0.9671542629948817,1241.118953288009,None,1241.118953288009,None,5,1,1.0848256340250373,1242.072828356002,None,1242.072828356002,None,1242.072828356002,None,1243.1744069340057,None,1,0.6016255359863862,1243.1744069340057,None,80,1243.7925974610262,None,117,A,1,2021_May_25_1150,GazeFlow,2020.1.2,59.83355536429925,
8,Block510.xls,A,10,7,61,1,21,incongruent,Right,Left,Right,16,19,3,blue,2,6,/home/docky/apps/exp/images/16Bi.jpeg,/home/docky/apps/exp/images/19B.jpeg,0,7,7,7,0,6,6,6,1244.7942381030298,None,1244.7942381030298,None,1,6.145856874994934,1244.7942381030298,None,1250.973934386042,None,1250.973934386042,None,1253.4786870400421,None,1253.4786870400421,None,1.4848514329642057,1255.2801245040027,None,1255.2801245040027,None,6,1,0.9524086940218695,1256.7513174330234,None,1256.7513174330234,None,1256.7513174330234,None,1257.719649976003,None,1,0.5840607860009186,1257.719649976003,None,82,1258.3203515400528,None,117,A,1,2021_May_25_1150,GazeFlow,2020.1.2,59.83355536429925,
8,Block510.xls,A,10,8,94,34,22,incongruent,Left,Right,Left,38,35,3,blue,2,5,/home/docky/apps/exp/images/38Bi.jpeg,/home/docky/apps/exp/images/35B.jpeg,0,7,7,7,0,7,7,7,1259.322384005005,None,1259.322384005005,None,1,6.212761137052439,1259.322384005005,None,1265.5690258649993,None,1265.5690258649993,None,1268.073825832049,None,1268.073825832049,None,3.1713304999866523,1269.8752967950422,None,1269.8752967950422,None,5,1,1.1193313369876705,1273.0486421130481,None,1273.0486421130481,None,1273.0486421130481,None,1274.1845143510145,None,1,0.4846948199556209,1274.1845143510145,None,84,1274.6856264020316,None,117,A,1,2021_May_25_1150,GazeFlow,2020.1.2,59.83355536429925,
8,Block510.xls,A,,,,,,,,,,,,,,,,,,0,7,7,7,,,,,,,,,,,,,,,,,,,,,,,,,,,,,,,,,,,,,,,,,,,,117,A,1,2021_May_25_1150,GazeFlow,2020.1.2,59.83355536429925,
9,Block507.xls,A,7,1,110,50,22,incongruent,Left,Right,Left,66,65,1,yellow,2,5,/home/docky/apps/exp/images/66Y.jpeg,/home/docky/apps/exp/images/35Bi.jpeg,0,8,8,8,0,0,0,0,1293.4725681220298,None,1293.4725681220298,None,1,6.069572360953316,1293.4725681220298,None,1299.565697638027,None,1299.565697638027,None,1302.0884146420285,None,1302.0884146420285,None,1.9514931199955754,1303.8918425100273,None,1303.8918425100273,None,6,0,0.968677309982013,1305.8299634720315,None,1305.8299634720315,None,1305.8299634720315,None,1306.8151692750398,None,1,0.5506729540065862,1306.8151692750398,None,82,1307.382553923002,None,117,A,1,2021_May_25_1150,GazeFlow,2020.1.2,59.83355536429925,
9,Block507.xls,A,7,2,90,30,22,incongruent,Right,Left,Right,16,19,3,blue,2,6,/home/docky/apps/exp/images/16Bi.jpeg,/home/docky/apps/exp/images/19B.jpeg,0,8,8,8,0,1,1,1,1308.384487356001,None,1308.384487356001,None,1,5.695062166021671,1308.384487356001,None,1314.1133875370142,None,1314.1133875370142,None,1316.615932065004,None,1316.615932065004,None,1.317461872997228,1318.4152696580277,None,1318.4152696580277,None,6,1,0.8510893479688093,1319.7236892040237,None,1319.7236892040237,None,1319.7236892040237,None,1320.5917664029985,None,1,0.51801257499028,1320.5917664029985,None,84,1321.1260351950186,None,117,A,1,2021_May_25_1150,GazeFlow,2020.1.2,59.83355536429925,
9,Block507.xls,A,7,3,16,16,11,congruent,Left,Left,Right,33,35,2,yellow,2,6,/home/docky/apps/exp/images/33Yi.jpeg,/home/docky/apps/exp/images/35Y.jpeg,0,8,8,8,0,2,2,2,1322.1275637390208,None,1322.1275637390208,None,1,5.294999895035289,1322.1275637390208,None,1327.455883816001,None,1327.455883816001,None,1329.9625366560067,None,1329.9625366560067,None,1.1838827000465244,1331.7624599930132,None,1331.7624599930132,None,6,1,0.7844710960052907,1332.9326248730067,None,1332.9326248730067,None,1332.9326248730067,None,1333.7334347980213,None,1,0.535275703005027,1333.7334347980213,None,86,1334.285246146028,None,117,A,1,2021_May_25_1150,GazeFlow,2020.1.2,59.83355536429925,
9,Block507.xls,A,7,4,117,57,22,incongruent,Left,Right,Left,77,72,5,yellow,2,5,/home/docky/apps/exp/images/77Y.jpeg,/home/docky/apps/exp/images/72Yi.jpeg,0,8,8,8,0,3,3,3,1335.286490582046,None,1335.286490582046,None,1,5.11077952303458,1335.286490582046,None,1340.4335881140432,None,1340.4335881140432,None,1342.934178363008,None,1342.934178363008,None,1.2005886400002055,1344.7376141970162,None,1344.7376141970162,None,5,1,1.051552022981923,1345.9246883030282,None,1345.9246883030282,None,1345.9246883030282,None,1346.992754563049,None,1,0.5014117789687589,1346.992754563049,None,88,1347.5108465920202,None,117,A,1,2021_May_25_1150,GazeFlow,2020.1.2,59.83355536429925,
9,Block507.xls,A,7,5,53,53,12,congruent,Right,Right,Left,75,69,6,yellow,2,5,/home/docky/apps/exp/images/76Yi.jpeg,/home/docky/apps/exp/images/69Y.jpeg,0,8,8,8,0,4,4,4,1348.512367782998,None,1348.512367782998,None,1,4.493272720021196,1348.512367782998,None,1353.0390028080437,None,1353.0390028080437,None,1355.5434221500182,None,1355.5434221500182,None,1.166869241045788,1357.3454975800123,None,1357.3454975800123,None,5,1,1.0854914069641382,1358.4988868189976,None,1358.4988868189976,None,1358.4988868189976,None,1359.6009895940078,None,1,0.7342569489846937,1359.6009895940078,None,90,1360.3520824880106,None,117,A,1,2021_May_25_1150,GazeFlow,2020.1.2,59.83355536429925,
9,Block507.xls,A,7,6,96,36,22,incongruent,Left,Right,Left,66,65,1,blue,2,5,/home/docky/apps/exp/images/66Bi.jpeg,/home/docky/apps/exp/images/35Y.jpeg,0,8,8,8,0,5,5,5,1361.3538641110063,None,1361.3538641110063,None,1,4.45947508700192,1361.3538641110063,None,1365.8483231680002,None,1365.8483231680002,None,1368.3505803860025,None,1368.3505803860025,None,2.5870194419985637,1370.1532941540354,None,1370.1532941540354,None,5,1,0.9692220170400105,1372.7421401210013,None,1372.7421401210013,None,1372.7421401210013,None,1373.7281201020232,None,1,0.4845540910027921,1373.7281201020232,None,92,1374.2297468340257,None,117,A,1,2021_May_25_1150,GazeFlow,2020.1.2,59.83355536429925,
9,Block507.xls,A,7,7,58,58,12,congruent,Right,Right,Left,77,72,5,yellow,2,5,/home/docky/apps/exp/images/77Yi.jpeg,/home/docky/apps/exp/images/72Y.jpeg,0,8,8,8,0,6,6,6,1375.2313910780358,None,1375.2313910780358,None,1,4.609078845998738,1375.2313910780358,None,1379.8742535060155,None,1379.8742535060155,None,1382.377552192018,None,1382.377552192018,None,1.2172320550307631,1384.180750214029,None,1384.180750214029,None,5,1,0.9009925770224072,1385.3847021770198,None,1385.3847021770198,None,1385.3847021770198,None,1386.3023777510389,None,1,0.5521044339984655,1386.3023777510389,None,94,1386.8706351540168,None,117,A,1,2021_May_25_1150,GazeFlow,2020.1.2,59.83355536429925,
9,Block507.xls,A,7,8,41,41,12,congruent,Right,Right,Left,79,76,3,blue,2,5,/home/docky/apps/exp/images/79Bi.jpeg,/home/docky/apps/exp/images/76B.jpeg,0,8,8,8,0,7,7,7,1387.8722779310192,None,1387.8722779310192,None,1,4.7100783009664156,1387.8722779310192,None,1392.6156448330148,None,1392.6156448330148,None,1395.1205818700255,None,1395.1205818700255,None,1.233856745006051,1396.9241912720026,None,1396.9241912720026,None,5,1,1.001537300995551,1398.1427218270255,None,1398.1427218270255,None,1398.1427218270255,None,1399.1609356710105,None,1,0.6848366450285539,1399.1609356710105,None,96,1399.8620595620014,None,117,A,1,2021_May_25_1150,GazeFlow,2020.1.2,59.83355536429925,
9,Block507.xls,A,,,,,,,,,,,,,,,,,,0,8,8,8,,,,,,,,,,,,,,,,,,,,,,,,,,,,,,,,,,,,,,,,,,,,117,A,1,2021_May_25_1150,GazeFlow,2020.1.2,59.83355536429925,
10,Block515.xls,A,15,1,107,47,22,incongruent,Left,Right,Left,35,33,2,yellow,2,5,/home/docky/apps/exp/images/35Yi.jpeg,/home/docky/apps/exp/images/33Y.jpeg,0,9,9,9,0,0,0,0,1421.4219843810424,None,1421.4219843810424,None,1,3.4815883630071767,1421.4219843810424,None,1424.9232907460537,None,1424.9232907460537,None,1427.4485891950317,None,1427.4485891950317,None,1.116355471953284,1429.252311785007,None,1429.252311785007,None,5,1,2.9553078649914823,1430.3552670990466,None,1430.3552670990466,None,1430.3552670990466,None,1433.3271018330124,None,1,1.1529055869905278,1433.3271018330124,None,98,1434.4964463460492,None,117,A,1,2021_May_25_1150,GazeFlow,2020.1.2,59.83355536429925,
10,Block515.xls,A,15,2,55,55,12,congruent,Right,Right,Left,76,69,7,yellow,2,5,/home/docky/apps/exp/images/76Yi.jpeg,/home/docky/apps/exp/images/69Y.jpeg,0,9,9,9,0,1,1,1,1435.4984128480428,None,1435.4984128480428,None,1,5.3439399369526654,1435.4984128480428,None,1440.8759769680328,None,1440.8759769680328,None,1443.3789485350135,None,1443.3789485350135,None,1.1670834429678507,1445.182292914018,None,1445.182292914018,None,5,1,0.8682219769689254,1446.3361840450088,None,1446.3361840450088,None,1446.3361840450088,None,1447.2207372210105,None,1,0.6185411179903895,1447.2207372210105,None,100,1447.8556988790515,None,117,A,1,2021_May_25_1150,GazeFlow,2020.1.2,59.83355536429925,
10,Block515.xls,A,15,3,75,15,21,incongruent,Right,Left,Right,33,35,2,yellow,2,6,/home/docky/apps/exp/images/33Yi.jpeg,/home/docky/apps/exp/images/35Y.jpeg,0,9,9,9,0,2,2,2,1448.8571497490047,None,1448.8571497490047,None,1,4.69336120801745,1448.8571497490047,None,1453.5841709020315,None,1453.5841709020315,None,1456.0887698380393,None,1456.0887698380393,None,3.605675147031434,1457.890996139031,None,1457.890996139031,None,5,0,1.0677837259718217,1461.4996531150537,None,1461.4996531150537,None,1461.4996531150537,None,1462.584092968027,None,1,0.4677897630026564,1462.584092968027,None,98,1463.0682477010414,None,117,A,1,2021_May_25_1150,GazeFlow,2020.1.2,59.83355536429925,
10,Block515.xls,A,15,4,62,2,21,incongruent,Right,Left,Right,35,38,3,blue,2,6,/home/docky/apps/exp/images/35Bi.jpeg,/home/docky/apps/exp/images/38B.jpeg,0,9,9,9,0,3,3,3,1464.0706261030282,None,1464.0706261030282,None,1,4.625892306037713,1464.0706261030282,None,1468.7302425300004,None,1468.7302425300004,None,1471.2337174190325,None,1471.2337174190325,None,1.3674487799871713,1473.036922889005,None,1473.036922889005,None,6,1,0.8679403380374424,1474.3907629640307,None,1474.3907629640307,None,1474.3907629640307,None,1475.2752934560413,None,1,0.5350715780514292,1475.2752934560413,None,100,1475.826780315023,None,117,A,1,2021_May_25_1150,GazeFlow,2020.1.2,59.83355536429925,
10,Block515.xls,A,15,5,100,40,22,incongruent,Left,Right,Left,79,76,3,blue,2,5,/home/docky/apps/exp/images/79Bi.jpeg,/home/docky/apps/exp/images/76B.jpeg,0,9,9,9,0,4,4,4,1476.8284826590098,None,1476.8284826590098,None,1,4.493057782994583,1476.8284826590098,None,1481.3562497230014,None,1481.3562497230014,None,1483.862855334999,None,1483.862855334999,None,1.1339464209740981,1485.6615511800046,None,1485.6615511800046,None,5,1,0.9843728729756549,1486.7815859770053,None,1486.7815859770053,None,1486.7815859770053,None,1487.782800205052,None,1,0.5019649760215543,1487.782800205052,None,102,1488.3005286109983,None,117,A,1,2021_May_25_1150,GazeFlow,2020.1.2,59.83355536429925,
10,Block515.xls,A,15,6,108,48,22,incongruent,Left,Right,Left,39,38,1,yellow,2,5,/home/docky/apps/exp/images/39Y.jpeg,/home/docky/apps/exp/images/38Yi.jpeg,0,9,9,9,0,5,5,5,1489.30245301401,None,1489.30245301401,None,1,5.595402674051002,1489.30245301401,None,1494.9363722690032,None,1494.9363722690032,None,1497.4358617860125,None,1497.4358617860125,None,6.210735578031745,1499.237486521015,None,1499.237486521015,None,6,0,1.0180317540070973,1505.4514097440406,None,1505.4514097440406,None,1505.4514097440406,None,1506.4856417080155,None,1,0.5345824789837934,1506.4856417080155,None,100,1507.0369227390038,None,117,A,1,2021_May_25_1150,GazeFlow,2020.1.2,59.83355536429925,
10,Block515.xls,A,15,7,59,59,12,congruent,Right,Right,Left,80,79,1,yellow,2,5,/home/docky/apps/exp/images/80Y.jpeg,/home/docky/apps/exp/images/79Yi.jpeg,0,9,9,9,0,6,6,6,1508.039373312029,None,1508.039373312029,None,1,5.093885897949804,1508.039373312029,None,1513.1666640250478,None,1513.1666640250478,None,1515.6699612610391,None,1515.6699612610391,None,1.8516843380057253,1517.4680578440311,None,1517.4680578440311,None,6,0,0.8685562530299649,1519.3113022690522,None,1519.3113022690522,None,1519.3113022690522,None,1520.19621542003,None,1,0.6176048339693807,1520.19621542003,None,98,1520.8306026600185,None,117,A,1,2021_May_25_1150,GazeFlow,2020.1.2,59.83355536429925,
10,Block515.xls,A,15,8,8,8,11,congruent,Left,Left,Right,38,39,1,blue,2,6,/home/docky/apps/exp/images/38B.jpeg,/home/docky/apps/exp/images/39Bi.jpeg,0,9,9,9,0,7,7,7,1521.8328021030175,None,1521.8328021030175,None,1,6.830295966006815,1521.8328021030175,None,1528.6965603530407,None,1528.6965603530407,None,1531.2030070450273,None,1531.2030070450273,None,6.260992207971867,1533.002898491046,None,1533.002898491046,None,6,1,0.9691006669891067,1539.2657938000048,None,1539.2657938000048,None,1539.2657938000048,None,1540.2515651480062,None,1,0.5007959480280988,1540.2515651480062,None,100,1540.769371700997,None,117,A,1,2021_May_25_1150,GazeFlow,2020.1.2,59.83355536429925,
10,Block515.xls,A,,,,,,,,,,,,,,,,,,0,9,9,9,,,,,,,,,,,,,,,,,,,,,,,,,,,,,,,,,,,,,,,,,,,,117,A,1,2021_May_25_1150,GazeFlow,2020.1.2,59.83355536429925,
11,Block512.xls,A,12,1,30,30,11,congruent,Left,Left,Right,79,82,3,yellow,2,6,/home/docky/apps/exp/images/79Yi.jpeg,/home/docky/apps/exp/images/80Y.jpeg,0,10,10,10,0,0,0,0,1561.0438386080205,None,1561.0438386080205,None,1,5.329208334966097,1561.0438386080205,None,1566.3957851140294,None,1566.3957851140294,None,1568.9235568389995,None,1568.9235568389995,None,6.911512076039799,1570.7100554750068,None,1570.7100554750068,None,6,1,1.051164670032449,1577.6251905320096,None,1577.6251905320096,None,1577.6251905320096,None,1578.6928314590477,None,1,0.6179327619611286,1578.6928314590477,None,102,1579.3275892590173,None,117,A,1,2021_May_25_1150,GazeFlow,2020.1.2,59.83355536429925,
11,Block512.xls,A,12,2,115,55,22,incongruent,Left,Right,Left,76,69,7,yellow,2,5,/home/docky/apps/exp/images/76Yi.jpeg,/home/docky/apps/exp/images/69Y.jpeg,0,10,10,10,0,1,1,1,1580.3297140340437,None,1580.3297140340437,None,1,8.450020537013188,1580.3297140340437,None,1588.8136067890446,None,1588.8136067890446,None,1591.3165520690382,None,1591.3165520690382,None,1.1174257569946349,1593.1206607340137,None,1593.1206607340137,None,5,1,1.0181687980075367,1594.2235348960385,None,1594.2235348960385,None,1594.2235348960385,None,1595.2583661460085,None,1,0.4685862369951792,1595.2583661460085,None,104,1595.7429032550426,None,117,A,1,2021_May_25_1150,GazeFlow,2020.1.2,59.83355536429925,
11,Block512.xls,A,12,3,66,6,21,incongruent,Right,Left,Right,38,39,1,blue,2,6,/home/docky/apps/exp/images/38B.jpeg,/home/docky/apps/exp/images/39Bi.jpeg,0,10,10,10,0,2,2,2,1596.7445940060425,None,1596.7445940060425,None,1,4.743652770994231,1596.7445940060425,None,1601.5215671220212,None,1601.5215671220212,None,1604.024241170031,None,1604.024241170031,None,1.0834122570231557,1605.8282393690315,None,1605.8282393690315,None,5,0,1.001337961992249,1606.8983805180178,None,1606.8983805180178,None,1606.8983805180178,None,1607.9162911370513,None,1,0.48437624803045765,1607.9162911370513,None,102,1608.4172315500327,None,117,A,1,2021_May_25_1150,GazeFlow,2020.1.2,59.83355536429925,
11,Block512.xls,A,12,4,35,35,12,congruent,Right,Right,Left,66,65,1,blue,2,5,/home/docky/apps/exp/images/66B.jpeg,/home/docky/apps/exp/images/35Yi.jpeg,0,10,10,10,0,3,3,3,1609.4195486050448,None,1609.4195486050448,None,1,4.291906202968676,1609.4195486050448,None,1613.7454598310287,None,1613.7454598310287,None,1616.2485496120062,None,1616.2485496120062,None,0.9836760379839689,1618.0522812890122,None,1618.0522812890122,None,5,1,1.051443415984977,1619.0217890990316,None,1619.0217890990316,None,1619.0217890990316,None,1620.090028326027,None,1,0.5342388559947722,1620.090028326027,None,104,1620.641835168004,None,117,A,1,2021_May_25_1150,GazeFlow,2020.1.2,59.83355536429925,
11,Block512.xls,A,12,5,40,40,12,congruent,Right,Right,Left,79,76,3,blue,2,5,/home/docky/apps/exp/images/79Bi.jpeg,/home/docky/apps/exp/images/76B.jpeg,0,10,10,10,0,4,4,4,1621.6427673110156,None,1621.6427673110156,None,1,4.543519694998395,1621.6427673110156,None,1626.2196467160247,None,1626.2196467160247,None,1628.7224620990455,None,1628.7224620990455,None,0.9166069600032642,1630.5207016220083,None,1630.5207016220083,None,5,1,0.9848676300025545,1631.4293082040385,None,1631.4293082040385,None,1631.4293082040385,None,1632.430492465035,None,1,0.5852823710301891,1632.430492465035,None,106,1633.032170304039,None,117,A,1,2021_May_25_1150,GazeFlow,2020.1.2,59.83355536429925,
11,Block512.xls,A,12,6,64,4,21,incongruent,Right,Left,Right,65,66,1,blue,2,6,/home/docky/apps/exp/images/35Yi.jpeg,/home/docky/apps/exp/images/66B.jpeg,0,10,10,10,0,5,5,5,1634.0337128840038,None,1634.0337128840038,None,1,4.793787906994112,1634.0337128840038,None,1638.8609877460403,None,1638.8609877460403,None,1641.3643942020135,None,1641.3643942020135,None,1.3338778120232746,1643.168961485033,None,1643.168961485033,None,6,1,0.9853336139931343,1644.487908514042,None,1644.487908514042,None,1644.487908514042,None,1645.4896401230362,None,1,0.6341763010132127,1645.4896401230362,None,108,1646.140675889037,None,117,A,1,2021_May_25_1150,GazeFlow,2020.1.2,59.83355536429925,
11,Block512.xls,A,12,7,12,12,11,congruent,Left,Left,Right,76,79,3,blue,2,6,/home/docky/apps/exp/images/76B.jpeg,/home/docky/apps/exp/images/79Bi.jpeg,0,10,10,10,0,6,6,6,1647.1423840310308,None,1647.1423840310308,None,1,6.26346188003663,1647.1423840310308,None,1653.4390453380183,None,1653.4390453380183,None,1655.9422488080454,None,1655.9422488080454,None,1.350743966002483,1657.7460498720175,None,1657.7460498720175,None,6,1,0.9514678189880215,1659.0829197820276,None,1659.0829197820276,None,1659.0829197820276,None,1660.050658502034,None,1,0.5358724409597926,1660.050658502034,None,110,1660.6021801620373,None,117,A,1,2021_May_25_1150,GazeFlow,2020.1.2,59.83355536429925,
11,Block512.xls,A,12,8,49,49,12,congruent,Right,Right,Left,39,38,1,yellow,2,5,/home/docky/apps/exp/images/39Y.jpeg,/home/docky/apps/exp/images/38Yi.jpeg,0,10,10,10,0,7,7,7,1661.603988673014,None,1661.603988673014,None,1,5.644931174989324,1661.603988673014,None,1667.282996198046,None,1667.282996198046,None,1669.7857533130446,None,1669.7857533130446,None,1.1837209799559787,1671.5881756290328,None,1671.5881756290328,None,5,1,0.9346867380081676,1672.759638934047,None,1672.759638934047,None,1672.759638934047,None,1673.7108782540308,None,1,0.46864329103846103,1673.7108782540308,None,112,1674.1952631510212,None,117,A,1,2021_May_25_1150,GazeFlow,2020.1.2,59.83355536429925,
11,Block512.xls,A,,,,,,,,,,,,,,,,,,0,10,10,10,,,,,,,,,,,,,,,,,,,,,,,,,,,,,,,,,,,,,,,,,,,,117,A,1,2021_May_25_1150,GazeFlow,2020.1.2,59.83355536429925,
12,Block503.xls,A,3,1,22,22,11,congruent,Left,Left,Right,62,65,3,yellow,2,6,/home/docky/apps/exp/images/38Bi.jpeg,/home/docky/apps/exp/images/35B.jpeg,0,11,11,11,0,0,0,0,1695.8061094700242,None,1695.8061094700242,None,1,9.304051515995525,1695.8061094700242,None,1705.1400374390068,None,1705.1400374390068,None,1707.6590838340344,None,1707.6590838340344,None,1.0498485959833488,1709.4414637490408,None,1709.4414637490408,None,6,1,0.9178324399981648,1710.482840473007,None,1710.482840473007,None,1710.482840473007,None,1711.4172501440044,None,1,0.6678925400483422,1711.4172501440044,None,114,1712.1024268400506,None,117,A,1,2021_May_25_1150,GazeFlow,2020.1.2,59.83355536429925,
12,Block503.xls,A,3,2,65,5,21,incongruent,Right,Left,Right,65,66,1,blue,2,6,/home/docky/apps/exp/images/35Y.jpeg,/home/docky/apps/exp/images/66Bi.jpeg,0,11,11,11,0,1,1,1,1713.103952962032,None,1713.103952962032,None,1,6.012807294959202,1713.103952962032,None,1719.1502116390038,None,1719.1502116390038,None,1721.6528955710237,None,1721.6528955710237,None,1.2170539519865997,1723.451720659039,None,1723.451720659039,None,6,1,0.934799118025694,1724.6603793950053,None,1724.6603793950053,None,1724.6603793950053,None,1725.6115317150252,None,1,0.6022830380243249,1725.6115317150252,None,116,1726.229915347998,None,117,A,1,2021_May_25_1150,GazeFlow,2020.1.2,59.83355536429925,
12,Block503.xls,A,3,3,76,16,21,incongruent,Right,Left,Right,33,35,2,yellow,2,6,/home/docky/apps/exp/images/33Y.jpeg,/home/docky/apps/exp/images/35Yi.jpeg,0,11,11,11,0,2,2,2,1727.2312551850337,None,1727.2312551850337,None,1,5.194892474042717,1727.2312551850337,None,1732.460394572001,None,1732.460394572001,None,1734.9640998670366,None,1734.9640998670366,None,3.2883350999909453,1736.7661412840243,None,1736.7661412840243,None,6,1,0.9673923949594609,1740.057545164018,None,1740.057545164018,None,1740.057545164018,None,1741.04179125902,None,1,0.7180431439774111,1741.04179125902,None,118,1741.7767130110296,None,117,A,1,2021_May_25_1150,GazeFlow,2020.1.2,59.83355536429925,
12,Block503.xls,A,3,4,29,29,11,congruent,Left,Left,Right,79,82,3,yellow,2,6,/home/docky/apps/exp/images/79Y.jpeg,/home/docky/apps/exp/images/80Yi.jpeg,0,11,11,11,0,3,3,3,1742.7786889460403,None,1742.7786889460403,None,1,6.145952010003384,1742.7786889460403,None,1748.9586672169971,None,1748.9586672169971,None,1751.462846926006,None,1751.462846926006,None,1.6848063940415159,1753.2643861360266,None,1753.2643861360266,None,6,1,0.8348906699684449,1754.9359006620361,None,1754.9359006620361,None,1754.9359006620361,None,1755.787322090997,None,1,0.48406105604954064,1755.787322090997,None,120,1756.2877707330044,None,117,A,1,2021_May_25_1150,GazeFlow,2020.1.2,59.83355536429925,
12,Block503.xls,A,3,5,103,43,22,incongruent,Left,Right,Left,39,38,1,blue,2,5,/home/docky/apps/exp/images/39Bi.jpeg,/home/docky/apps/exp/images/38B.jpeg,0,11,11,11,0,4,4,4,1757.290201144002,None,1757.290201144002,None,1,8.182880095031578,1757.290201144002,None,1765.506952028023,None,1765.506952028023,None,1768.0123852980323,None,1768.0123852980323,None,1.9849916899693199,1769.8137803900172,None,1769.8137803900172,None,5,1,1.0514985410263762,1771.7852956640418,None,1771.7852956640418,None,1771.7852956640418,None,1772.8531508750166,None,1,0.5178866619826294,1772.8531508750166,None,122,1773.3879025240312,None,117,A,1,2021_May_25_1150,GazeFlow,2020.1.2,59.83355536429925,
12,Block503.xls,A,3,6,47,47,12,congruent,Right,Right,Left,35,33,2,yellow,2,5,/home/docky/apps/exp/images/35Yi.jpeg,/home/docky/apps/exp/images/33Y.jpeg,0,11,11,11,0,5,5,5,1774.3893534790259,None,1774.3893534790259,None,1,6.364031713048462,1774.3893534790259,None,1780.786883466004,None,1780.786883466004,None,1783.290995804011,None,1783.290995804011,None,0.966653372044675,1785.0933682990144,None,1785.0933682990144,None,5,1,3.8412846800056286,1786.0461788190296,None,1786.0461788190296,None,1786.0461788190296,None,1789.9035413290258,None,1,0.9020649259909987,1789.9035413290258,None,124,1790.8220260960516,None,117,A,1,2021_May_25_1150,GazeFlow,2020.1.2,59.83355536429925,
12,Block503.xls,A,3,7,20,20,11,congruent,Left,Left,Right,65,66,1,yellow,2,6,/home/docky/apps/exp/images/35Bi.jpeg,/home/docky/apps/exp/images/66Y.jpeg,0,11,11,11,0,6,6,6,1791.824028966017,None,1791.824028966017,None,1,6.7466552699916065,1791.824028966017,None,1798.6051482620533,None,1798.6051482620533,None,1801.107860556047,None,1801.107860556047,None,1.317472329013981,1802.9113579720142,None,1802.9113579720142,None,5,0,1.135554244974628,1804.2150132730021,None,1804.2150132730021,None,1804.2150132730021,None,1805.3670343820122,None,1,0.8510920510161668,1805.3670343820122,None,122,1806.2350122790085,None,117,A,1,2021_May_25_1150,GazeFlow,2020.1.2,59.83355536429925,
12,Block503.xls,A,3,8,27,27,11,congruent,Left,Left,Right,72,77,5,yellow,2,6,/home/docky/apps/exp/images/72Yi.jpeg,/home/docky/apps/exp/images/77Y.jpeg,0,11,11,11,0,7,7,7,1807.2370023270487,None,1807.2370023270487,None,1,6.430251170997508,1807.2370023270487,None,1813.7025867670309,None,1813.7025867670309,None,1816.20521370403,None,1816.20521370403,None,1.2009259500191547,1818.0069602790172,None,1818.0069602790172,None,6,1,0.8678386459941976,1819.1940846630023,None,1819.1940846630023,None,1819.1940846630023,None,1820.078578251996,None,1,0.5681123049580492,1820.078578251996,None,124,1820.6628053140012,None,117,A,1,2021_May_25_1150,GazeFlow,2020.1.2,59.83355536429925,
12,Block503.xls,A,,,,,,,,,,,,,,,,,,0,11,11,11,,,,,,,,,,,,,,,,,,,,,,,,,,,,,,,,,,,,,,,,,,,,117,A,1,2021_May_25_1150,GazeFlow,2020.1.2,59.83355536429925,
13,Block501.xls,A,1,1,54,54,12,congruent,Right,Right,Left,75,69,6,yellow,2,5,/home/docky/apps/exp/images/76Y.jpeg,/home/docky/apps/exp/images/69Yi.jpeg,0,12,12,12,0,0,0,0,1842.1900268660393,None,1842.1900268660393,None,1,5.885177507007029,1842.1900268660393,None,1848.0966934010503,None,1848.0966934010503,None,1850.6221896560164,None,1850.6221896560164,None,0.8323855489725247,1852.4192088230047,None,1852.4192088230047,None,5,1,3.022398976958357,1853.2434894200414,None,1853.2434894200414,None,1853.2434894200414,None,1856.281698572042,None,1,0.9529754249961115,1856.281698572042,None,126,1857.2511049790191,None,117,A,1,2021_May_25_1150,GazeFlow,2020.1.2,59.83355536429925,
13,Block501.xls,A,1,2,70,10,21,incongruent,Right,Left,Right,73,76,3,blue,2,6,/home/docky/apps/exp/images/73Bi.jpeg,/home/docky/apps/exp/images/76B.jpeg,0,12,12,12,0,1,1,1,1858.2533138270373,None,1858.2533138270373,None,1,5.728277504967991,1858.2533138270373,None,1864.0147309510503,None,1864.0147309510503,None,1866.5194715679972,None,1866.5194715679972,None,1.6347808670252562,1868.3209962170222,None,1868.3209962170222,None,6,1,2.9388410869869404,1869.9424925910425,None,1869.9424925910425,None,1869.9424925910425,None,1872.898057428014,None,1,0.885334505001083,1872.898057428014,None,128,1873.7997968459968,None,117,A,1,2021_May_25_1150,GazeFlow,2020.1.2,59.83355536429925,
13,Block501.xls,A,1,3,84,24,21,incongruent,Right,Left,Right,69,76,7,yellow,2,6,/home/docky/apps/exp/images/69Yi.jpeg,/home/docky/apps/exp/images/76Y.jpeg,0,12,12,12,0,2,2,2,1874.8018549690023,None,1874.8018549690023,None,1,6.11213935300475,1874.8018549690023,None,1880.947709056025,None,1880.947709056025,None,1883.45270725101,None,1883.45270725101,None,1.317479513993021,1885.2563095900114,None,1885.2563095900114,None,6,1,1.0014752570423298,1886.5581348889973,None,1886.5581348889973,None,1886.5581348889973,None,1887.576043033041,None,1,0.6849148220499046,1887.576043033041,None,130,1888.2777714450494,None,117,A,1,2021_May_25_1150,GazeFlow,2020.1.2,59.83355536429925,
13,Block501.xls,A,1,4,26,26,11,congruent,Left,Left,Right,69,75,6,yellow,2,6,/home/docky/apps/exp/images/69Y.jpeg,/home/docky/apps/exp/images/76Yi.jpeg,0,12,12,12,0,3,3,3,1889.2794303800329,None,1889.2794303800329,None,1,5.478245315025561,1889.2794303800329,None,1894.791384613025,None,1894.791384613025,None,1897.2945749650244,None,1897.2945749650244,None,1.1171219709794968,1899.0973162990413,None,1899.0973162990413,None,6,1,0.8679993000114337,1900.201438366028,None,1900.201438366028,None,1900.201438366028,None,1901.085828796029,None,1,0.7184778390219435,1901.085828796029,None,132,1901.8208093480207,None,117,A,1,2021_May_25_1150,GazeFlow,2020.1.2,59.83355536429925,
13,Block501.xls,A,1,5,97,37,22,incongruent,Left,Right,Left,79,73,6,blue,2,5,/home/docky/apps/exp/images/79B.jpeg,/home/docky/apps/exp/images/73Bi.jpeg,0,12,12,12,0,4,4,4,1902.8225270340336,None,1902.8225270340336,None,1,6.062456521030981,1902.8225270340336,None,1908.918724339048,None,1908.918724339048,None,1911.4222634820035,None,1911.4222634820035,None,1.1336855229455978,1913.2273357300437,None,1913.2273357300437,None,5,1,1.067977997008711,1914.3454772340483,None,1914.3454772340483,None,1914.3454772340483,None,1915.4302864799974,None,1,0.8015427169739269,1915.4302864799974,None,134,1916.2486483040266,None,117,A,1,2021_May_25_1150,GazeFlow,2020.1.2,59.83355536429925,
13,Block501.xls,A,1,6,98,38,22,incongruent,Left,Right,Left,79,73,6,blue,2,5,/home/docky/apps/exp/images/79B.jpeg,/home/docky/apps/exp/images/73Bi.jpeg,0,12,12,12,0,5,5,5,1917.2502787670237,None,1917.2502787670237,None,1,5.311717909004074,1917.2502787670237,None,1922.5951810670085,None,1922.5951810670085,None,1925.0985860440414,None,1925.0985860440414,None,1.016875023022294,1926.9019256470492,None,1926.9019256470492,None,5,1,1.0349362029810436,1927.9050395830418,None,1927.9050395830418,None,1927.9050395830418,None,1928.956774528022,None,1,0.5675831070402637,1928.956774528022,None,136,1929.540896591032,None,117,A,1,2021_May_25_1150,GazeFlow,2020.1.2,59.83355536429925,
13,Block501.xls,A,1,7,77,17,21,incongruent,Right,Left,Right,65,66,1,yellow,2,6,/home/docky/apps/exp/images/35B.jpeg,/home/docky/apps/exp/images/66Yi.jpeg,0,12,12,12,0,6,6,6,1930.5429974810104,None,1930.5429974810104,None,1,4.743582727969624,1930.5429974810104,None,1935.3197682480095,None,1935.3197682480095,None,1937.8235849980265,None,1937.8235849980265,None,3.3221819790196605,1939.6268740820233,None,1939.6268740820233,None,6,1,0.7668837049859576,1942.9517372500268,None,1942.9517372500268,None,1942.9517372500268,None,1943.735158000025,None,1,0.5344702260335907,1943.735158000025,None,138,1944.2860988340108,None,117,A,1,2021_May_25_1150,GazeFlow,2020.1.2,59.83355536429925,
13,Block501.xls,A,1,8,50,50,12,congruent,Right,Right,Left,66,65,1,yellow,2,5,/home/docky/apps/exp/images/66Y.jpeg,/home/docky/apps/exp/images/35Bi.jpeg,0,12,12,12,0,7,7,7,1945.2887803980266,None,1945.2887803980266,None,1,5.8617898120428436,1945.2887803980266,None,1951.1839378059958,None,1951.1839378059958,None,1953.6891279120464,None,1953.6891279120464,None,11.587765054020565,1955.4854355790303,None,1955.4854355790303,None,6,0,0.8006239170208573,1967.0815645770053,None,1967.0815645770053,None,1967.0815645770053,None,1967.8988418760127,None,1,0.5177952789817937,1967.8988418760127,None,136,1968.433201301028,None,117,A,1,2021_May_25_1150,GazeFlow,2020.1.2,59.83355536429925,
13,Block501.xls,A,,,,,,,,,,,,,,,,,,0,12,12,12,,,,,,,,,,,,,,,,,,,,,,,,,,,,,,,,,,,,,,,,,,,,117,A,1,2021_May_25_1150,GazeFlow,2020.1.2,59.83355536429925,
14,Block513.xls,A,13,1,32,32,12,congruent,Right,Right,Left,19,16,3,blue,2,5,/home/docky/apps/exp/images/19B.jpeg,/home/docky/apps/exp/images/16Bi.jpeg,0,13,13,13,0,0,0,0,1989.3410145980306,None,1989.3410145980306,None,1,10.260483705962542,1989.3410145980306,None,1999.6276748560485,None,1999.6276748560485,None,2002.1499408460222,None,2002.1499408460222,None,1.0663173510110937,2003.9517688430496,None,2003.9517688430496,None,5,1,0.9849035950028338,2005.0048143060412,None,2005.0048143060412,None,2005.0048143060412,None,2006.00624720403,None,1,0.5343317280057818,2006.00624720403,None,138,2006.5571726890048,None,117,A,1,2021_May_25_1150,GazeFlow,2020.1.2,59.83355536429925,
14,Block513.xls,A,13,2,81,21,21,incongruent,Right,Left,Right,38,39,1,yellow,2,6,/home/docky/apps/exp/images/38Yi.jpeg,/home/docky/apps/exp/images/39Y.jpeg,0,13,13,13,0,1,1,1,2007.5593556570238,None,2007.5593556570238,None,1,4.726478796976153,2007.5593556570238,None,2012.3192980910535,None,2012.3192980910535,None,2014.8229262460372,None,2014.8229262460372,None,2.2695667049847543,2016.6261579359998,None,2016.6261579359998,None,6,1,0.9171134640346281,2018.8825940440292,None,2018.8825940440292,None,2018.8825940440292,None,2019.8163773069973,None,1,0.5510813879664056,2019.8163773069973,None,140,2020.3841703840299,None,117,A,1,2021_May_25_1150,GazeFlow,2020.1.2,59.83355536429925,
14,Block513.xls,A,13,3,92,32,22,incongruent,Left,Right,Left,19,16,3,blue,2,5,/home/docky/apps/exp/images/19B.jpeg,/home/docky/apps/exp/images/16Bi.jpeg,0,13,13,13,0,2,2,2,2021.386624036997,None,2021.386624036997,None,1,5.611103963979986,2021.386624036997,None,2027.03162149305,None,2027.03162149305,None,2029.5346326780273,None,2029.5346326780273,None,1.4177570560132153,2031.3375796800246,None,2031.3375796800246,None,5,1,1.2858423730358481,2032.7418740070425,None,2032.7418740070425,None,2032.7418740070425,None,2034.0442855450092,None,1,0.5512321770074777,2034.0442855450092,None,142,2034.6117805970134,None,117,A,1,2021_May_25_1150,GazeFlow,2020.1.2,59.83355536429925,
14,Block513.xls,A,13,4,6,6,11,congruent,Left,Left,Right,65,66,1,blue,2,6,/home/docky/apps/exp/images/35Y.jpeg,/home/docky/apps/exp/images/66Bi.jpeg,0,13,13,13,0,3,3,3,2035.6138161310228,None,2035.6138161310228,None,1,5.127317686972674,2035.6138161310228,None,2040.7746791810496,None,2040.7746791810496,None,2043.2782757300301,None,2043.2782757300301,None,0.9168044260004535,2045.0830090740346,None,2045.0830090740346,None,6,1,3.3057963280007243,2045.9844496840378,None,2045.9844496840378,None,2045.9844496840378,None,2049.307243595016,None,1,0.8861619959934615,2049.307243595016,None,144,2050.2091753900168,None,117,A,1,2021_May_25_1150,GazeFlow,2020.1.2,59.83355536429925,
14,Block513.xls,A,13,5,67,7,21,incongruent,Right,Left,Right,38,39,1,blue,2,6,/home/docky/apps/exp/images/38Bi.jpeg,/home/docky/apps/exp/images/39B.jpeg,0,13,13,13,0,4,4,4,2051.211161813,None,2051.211161813,None,1,5.194305840006564,2051.211161813,None,2056.438583863026,None,2056.438583863026,None,2058.941666689003,None,2058.941666689003,None,1.0168599810567684,2060.7456227240036,None,2060.7456227240036,None,5,0,2.7717116299900226,2061.7485915599973,None,2061.7485915599973,None,2061.7485915599973,None,2064.5367065110477,None,1,0.7349069559713826,2064.5367065110477,None,142,2065.2883979000035,None,117,A,1,2021_May_25_1150,GazeFlow,2020.1.2,59.83355536429925,
14,Block513.xls,A,13,6,111,51,22,incongruent,Left,Right,Left,66,65,1,yellow,2,5,/home/docky/apps/exp/images/66Yi.jpeg,/home/docky/apps/exp/images/35B.jpeg,0,13,13,13,0,5,5,5,2066.2904639820335,None,2066.2904639820335,None,1,5.511368884006515,2066.2904639820335,None,2071.8351958350395,None,2071.8351958350395,None,2074.3386909170076,None,2074.3386909170076,None,1.1504174760193564,2076.1417956890073,None,2076.1417956890073,None,5,1,1.0515902999904938,2077.2786106380518,None,2077.2786106380518,None,2077.2786106380518,None,2078.34676493,None,1,0.5854390360182151,2078.34676493,None,144,2078.9483473410364,None,117,A,1,2021_May_25_1150,GazeFlow,2020.1.2,59.83355536429925,
14,Block513.xls,A,13,7,88,28,21,incongruent,Right,Left,Right,79,82,3,yellow,2,6,/home/docky/apps/exp/images/79Y.jpeg,/home/docky/apps/exp/images/80Yi.jpeg,0,13,13,13,0,6,6,6,2079.9497636960004,None,2079.9497636960004,None,1,5.3616874100407586,2079.9497636960004,None,2085.344460549997,None,2085.344460549997,None,2087.849715417018,None,2087.849715417018,None,1.0169061679625884,2089.650903416041,None,2089.650903416041,None,6,1,0.8676229270058684,2090.6547140729963,None,2090.6547140729963,None,2090.6547140729963,None,2091.5389491210226,None,1,0.9356814160128124,2091.5389491210226,None,146,2092.4911331030307,None,117,A,1,2021_May_25_1150,GazeFlow,2020.1.2,59.83355536429925,
14,Block513.xls,A,13,8,14,14,11,congruent,Left,Left,Right,80,83,3,blue,2,6,/home/docky/apps/exp/images/80B.jpeg,/home/docky/apps/exp/images/83Bi.jpeg,0,13,13,13,0,7,7,7,2093.49292497203,None,2093.49292497203,None,1,5.34476311999606,2093.49292497203,None,2098.8710364190047,None,2098.8710364190047,None,2101.37569461402,None,2101.37569461402,None,1.083918617980089,2103.17738051404,None,2103.17738051404,None,6,1,2.0697788940160535,2104.2478589350358,None,2104.2478589350358,None,2104.2478589350358,None,2106.3343151560402,None,1,0.534819481021259,2106.3343151560402,None,148,2106.885699364997,None,117,A,1,2021_May_25_1150,GazeFlow,2020.1.2,59.83355536429925,
14,Block513.xls,A,,,,,,,,,,,,,,,,,,0,13,13,13,,,,,,,,,,,,,,,,,,,,,,,,,,,,,,,,,,,,,,,,,,,,117,A,1,2021_May_25_1150,GazeFlow,2020.1.2,59.83355536429925,
15,Block514.xls,A,14,1,113,53,22,incongruent,Left,Right,Left,75,69,6,yellow,2,5,/home/docky/apps/exp/images/76Y.jpeg,/home/docky/apps/exp/images/69Yi.jpeg,0,14,14,14,0,0,0,0,2127.6615677110385,None,2127.6615677110385,None,1,7.267999118019361,2127.6615677110385,None,2134.959269136016,None,2134.959269136016,None,2137.4795234210324,None,2137.4795234210324,None,0.9324647769681178,2139.281492711045,None,2139.281492711045,None,5,1,1.0515477659646422,2140.2008936380153,None,2140.2008936380153,None,2140.2008936380153,None,2141.2690619450295,None,1,0.6187195790116675,2141.2690619450295,None,150,2141.903975227033,None,117,A,1,2021_May_25_1150,GazeFlow,2020.1.2,59.83355536429925,
15,Block514.xls,A,14,2,45,45,12,congruent,Right,Right,Left,39,38,1,blue,2,5,/home/docky/apps/exp/images/39B.jpeg,/home/docky/apps/exp/images/38Bi.jpeg,0,14,14,14,0,1,1,1,2142.9054603950353,None,2142.9054603950353,None,1,6.7643680179608054,2142.9054603950353,None,2149.7032165160053,None,2149.7032165160053,None,2152.207731142,None,2152.207731142,None,0.9001016069669276,2154.0100965560414,None,2154.0100965560414,None,5,1,1.051501834008377,2154.895978651999,None,2154.895978651999,None,2154.895978651999,None,2155.964087794011,None,1,0.6685358369722962,2155.964087794011,None,152,2156.6494091640343,None,117,A,1,2021_May_25_1150,GazeFlow,2020.1.2,59.83355536429925,
15,Block514.xls,A,14,3,52,52,12,congruent,Right,Right,Left,75,69,6,yellow,2,5,/home/docky/apps/exp/images/76Y.jpeg,/home/docky/apps/exp/images/69Yi.jpeg,0,14,14,14,0,2,2,2,2157.650788155035,None,2157.650788155035,None,1,5.294343268033117,2157.650788155035,None,2162.9786826290074,None,2162.9786826290074,None,2165.4816942400066,None,2165.4816942400066,None,0.9501242720289156,2167.2873226490337,None,2167.2873226490337,None,5,1,1.0516182860010304,2168.2218599520274,None,2168.2218599520274,None,2168.2218599520274,None,2169.290028177027,None,1,0.6183450889657252,2169.290028177027,None,154,2169.925242610043,None,117,A,1,2021_May_25_1150,GazeFlow,2020.1.2,59.83355536429925,
15,Block514.xls,A,14,4,106,46,22,incongruent,Left,Right,Left,35,33,2,yellow,2,5,/home/docky/apps/exp/images/35Yi.jpeg,/home/docky/apps/exp/images/33Y.jpeg,0,14,14,14,0,3,3,3,2170.9267007480375,None,2170.9267007480375,None,1,4.8768130950047635,2170.9267007480375,None,2175.837146361009,None,2175.837146361009,None,2178.342040790012,None,2178.342040790012,None,2.0688227610080503,2180.1442099960404,None,2180.1442099960404,None,5,1,1.0685404760297388,2182.1991654340527,None,2182.1991654340527,None,2182.1991654340527,None,2183.2838453330332,None,1,0.7183102559647523,2183.2838453330332,None,156,2184.0186451420304,None,117,A,1,2021_May_25_1150,GazeFlow,2020.1.2,59.83355536429925,
15,Block514.xls,A,14,5,109,49,22,incongruent,Left,Right,Left,39,38,1,yellow,2,5,/home/docky/apps/exp/images/39Yi.jpeg,/home/docky/apps/exp/images/38Y.jpeg,0,14,14,14,0,4,4,4,2185.021449903026,None,2185.021449903026,None,1,6.212015719967894,2185.021449903026,None,2191.2649198970175,None,2191.2649198970175,None,2193.7703212030465,None,2193.7703212030465,None,8.515079406963196,2195.569045356009,None,2195.569045356009,None,6,0,0.9677400970249437,2204.092142166046,None,2204.092142166046,None,2204.092142166046,None,2205.0762235630536,None,1,0.5344982629758306,2205.0762235630536,None,154,2205.6272478150204,None,117,A,1,2021_May_25_1150,GazeFlow,2020.1.2,59.83355536429925,
15,Block514.xls,A,14,6,89,29,21,incongruent,Right,Left,Right,79,82,3,yellow,2,6,/home/docky/apps/exp/images/79Yi.jpeg,/home/docky/apps/exp/images/80Y.jpeg,0,14,14,14,0,5,5,5,2206.62972202705,None,2206.62972202705,None,1,5.176923720049672,2206.62972202705,None,2211.8405522740213,None,2211.8405522740213,None,2214.3438293120125,None,2214.3438293120125,None,3.004469300969504,2216.1466110790498,None,2216.1466110790498,None,6,1,0.8673563170013949,2219.1546994679957,None,2219.1546994679957,None,2219.1546994679957,None,2220.038759345014,None,1,0.5845344950212166,2220.038759345014,None,156,2220.639667848998,None,117,A,1,2021_May_25_1150,GazeFlow,2020.1.2,59.83355536429925,
15,Block514.xls,A,14,7,91,31,22,incongruent,Left,Right,Left,19,16,3,blue,2,5,/home/docky/apps/exp/images/19Bi.jpeg,/home/docky/apps/exp/images/16B.jpeg,0,14,14,14,0,6,6,6,2221.6422062820056,None,2221.6422062820056,None,1,6.312291809997987,2221.6422062820056,None,2227.9882870470174,None,2227.9882870470174,None,2230.491828911996,None,2230.491828911996,None,1.1672604919876903,2232.294880709029,None,2232.294880709029,None,5,1,1.0850908359861933,2233.448491434043,None,2233.448491434043,None,2233.448491434043,None,2234.5501091990154,None,1,0.45160103298258036,2234.5501091990154,None,158,2235.0182397280005,None,117,A,1,2021_May_25_1150,GazeFlow,2020.1.2,59.83355536429925,
15,Block514.xls,A,14,8,79,19,21,incongruent,Right,Left,Right,62,65,3,yellow,2,6,/home/docky/apps/exp/images/38B.jpeg,/home/docky/apps/exp/images/35Bi.jpeg,0,14,14,14,0,7,7,7,2236.0197520010406,None,2236.0197520010406,None,1,4.960774927982129,2236.0197520010406,None,2241.0123184950207,None,2241.0123184950207,None,2243.5184186310507,None,2243.5184186310507,None,1.1669168079970405,2245.319976906001,None,2245.319976906001,None,5,0,1.0352757779764943,2246.473927758052,None,2246.473927758052,None,2246.473927758052,None,2247.5255044250516,None,1,0.518430749012623,2247.5255044250516,None,156,2248.0601358890417,None,117,A,1,2021_May_25_1150,GazeFlow,2020.1.2,59.83355536429925,
15,Block514.xls,A,,,,,,,,,,,,,,,,,,0,14,14,14,,,,,,,,,,,,,,,,,,,,,,,,,,,,,,,,,,,,,,,,,,,,117,A,1,2021_May_25_1150,GazeFlow,2020.1.2,59.83355536429925,
