Nblock,condsFile,grouping,Block,TrialBlock,N,trialN,trialCond,gazeCon,gazedirR,corrBinR,corrBinP,valLBY,valRBY,diff,colorCube,feedbacktext,corrAns,imageL,imageR,SelBlocks.thisRepN,SelBlocks.thisTrialN,SelBlocks.thisN,SelBlocks.thisIndex,Trials.thisRepN,Trials.thisTrialN,Trials.thisN,Trials.thisIndex,waitCube.started,waitCube.stopped,text_3.started,text_3.stopped,StartKeyPress.keys,StartKeyPress.rt,StartKeyPress.started,StartKeyPress.stopped,StimL.started,StimL.stopped,StimR.started,StimR.stopped,imageStim2L.started,imageStim2L.stopped,imageStim2R.started,imageStim2R.stopped,RTkeyRelease,imageStim3L.started,imageStim3L.stopped,imageStim3R.started,imageStim3R.stopped,dropResp.keys,dropResp.corr,dropResp.rt,dropResp.started,dropResp.stopped,imageStim5L.started,imageStim5L.stopped,imageStim5R.started,imageStim5R.stopped,text_2.started,text_2.stopped,ReturnSpace.keys,ReturnSpace.rt,ReturnSpace.started,ReturnSpace.stopped,totalpoints,textFeedback.started,textFeedback.stopped,participant,group,session,date,expName,psychopyVersion,frameRate,
1,Block809.xls,B,9,1,93,93,None,congruent,Right,Right,Left,80,79,1,yellow,2,5,/home/docky/apps/exp/images/80Y.jpeg,/home/docky/apps/exp/images/79Yi.jpeg,0,0,0,0,0,0,0,0,28.52539242900002,None,28.52539242900002,None,1,32.63444917000015,28.52539242900002,None,61.18968738000012,None,61.18968738000012,None,63.71047574300019,None,63.71047574300019,None,1.4336964730000545,65.51151512700017,None,65.51151512700017,None,5,1,3.7574230109999007,66.92961980600012,None,66.92961980600012,None,66.92961980600012,None,70.70331483300015,None,1,0.8018185890000495,70.70331483300015,None,2,71.5214561329999,None,118,B,1,2021_May_26_0933,GazeFlow,2020.1.2,59.9583393867835,
1,Block809.xls,B,9,2,15,15,None,congruent,Left,Left,Right,38,39,1,blue,2,6,/home/docky/apps/exp/images/38B.jpeg,/home/docky/apps/exp/images/39Bi.jpeg,0,0,0,0,0,1,1,1,72.52333022999983,None,72.52333022999983,None,1,4.542441102000339,72.52333022999983,None,77.09961031900002,None,77.09961031900002,None,79.60427824099997,None,79.60427824099997,None,1.6180337280002277,81.40584541299995,None,81.40584541299995,None,5,0,1.0517356029999974,83.01079531000005,None,83.01079531000005,None,83.01079531000005,None,84.07915726400006,None,1,2.071255822999774,84.07915726400006,None,0,86.16651704000014,None,118,B,1,2021_May_26_0933,GazeFlow,2020.1.2,59.9583393867835,
1,Block809.xls,B,9,3,117,21,None,incongruent,Left,Right,Left,39,38,1,yellow,2,5,/home/docky/apps/exp/images/39Yi.jpeg,/home/docky/apps/exp/images/38Y.jpeg,0,0,0,0,0,2,2,2,87.16852182499997,None,87.16852182499997,None,1,4.959833331000027,87.16852182499997,None,92.16214650499978,None,92.16214650499978,None,94.6706111630001,None,94.6706111630001,None,1.6008677240001816,96.46874638600002,None,96.46874638600002,None,6,0,1.1027552959999412,98.05627297299998,None,98.05627297299998,None,98.05627297299998,None,99.1750856220001,None,1,0.8178500789999816,99.1750856220001,None,-2,100.00974343300004,None,118,B,1,2021_May_26_0933,GazeFlow,2020.1.2,59.9583393867835,
1,Block809.xls,B,9,4,94,94,None,congruent,Right,Right,Left,80,79,1,yellow,2,5,/home/docky/apps/exp/images/80Y.jpeg,/home/docky/apps/exp/images/79Yi.jpeg,0,0,0,0,0,3,3,3,101.01196921200017,None,101.01196921200017,None,1,4.074773940999876,101.01196921200017,None,105.1204670080001,None,105.1204670080001,None,107.62367967599994,None,107.62367967599994,None,1.3172429730002477,109.42656747599995,None,109.42656747599995,None,5,1,1.0186041189999742,110.73085623599991,None,110.73085623599991,None,110.73085623599991,None,111.76610206299983,None,1,0.7509407709999323,111.76610206299983,None,0,112.53379462400017,None,118,B,1,2021_May_26_0933,GazeFlow,2020.1.2,59.9583393867835,
1,Block809.xls,B,9,5,41,41,None,congruent,Right,Right,Left,79,76,3,blue,2,5,/home/docky/apps/exp/images/79Bi.jpeg,/home/docky/apps/exp/images/76B.jpeg,0,0,0,0,0,4,4,4,113.53560506900021,None,113.53560506900021,None,1,4.125494033999985,113.53560506900021,None,117.69491161499991,None,117.69491161499991,None,120.20360124099989,None,120.20360124099989,None,1.3675404659998094,121.9960233679999,None,121.9960233679999,None,5,1,1.00200312700008,123.35528464199979,None,123.35528464199979,None,123.35528464199979,None,124.3735710699998,None,1,0.667996488999961,124.3735710699998,None,2,125.05813166899998,None,118,B,1,2021_May_26_0933,GazeFlow,2020.1.2,59.9583393867835,
1,Block809.xls,B,9,6,36,36,None,congruent,Right,Right,Left,79,73,6,blue,2,5,/home/docky/apps/exp/images/79Bi.jpeg,/home/docky/apps/exp/images/73B.jpeg,0,0,0,0,0,5,5,5,126.06048511600011,None,126.06048511600011,None,1,3.891126467999584,126.06048511600011,None,129.98523485399983,None,129.98523485399983,None,132.4885274180001,None,132.4885274180001,None,1.5176250620002065,134.2923234939999,None,134.2923234939999,None,5,1,0.9687775709999187,135.79596261000006,None,135.79596261000006,None,135.79596261000006,None,136.78133029599985,None,1,0.8177754729999833,136.78133029599985,None,4,137.61573276399986,None,118,B,1,2021_May_26_0933,GazeFlow,2020.1.2,59.9583393867835,
1,Block809.xls,B,9,7,78,78,None,congruent,Right,Right,Left,39,38,1,yellow,2,5,/home/docky/apps/exp/images/39Yi.jpeg,/home/docky/apps/exp/images/38Y.jpeg,0,0,0,0,0,6,6,6,138.6180657660002,None,138.6180657660002,None,1,5.210470267999881,138.6180657660002,None,143.86241325699984,None,143.86241325699984,None,146.36489735399982,None,146.36489735399982,None,1.3508448930001578,148.16274213899987,None,148.16274213899987,None,5,1,0.9847828399997525,149.50618188599992,None,149.50618188599992,None,149.50618188599992,None,150.5070358869998,None,1,0.7017749159999767,150.5070358869998,None,6,151.2254135359999,None,118,B,1,2021_May_26_0933,GazeFlow,2020.1.2,59.9583393867835,
1,Block809.xls,B,9,8,29,29,None,congruent,Right,Right,Left,38,35,3,blue,2,5,/home/docky/apps/exp/images/38B.jpeg,/home/docky/apps/exp/images/35Bi.jpeg,0,0,0,0,0,7,7,7,152.22778590899998,None,152.22778590899998,None,1,4.209035790999678,152.22778590899998,None,156.47029814500002,None,156.47029814500002,None,158.97323027899984,None,158.97323027899984,None,1.8181482540003344,160.7765318490001,None,160.7765318490001,None,5,1,0.9692762869999569,162.581248813,None,162.581248813,None,162.581248813,None,163.56640001699998,None,1,0.6842889019999348,163.56640001699998,None,8,164.2676227080001,None,118,B,1,2021_May_26_0933,GazeFlow,2020.1.2,59.9583393867835,
1,Block809.xls,B,,,,,,,,,,,,,,,,,,0,0,0,0,,,,,,,,,,,,,,,,,,,,,,,,,,,,,,,,,,,,,,,,,,,,118,B,1,2021_May_26_0933,GazeFlow,2020.1.2,59.9583393867835,
2,Block805.xls,B,5,1,16,16,None,congruent,Left,Left,Right,73,76,3,blue,2,6,/home/docky/apps/exp/images/73B.jpeg,/home/docky/apps/exp/images/76Bi.jpeg,0,1,1,1,0,0,0,0,184.60877968000023,None,184.60877968000023,None,1,4.380282929999794,184.60877968000023,None,189.02063490299997,None,189.02063490299997,None,191.53805894000016,None,191.53805894000016,None,1.2832539179999003,193.34161585999982,None,193.34161585999982,None,6,1,1.051590731000033,194.61012992199994,None,194.61012992199994,None,194.61012992199994,None,195.67843550399994,None,1,0.6180915119998645,195.67843550399994,None,10,196.3127872619998,None,118,B,1,2021_May_26_0933,GazeFlow,2020.1.2,59.9583393867835,
2,Block805.xls,B,5,2,2,2,None,congruent,Left,Left,Right,16,19,3,blue,2,6,/home/docky/apps/exp/images/16B.jpeg,/home/docky/apps/exp/images/19Bi.jpeg,0,1,1,1,0,1,1,1,197.31500842800006,None,197.31500842800006,None,1,3.80796241500002,197.31500842800006,None,201.1567358289999,None,201.1567358289999,None,203.65969613700008,None,203.65969613700008,None,1.183728823000365,205.4632110460002,None,205.4632110460002,None,6,1,0.9347519540001485,206.63355847799994,None,206.63355847799994,None,206.63355847799994,None,207.5849042320001,None,1,0.5684108880000167,207.5849042320001,None,12,208.16966490599998,None,118,B,1,2021_May_26_0933,GazeFlow,2020.1.2,59.9583393867835,
2,Block805.xls,B,5,3,64,64,None,congruent,Left,Left,Right,69,76,7,yellow,2,6,/home/docky/apps/exp/images/69Y.jpeg,/home/docky/apps/exp/images/76Yi.jpeg,0,1,1,1,0,2,2,2,209.17107821499985,None,209.17107821499985,None,1,3.4412172719999035,209.17107821499985,None,212.6468277529998,None,212.6468277529998,None,215.15349995399993,None,215.15349995399993,None,1.26718671000026,216.9536524680002,None,216.9536524680002,None,6,1,0.9342443109999294,218.20604983800013,None,218.20604983800013,None,218.20604983800013,None,219.15732238600003,None,1,0.6184596759999295,219.15732238600003,None,14,219.79230272899986,None,118,B,1,2021_May_26_0933,GazeFlow,2020.1.2,59.9583393867835,
2,Block805.xls,B,5,4,61,61,None,congruent,Left,Left,Right,38,39,1,yellow,2,6,/home/docky/apps/exp/images/38Yi.jpeg,/home/docky/apps/exp/images/39Y.jpeg,0,1,1,1,0,3,3,3,220.79367689699984,None,220.79367689699984,None,1,3.8420315799999116,220.79367689699984,None,224.66900769999984,None,224.66900769999984,None,227.17238644500003,None,227.17238644500003,None,1.5688455599997724,228.97580342899982,None,228.97580342899982,None,6,1,1.0184349090000069,230.53013584100017,None,230.53013584100017,None,230.53013584100017,None,231.56520008100006,None,1,0.5844494500001929,231.56520008100006,None,16,232.16586750499982,None,118,B,1,2021_May_26_0933,GazeFlow,2020.1.2,59.9583393867835,
2,Block805.xls,B,5,5,23,23,None,congruent,Left,Left,Right,80,83,3,blue,2,6,/home/docky/apps/exp/images/80B.jpeg,/home/docky/apps/exp/images/83Bi.jpeg,0,1,1,1,0,4,4,4,233.16792998900019,None,233.16792998900019,None,1,3.8580433649999577,233.16792998900019,None,237.05970690100003,None,237.05970690100003,None,239.56445978800002,None,239.56445978800002,None,1.1336936620000415,241.36692251700015,None,241.36692251700015,None,6,1,0.9012534100002085,242.48655996700018,None,242.48655996700018,None,242.48655996700018,None,243.40425198999992,None,1,0.5351020879998032,243.40425198999992,None,18,243.95589052900004,None,118,B,1,2021_May_26_0933,GazeFlow,2020.1.2,59.9583393867835,
2,Block805.xls,B,5,6,87,87,None,congruent,Right,Right,Left,76,69,7,yellow,2,5,/home/docky/apps/exp/images/76Yi.jpeg,/home/docky/apps/exp/images/69Y.jpeg,0,1,1,1,0,5,5,5,244.9573169800001,None,244.9573169800001,None,1,3.7751124379997236,244.9573169800001,None,248.76428433799992,None,248.76428433799992,None,251.2693758219998,None,251.2693758219998,None,1.0835289999999986,253.0675242970001,None,253.0675242970001,None,5,1,0.9010563649999312,254.14265422000017,None,254.14265422000017,None,254.14265422000017,None,255.06028073800007,None,1,0.6354425650001758,255.06028073800007,None,20,255.71206569200012,None,118,B,1,2021_May_26_0933,GazeFlow,2020.1.2,59.9583393867835,
2,Block805.xls,B,5,7,4,4,None,congruent,Left,Left,Right,35,38,3,blue,2,6,/home/docky/apps/exp/images/35B.jpeg,/home/docky/apps/exp/images/38Bi.jpeg,0,1,1,1,0,6,6,6,256.713747108,None,256.713747108,None,1,3.9080827369998588,256.713747108,None,260.65542884800016,None,260.65542884800016,None,263.1605556300001,None,263.1605556300001,None,1.2005090879997624,264.9640390280001,None,264.9640390280001,None,6,1,0.9847115659999872,266.14920339699984,None,266.14920339699984,None,266.14920339699984,None,267.15058905700016,None,1,0.4674689510002281,267.15058905700016,None,22,267.6353490239999,None,118,B,1,2021_May_26_0933,GazeFlow,2020.1.2,59.9583393867835,
2,Block805.xls,B,5,8,114,18,None,incongruent,Right,Left,Right,79,82,3,yellow,2,6,/home/docky/apps/exp/images/79Y.jpeg,/home/docky/apps/exp/images/80Yi.jpeg,0,1,1,1,0,7,7,7,268.63687947300014,None,268.63687947300014,None,1,3.507449317999999,268.63687947300014,None,272.1827685019998,None,272.1827685019998,None,274.68269801299994,None,274.68269801299994,None,2.4033496100000775,276.484498882,None,276.484498882,None,6,1,1.151109588000054,278.8747114890002,None,278.8747114890002,None,278.8747114890002,None,280.04209264500014,None,1,0.5349796450000213,280.04209264500014,None,24,280.59325798400005,None,118,B,1,2021_May_26_0933,GazeFlow,2020.1.2,59.9583393867835,
2,Block805.xls,B,,,,,,,,,,,,,,,,,,0,1,1,1,,,,,,,,,,,,,,,,,,,,,,,,,,,,,,,,,,,,,,,,,,,,118,B,1,2021_May_26_0933,GazeFlow,2020.1.2,59.9583393867835,
3,Block804.xls,B,4,1,95,95,None,congruent,Right,Right,Left,80,79,1,yellow,2,5,/home/docky/apps/exp/images/80Yi.jpeg,/home/docky/apps/exp/images/79Y.jpeg,0,2,2,2,0,0,0,0,303.24143605100016,None,303.24143605100016,None,1,5.930256994000047,303.24143605100016,None,309.20344247,None,309.20344247,None,311.7216795730001,None,311.7216795730001,None,1.4001620289996026,313.52520603999983,None,313.52520603999983,None,5,1,0.8341958460000569,314.9108503130001,None,314.9108503130001,None,314.9108503130001,None,315.7617928899999,None,1,0.5183520559999124,315.7617928899999,None,26,316.2966032879999,None,118,B,1,2021_May_26_0933,GazeFlow,2020.1.2,59.9583393867835,
3,Block804.xls,B,4,2,107,11,None,incongruent,Left,Right,Left,83,80,3,blue,2,5,/home/docky/apps/exp/images/83Bi.jpeg,/home/docky/apps/exp/images/80B.jpeg,0,2,2,2,0,1,1,1,317.29819219499996,None,317.29819219499996,None,1,3.9413619340002697,317.29819219499996,None,321.2737449219999,None,321.2737449219999,None,323.77822542700005,None,323.77822542700005,None,1.5847360269999626,325.5799952130001,None,325.5799952130001,None,5,1,0.8683934589998898,327.15121241399993,None,327.15121241399993,None,327.15121241399993,None,328.0359281340002,None,1,0.48479892700015625,328.0359281340002,None,28,328.5368190449999,None,118,B,1,2021_May_26_0933,GazeFlow,2020.1.2,59.9583393867835,
3,Block804.xls,B,4,3,27,27,None,congruent,Right,Right,Left,19,16,3,blue,2,5,/home/docky/apps/exp/images/19Bi.jpeg,/home/docky/apps/exp/images/16B.jpeg,0,2,2,2,0,2,2,2,329.53861672799985,None,329.53861672799985,None,1,4.7102479370000765,329.53861672799985,None,334.28025979699987,None,334.28025979699987,None,336.7854562819998,None,336.7854562819998,None,1.2509382480002387,338.58896750700023,None,338.58896750700023,None,5,1,0.868231041999934,339.8258215860001,None,339.8258215860001,None,339.8258215860001,None,340.7102562979999,None,1,0.5685051299997212,340.7102562979999,None,30,341.29514318300016,None,118,B,1,2021_May_26_0933,GazeFlow,2020.1.2,59.9583393867835,
3,Block804.xls,B,4,4,101,5,None,incongruent,Right,Left,Right,76,79,3,blue,2,6,/home/docky/apps/exp/images/76B.jpeg,/home/docky/apps/exp/images/79Bi.jpeg,0,2,2,2,0,3,3,3,342.2970065600002,None,342.2970065600002,None,1,3.6406686079999417,342.2970065600002,None,345.9717427149999,None,345.9717427149999,None,348.47649649999994,None,348.47649649999994,None,1.267121632999988,350.27887035599997,None,350.27887035599997,None,6,1,0.8512326979998761,351.5319792629998,None,351.5319792629998,None,351.5319792629998,None,352.39973706399996,None,1,0.5351252850000492,352.39973706399996,None,32,352.9511685120001,None,118,B,1,2021_May_26_0933,GazeFlow,2020.1.2,59.9583393867835,
3,Block804.xls,B,4,5,47,47,None,congruent,Right,Right,Left,39,38,1,blue,2,5,/home/docky/apps/exp/images/39Bi.jpeg,/home/docky/apps/exp/images/38B.jpeg,0,2,2,2,0,4,4,4,353.9529889810001,None,353.9529889810001,None,1,3.3236637970003358,353.9529889810001,None,357.3111297800001,None,357.3111297800001,None,359.815233668,None,359.815233668,None,1.1507007290001638,361.61886759300023,None,361.61886759300023,None,5,1,0.9179206529997828,362.75393699899996,None,362.75393699899996,None,362.75393699899996,None,363.6881725170001,None,1,0.5352886219998254,363.6881725170001,None,34,364.2397086830001,None,118,B,1,2021_May_26_0933,GazeFlow,2020.1.2,59.9583393867835,
3,Block804.xls,B,4,6,90,90,None,congruent,Right,Right,Left,77,72,5,yellow,2,5,/home/docky/apps/exp/images/77Yi.jpeg,/home/docky/apps/exp/images/72Y.jpeg,0,2,2,2,0,5,5,5,365.24138506400004,None,365.24138506400004,None,1,3.658380226999725,365.24138506400004,None,368.9331528020002,None,368.9331528020002,None,371.4380578800001,None,371.4380578800001,None,1.2673325939999813,373.2413308270002,None,373.2413308270002,None,5,1,0.8344106029999239,374.49338364000005,None,374.49338364000005,None,374.49338364000005,None,375.3444799560002,None,1,0.5009946709997166,375.3444799560002,None,36,375.86212870400004,None,118,B,1,2021_May_26_0933,GazeFlow,2020.1.2,59.9583393867835,
3,Block804.xls,B,4,7,12,12,None,congruent,Left,Left,Right,38,39,1,blue,2,6,/home/docky/apps/exp/images/38B.jpeg,/home/docky/apps/exp/images/39Bi.jpeg,0,2,2,2,0,6,6,6,376.8640638490001,None,376.8640638490001,None,1,3.5743784920000508,376.8640638490001,None,380.472158475,None,380.472158475,None,382.9771632490001,None,382.9771632490001,None,1.4175654619998568,384.7803350620002,None,384.7803350620002,None,6,1,0.8681092619999617,386.1828426390002,None,386.1828426390002,None,386.1828426390002,None,387.0672898490002,None,1,0.6184330700002647,387.0672898490002,None,38,387.7023652990001,None,118,B,1,2021_May_26_0933,GazeFlow,2020.1.2,59.9583393867835,
3,Block804.xls,B,4,8,20,20,None,congruent,Left,Left,Right,76,79,3,blue,2,6,/home/docky/apps/exp/images/76Bi.jpeg,/home/docky/apps/exp/images/79B.jpeg,0,2,2,2,0,7,7,7,388.7037153800002,None,388.7037153800002,None,1,3.5415089359999,388.7037153800002,None,392.27857454800005,None,392.27857454800005,None,394.7832964260001,None,394.7832964260001,None,1.083692560000145,396.58505588200023,None,396.58505588200023,None,6,1,0.8511313990002236,397.65526937899995,None,397.65526937899995,None,397.65526937899995,None,398.5228820870002,None,1,0.5351841889996649,398.5228820870002,None,40,399.07440934199985,None,118,B,1,2021_May_26_0933,GazeFlow,2020.1.2,59.9583393867835,
3,Block804.xls,B,,,,,,,,,,,,,,,,,,0,2,2,2,,,,,,,,,,,,,,,,,,,,,,,,,,,,,,,,,,,,,,,,,,,,118,B,1,2021_May_26_0933,GazeFlow,2020.1.2,59.9583393867835,
4,Block814.xls,B,14,1,99,3,None,incongruent,Right,Left,Right,65,66,1,blue,2,6,/home/docky/apps/exp/images/35Yi.jpeg,/home/docky/apps/exp/images/66B.jpeg,0,3,3,3,0,0,0,0,419.28261581100014,None,419.28261581100014,None,1,3.82951532900006,419.28261581100014,None,423.1455799790001,None,423.1455799790001,None,425.6587800080001,None,425.6587800080001,None,1.2666050860002542,427.4640770589999,None,427.4640770589999,None,5,0,0.8509627919997911,428.7158204739999,None,428.7158204739999,None,428.7158204739999,None,429.5833678459999,None,1,0.618994346999898,429.5833678459999,None,38,430.21857932700004,None,118,B,1,2021_May_26_0933,GazeFlow,2020.1.2,59.9583393867835,
4,Block814.xls,B,14,2,34,34,None,congruent,Right,Right,Left,66,65,1,blue,2,5,/home/docky/apps/exp/images/66B.jpeg,/home/docky/apps/exp/images/35Yi.jpeg,0,3,3,3,0,1,1,1,431.21991913700003,None,431.21991913700003,None,1,4.109357052999712,431.21991913700003,None,435.36305260100016,None,435.36305260100016,None,437.8657912909998,None,437.8657912909998,None,1.1176200849999987,439.668659251,None,439.668659251,None,5,1,0.8847945350003101,440.7724930610002,None,440.7724930610002,None,440.7724930610002,None,441.6738965579998,None,1,0.5850091639999846,441.6738965579998,None,40,442.2756225070002,None,118,B,1,2021_May_26_0933,GazeFlow,2020.1.2,59.9583393867835,
4,Block814.xls,B,14,3,91,91,None,congruent,Right,Right,Left,77,72,5,yellow,2,5,/home/docky/apps/exp/images/77Yi.jpeg,/home/docky/apps/exp/images/72Y.jpeg,0,3,3,3,0,2,2,2,443.277250395,None,443.277250395,None,1,3.6580541050002466,443.277250395,None,446.9686003349998,None,446.9686003349998,None,449.4751498720002,None,449.4751498720002,None,1.2340625480001108,451.27465139000014,None,451.27465139000014,None,5,1,0.8347798290001265,452.4954541279999,None,452.4954541279999,None,452.4954541279999,None,453.3464063719998,None,1,0.45178487299972403,453.3464063719998,None,42,453.81420781099996,None,118,B,1,2021_May_26_0933,GazeFlow,2020.1.2,59.9583393867835,
4,Block814.xls,B,14,4,68,68,None,congruent,Left,Left,Right,72,77,5,yellow,2,6,/home/docky/apps/exp/images/72Yi.jpeg,/home/docky/apps/exp/images/77Y.jpeg,0,3,3,3,0,3,3,3,454.81632635899996,None,454.81632635899996,None,1,3.3905172159998074,454.81632635899996,None,458.24045579999984,None,458.24045579999984,None,460.7498413930002,None,460.7498413930002,None,1.1672785010000553,462.5489747669999,None,462.5489747669999,None,6,1,0.7844236819996695,463.7008248440002,None,463.7008248440002,None,463.7008248440002,None,464.50178206600003,None,1,0.4850942420002866,464.50178206600003,None,44,465.003033683,None,118,B,1,2021_May_26_0933,GazeFlow,2020.1.2,59.9583393867835,
4,Block814.xls,B,14,5,66,66,None,congruent,Left,Left,Right,69,76,7,yellow,2,6,/home/docky/apps/exp/images/69Yi.jpeg,/home/docky/apps/exp/images/76Y.jpeg,0,3,3,3,0,4,4,4,466.004762819,None,466.004762819,None,1,3.1239486370000122,466.004762819,None,469.1618641119999,None,469.1618641119999,None,471.66453855500004,None,471.66453855500004,None,1.1505899049998334,473.46887580400016,None,473.46887580400016,None,6,1,0.8684881249996579,474.6051838530002,None,474.6051838530002,None,474.6051838530002,None,475.48961213099983,None,1,0.5519482009999592,475.48961213099983,None,46,476.05800600500015,None,118,B,1,2021_May_26_0933,GazeFlow,2020.1.2,59.9583393867835,
4,Block814.xls,B,14,6,115,19,None,incongruent,Left,Right,Left,80,79,1,yellow,2,5,/home/docky/apps/exp/images/80Yi.jpeg,/home/docky/apps/exp/images/79Y.jpeg,0,3,3,3,0,5,5,5,477.05942537600004,None,477.05942537600004,None,1,3.2575674559998333,477.05942537600004,None,480.3502802480002,None,480.3502802480002,None,482.8549631000001,None,482.8549631000001,None,1.1337174870000126,484.6590594139998,None,484.6590594139998,None,5,1,0.8678726199996163,485.7772194009999,None,485.7772194009999,None,485.7772194009999,None,486.661504875,None,1,0.46859103199994934,486.661504875,None,48,487.14634479899996,None,118,B,1,2021_May_26_0933,GazeFlow,2020.1.2,59.9583393867835,
4,Block814.xls,B,14,7,9,9,None,congruent,Left,Left,Right,65,66,1,blue,2,6,/home/docky/apps/exp/images/35Yi.jpeg,/home/docky/apps/exp/images/66B.jpeg,0,3,3,3,0,6,6,6,488.14792486299984,None,488.14792486299984,None,1,3.4407756919999883,488.14792486299984,None,491.62239523200014,None,491.62239523200014,None,494.1253465640002,None,494.1253465640002,None,1.250589391000176,495.9286315610002,None,495.9286315610002,None,5,0,0.868033528000069,497.1660868859999,None,497.1660868859999,None,497.1660868859999,None,498.0503065490002,None,1,0.4512054890001309,498.0503065490002,None,46,498.51821324499997,None,118,B,1,2021_May_26_0933,GazeFlow,2020.1.2,59.9583393867835,
4,Block814.xls,B,14,8,14,14,None,congruent,Left,Left,Right,38,39,1,blue,2,6,/home/docky/apps/exp/images/38Bi.jpeg,/home/docky/apps/exp/images/39B.jpeg,0,3,3,3,0,7,7,7,499.519865364,None,499.519865364,None,1,4.943856887000038,499.519865364,None,504.49761128599994,None,504.49761128599994,None,507.00086409999994,None,507.00086409999994,None,1.1836020419996203,508.805862103,None,508.805862103,None,6,1,0.8678948940000737,509.97439752399987,None,509.97439752399987,None,509.97439752399987,None,510.8589862670001,None,1,0.5521715459999541,510.8589862670001,None,48,511.42713585499996,None,118,B,1,2021_May_26_0933,GazeFlow,2020.1.2,59.9583393867835,
4,Block814.xls,B,,,,,,,,,,,,,,,,,,0,3,3,3,,,,,,,,,,,,,,,,,,,,,,,,,,,,,,,,,,,,,,,,,,,,118,B,1,2021_May_26_0933,GazeFlow,2020.1.2,59.9583393867835,
5,Block812.xls,B,12,1,18,18,None,congruent,Left,Left,Right,73,76,3,blue,2,6,/home/docky/apps/exp/images/73B.jpeg,/home/docky/apps/exp/images/76Bi.jpeg,0,4,4,4,0,0,0,0,537.094987988,None,537.094987988,None,1,3.7275700649997816,537.094987988,None,540.857506805,None,540.857506805,None,543.3734478669999,None,543.3734478669999,None,1.5841744190001918,545.1699988370001,None,545.1699988370001,None,6,1,1.0020154239996373,546.7462413500002,None,546.7462413500002,None,546.7462413500002,None,547.76474616,None,1,0.5673166480000873,547.76474616,None,50,548.348881546,None,118,B,1,2021_May_26_0933,GazeFlow,2020.1.2,59.9583393867835,
5,Block812.xls,B,12,2,3,3,None,congruent,Left,Left,Right,16,19,3,blue,2,6,/home/docky/apps/exp/images/16Bi.jpeg,/home/docky/apps/exp/images/19B.jpeg,0,4,4,4,0,1,1,1,549.350866237,None,549.350866237,None,1,3.6410416879998593,549.350866237,None,553.0255323749998,None,553.0255323749998,None,555.528372193,None,555.528372193,None,1.3339149950002138,557.3320336299998,None,557.3320336299998,None,6,1,0.8512362429996756,558.6527404130002,None,558.6527404130002,None,558.6527404130002,None,559.5205806939998,None,1,0.5679962439999144,559.5205806939998,None,52,560.1051521969998,None,118,B,1,2021_May_26_0933,GazeFlow,2020.1.2,59.9583393867835,
5,Block812.xls,B,12,3,56,56,None,congruent,Left,Left,Right,62,65,3,yellow,2,6,/home/docky/apps/exp/images/38Bi.jpeg,/home/docky/apps/exp/images/35B.jpeg,0,4,4,4,0,2,2,2,561.1071450059999,None,561.1071450059999,None,1,3.5074609570001485,561.1071450059999,None,564.6484341629998,None,564.6484341629998,None,567.1510773790001,None,567.1510773790001,None,1.3510780870001327,568.954764521,None,568.954764521,None,5,0,0.9678718890004347,570.2923591530002,None,570.2923591530002,None,570.2923591530002,None,571.2770173509998,None,1,0.4683623549999538,571.2770173509998,None,50,571.7615473860001,None,118,B,1,2021_May_26_0933,GazeFlow,2020.1.2,59.9583393867835,
5,Block812.xls,B,12,4,11,11,None,congruent,Left,Left,Right,38,39,1,blue,2,6,/home/docky/apps/exp/images/38B.jpeg,/home/docky/apps/exp/images/39Bi.jpeg,0,4,4,4,0,3,3,3,572.7631122580001,None,572.7631122580001,None,1,4.6098391419996005,572.7631122580001,None,577.406815107,None,577.406815107,None,579.914412354,None,579.914412354,None,1.0503890669997418,581.7149201920001,None,581.7149201920001,None,6,1,0.8681581199998618,582.7498317210002,None,582.7498317210002,None,582.7498317210002,None,583.6344098119998,None,1,0.5851199619996805,583.6344098119998,None,52,584.2360007480002,None,118,B,1,2021_May_26_0933,GazeFlow,2020.1.2,59.9583393867835,
5,Block812.xls,B,12,5,116,20,None,incongruent,Left,Right,Left,35,33,2,yellow,2,5,/home/docky/apps/exp/images/35Yi.jpeg,/home/docky/apps/exp/images/33Y.jpeg,0,4,4,4,0,4,4,4,585.2377394780001,None,585.2377394780001,None,1,3.0402136370003063,585.2377394780001,None,588.3163684470001,None,588.3163684470001,None,590.8140698840002,None,590.8140698840002,None,1.1003971680001996,592.618029495,None,592.618029495,None,6,0,0.8511106519999885,593.7045610660002,None,593.7045610660002,None,593.7045610660002,None,594.5725132500002,None,1,0.5352829140001631,594.5725132500002,None,50,595.1238490350001,None,118,B,1,2021_May_26_0933,GazeFlow,2020.1.2,59.9583393867835,
5,Block812.xls,B,12,6,40,40,None,congruent,Right,Right,Left,79,76,3,blue,2,5,/home/docky/apps/exp/images/79Bi.jpeg,/home/docky/apps/exp/images/76B.jpeg,0,4,4,4,0,5,5,5,596.1256379900001,None,596.1256379900001,None,1,3.5072577679998176,596.1256379900001,None,599.6651591159998,None,599.6651591159998,None,602.170194452,None,602.170194452,None,1.0333914549996734,603.9735394250001,None,603.9735394250001,None,5,1,0.9180255650003346,604.9935009199999,None,604.9935009199999,None,604.9935009199999,None,605.9280027690002,None,1,0.819360480999876,605.9280027690002,None,52,606.763401447,None,118,B,1,2021_May_26_0933,GazeFlow,2020.1.2,59.9583393867835,
5,Block812.xls,B,12,7,76,76,None,congruent,Right,Right,Left,39,38,1,yellow,2,5,/home/docky/apps/exp/images/39Yi.jpeg,/home/docky/apps/exp/images/38Y.jpeg,0,4,4,4,0,6,6,6,607.7651867730001,None,607.7651867730001,None,1,4.091524185999788,607.7651867730001,None,611.8735016380001,None,611.8735016380001,None,614.393595512,None,614.393595512,None,1.3677754899999854,616.1939199090002,None,616.1939199090002,None,6,0,1.102275734000159,617.5512670419998,None,617.5512670419998,None,617.5512670419998,None,618.6700280059999,None,1,0.5673090559998855,618.6700280059999,None,50,619.2540059110001,None,118,B,1,2021_May_26_0933,GazeFlow,2020.1.2,59.9583393867835,
5,Block812.xls,B,12,8,77,77,None,congruent,Right,Right,Left,39,38,1,yellow,2,5,/home/docky/apps/exp/images/39Y.jpeg,/home/docky/apps/exp/images/38Yi.jpeg,0,4,4,4,0,7,7,7,620.255927227,None,620.255927227,None,1,4.226153621000321,620.255927227,None,624.5182095730001,None,624.5182095730001,None,627.0184668000002,None,627.0184668000002,None,1.4344398819998787,628.8217157570002,None,628.8217157570002,None,5,1,1.3530803160001597,630.2428387340001,None,630.2428387340001,None,630.2428387340001,None,631.6120220480002,None,1,0.61749715499991,631.6120220480002,None,52,632.2462032110002,None,118,B,1,2021_May_26_0933,GazeFlow,2020.1.2,59.9583393867835,
5,Block812.xls,B,,,,,,,,,,,,,,,,,,0,4,4,4,,,,,,,,,,,,,,,,,,,,,,,,,,,,,,,,,,,,,,,,,,,,118,B,1,2021_May_26_0933,GazeFlow,2020.1.2,59.9583393867835,
6,Block803.xls,B,3,1,84,84,None,congruent,Right,Right,Left,75,69,6,yellow,2,5,/home/docky/apps/exp/images/76Yi.jpeg,/home/docky/apps/exp/images/69Y.jpeg,0,5,5,5,0,0,0,0,651.834586981,None,651.834586981,None,1,3.8993473870000344,651.834586981,None,655.7571073210001,None,655.7571073210001,None,658.2815576060002,None,658.2815576060002,None,1.1164559619996908,660.0791991310002,None,660.0791991310002,None,5,1,3.0224102060001314,661.1867719820002,None,661.1867719820002,None,661.1867719820002,None,664.2257871000002,None,1,0.8519550010000785,664.2257871000002,None,54,665.09426153,None,118,B,1,2021_May_26_0933,GazeFlow,2020.1.2,59.9583393867835,
6,Block803.xls,B,3,2,82,82,None,congruent,Right,Right,Left,66,65,1,yellow,2,5,/home/docky/apps/exp/images/66Y.jpeg,/home/docky/apps/exp/images/35Bi.jpeg,0,5,5,5,0,1,1,1,666.096220203,None,666.096220203,None,1,4.124769891000142,666.096220203,None,670.254957831,None,670.254957831,None,672.7582903460002,None,672.7582903460002,None,1.5848521560001245,674.56125643,None,674.56125643,None,6,0,1.1027180290002434,676.1326121940001,None,676.1326121940001,None,676.1326121940001,None,677.2513070710002,None,1,0.6175168140002825,677.2513070710002,None,52,677.8854762619999,None,118,B,1,2021_May_26_0933,GazeFlow,2020.1.2,59.9583393867835,
6,Block803.xls,B,3,3,80,80,None,congruent,Right,Right,Left,66,65,1,yellow,2,5,/home/docky/apps/exp/images/66Yi.jpeg,/home/docky/apps/exp/images/35B.jpeg,0,5,5,5,0,2,2,2,678.8874532190002,None,678.8874532190002,None,1,3.958804635999968,678.8874532190002,None,682.8796391360002,None,682.8796391360002,None,685.3823968840002,None,685.3823968840002,None,1.0502982670000165,687.1812809759999,None,687.1812809759999,None,5,1,0.9177995920003923,688.2230142960002,None,688.2230142960002,None,688.2230142960002,None,689.1576378240002,None,1,0.7018273759999829,689.1576378240002,None,54,689.8760250139999,None,118,B,1,2021_May_26_0933,GazeFlow,2020.1.2,59.9583393867835,
6,Block803.xls,B,3,4,79,79,None,congruent,Right,Right,Left,66,65,1,yellow,2,5,/home/docky/apps/exp/images/66Y.jpeg,/home/docky/apps/exp/images/35Bi.jpeg,0,5,5,5,0,3,3,3,690.8776069559999,None,690.8776069559999,None,1,3.557711830000244,690.8776069559999,None,694.4671522049998,None,694.4671522049998,None,696.9721733420001,None,696.9721733420001,None,1.1839061870000478,698.7775693980002,None,698.7775693980002,None,5,1,0.9181819599998562,699.9460641350001,None,699.9460641350001,None,699.9460641350001,None,700.8804664449999,None,1,0.551654318999681,700.8804664449999,None,56,701.4485055300001,None,118,B,1,2021_May_26_0933,GazeFlow,2020.1.2,59.9583393867835,
6,Block803.xls,B,3,5,92,92,None,congruent,Right,Right,Left,77,72,5,yellow,2,5,/home/docky/apps/exp/images/77Y.jpeg,/home/docky/apps/exp/images/72Yi.jpeg,0,5,5,5,0,4,4,4,702.4500974299999,None,702.4500974299999,None,1,3.3578362050002397,702.4500974299999,None,705.841347864,None,705.841347864,None,708.3441867269999,None,708.3441867269999,None,1.1668691029999536,710.14233375,None,710.14233375,None,5,1,0.8846315089999734,711.3015269769999,None,711.3015269769999,None,711.3015269769999,None,712.2026196249999,None,1,0.6185309339998639,712.2026196249999,None,58,712.8375742859998,None,118,B,1,2021_May_26_0933,GazeFlow,2020.1.2,59.9583393867835,
6,Block803.xls,B,3,6,106,10,None,incongruent,Left,Right,Left,79,76,3,blue,2,5,/home/docky/apps/exp/images/79Bi.jpeg,/home/docky/apps/exp/images/76B.jpeg,0,5,5,5,0,5,5,5,713.8391828110002,None,713.8391828110002,None,1,3.324305003000063,713.8391828110002,None,717.200440779,None,717.200440779,None,719.7037455740001,None,719.7037455740001,None,1.2670878130002166,721.505388997,None,721.505388997,None,5,1,0.8679404189997513,722.757099379,None,722.757099379,None,722.757099379,None,723.6418424069998,None,1,0.5678204149999146,723.6418424069998,None,60,724.2266103850002,None,118,B,1,2021_May_26_0933,GazeFlow,2020.1.2,59.9583393867835,
6,Block803.xls,B,3,7,25,25,None,congruent,Right,Right,Left,19,16,3,blue,2,5,/home/docky/apps/exp/images/19Bi.jpeg,/home/docky/apps/exp/images/16B.jpeg,0,5,5,5,0,6,6,6,725.2283334610001,None,725.2283334610001,None,1,3.89158700400003,725.2283334610001,None,729.1531631940002,None,729.1531631940002,None,731.6581739769999,None,731.6581739769999,None,1.1335482110002886,733.4618646519998,None,733.4618646519998,None,5,1,0.9180395260000296,734.580276357,None,734.580276357,None,734.580276357,None,735.5146006290001,None,1,0.5852485489999708,735.5146006290001,None,62,736.1165122759999,None,118,B,1,2021_May_26_0933,GazeFlow,2020.1.2,59.9583393867835,
6,Block803.xls,B,3,8,46,46,None,congruent,Right,Right,Left,39,38,1,blue,2,5,/home/docky/apps/exp/images/39B.jpeg,/home/docky/apps/exp/images/38Bi.jpeg,0,5,5,5,0,7,7,7,737.1181149230001,None,737.1181149230001,None,1,4.1590606029999435,737.1181149230001,None,741.311501868,None,741.311501868,None,743.814028237,None,743.814028237,None,1.5514246950001507,745.6191571949998,None,745.6191571949998,None,6,0,1.168801596999856,747.1550629600001,None,747.1550629600001,None,747.1550629600001,None,748.3405422989999,None,1,0.6176387609998528,748.3405422989999,None,60,748.9746772369999,None,118,B,1,2021_May_26_0933,GazeFlow,2020.1.2,59.9583393867835,
6,Block803.xls,B,,,,,,,,,,,,,,,,,,0,5,5,5,,,,,,,,,,,,,,,,,,,,,,,,,,,,,,,,,,,,,,,,,,,,118,B,1,2021_May_26_0933,GazeFlow,2020.1.2,59.9583393867835,
7,Block810.xls,B,10,1,119,23,None,incongruent,Left,Right,Left,76,69,7,yellow,2,5,/home/docky/apps/exp/images/76Yi.jpeg,/home/docky/apps/exp/images/69Y.jpeg,0,6,6,6,0,0,0,0,772.2230620549999,None,772.2230620549999,None,1,3.261015129000043,772.2230620549999,None,775.511211514,None,775.511211514,None,778.032597941,None,778.032597941,None,1.300068852000095,779.8364459029999,None,779.8364459029999,None,5,1,0.9185017210002115,781.121440332,None,781.121440332,None,781.121440332,None,782.056169812,None,1,0.48473205399977815,782.056169812,None,62,782.557271875,None,118,B,1,2021_May_26_0933,GazeFlow,2020.1.2,59.9583393867835,
7,Block810.xls,B,10,2,43,43,None,congruent,Right,Right,Left,83,80,3,blue,2,5,/home/docky/apps/exp/images/83B.jpeg,/home/docky/apps/exp/images/80Bi.jpeg,0,6,6,6,0,1,1,1,783.5589988269999,None,783.5589988269999,None,1,3.3911552149997988,783.5589988269999,None,786.9834897390001,None,786.9834897390001,None,789.488515221,None,789.488515221,None,1.1669422699997085,791.2922765859998,None,791.2922765859998,None,5,1,0.9183413569999175,792.4435126990002,None,792.4435126990002,None,792.4435126990002,None,793.3784882670002,None,1,0.5010417650000818,793.3784882670002,None,64,793.8968219019998,None,118,B,1,2021_May_26_0933,GazeFlow,2020.1.2,59.9583393867835,
7,Block810.xls,B,10,3,53,53,None,congruent,Left,Left,Right,65,66,1,yellow,2,6,/home/docky/apps/exp/images/35Bi.jpeg,/home/docky/apps/exp/images/66Y.jpeg,0,6,6,6,0,2,2,2,794.8980008409999,None,794.8980008409999,None,1,3.574280239000018,794.8980008409999,None,798.5063372969998,None,798.5063372969998,None,801.0110986280001,None,801.0110986280001,None,1.1667715939997834,802.812386223,None,802.812386223,None,6,1,0.8847421610003039,803.9663888360001,None,803.9663888360001,None,803.9663888360001,None,804.867610801,None,1,0.5182040180002332,804.867610801,None,66,805.4023140019999,None,118,B,1,2021_May_26_0933,GazeFlow,2020.1.2,59.9583393867835,
7,Block810.xls,B,10,4,74,74,None,congruent,Right,Right,Left,35,33,2,yellow,2,5,/home/docky/apps/exp/images/35Y.jpeg,/home/docky/apps/exp/images/33Yi.jpeg,0,6,6,6,0,3,3,3,806.4038150010001,None,806.4038150010001,None,1,3.391138437999871,806.4038150010001,None,809.8281902670001,None,809.8281902670001,None,812.3330894380001,None,812.3330894380001,None,1.133599119000337,814.130117706,None,814.130117706,None,5,1,0.8678462320003746,815.255043228,None,815.255043228,None,815.255043228,None,816.1395482930002,None,1,0.45165193399998316,816.1395482930002,None,68,816.6075646660001,None,118,B,1,2021_May_26_0933,GazeFlow,2020.1.2,59.9583393867835,
7,Block810.xls,B,10,5,21,21,None,congruent,Left,Left,Right,76,79,3,blue,2,6,/home/docky/apps/exp/images/76B.jpeg,/home/docky/apps/exp/images/79Bi.jpeg,0,6,6,6,0,4,4,4,817.6091308220002,None,817.6091308220002,None,1,3.457545233000019,817.6091308220002,None,821.1005206479999,None,821.1005206479999,None,823.6081360510002,None,823.6081360510002,None,1.0669047569999748,825.4083344700002,None,825.4083344700002,None,6,1,0.9010000180001043,826.460515756,None,826.460515756,None,826.460515756,None,827.3783936549999,None,1,0.6018538930002251,827.3783936549999,None,70,827.9965512540002,None,118,B,1,2021_May_26_0933,GazeFlow,2020.1.2,59.9583393867835,
7,Block810.xls,B,10,6,85,85,None,congruent,Right,Right,Left,75,69,6,yellow,2,5,/home/docky/apps/exp/images/76Y.jpeg,/home/docky/apps/exp/images/69Yi.jpeg,0,6,6,6,0,5,5,5,828.9982819950001,None,828.9982819950001,None,1,3.5075563260002127,828.9982819950001,None,832.5395926320002,None,832.5395926320002,None,835.0421983310002,None,835.0421983310002,None,1.100400923000052,836.8461843240002,None,836.8461843240002,None,5,1,0.9182008999996469,837.9327109619999,None,837.9327109619999,None,837.9327109619999,None,838.867221257,None,1,0.5349871260000327,838.867221257,None,72,839.418485013,None,118,B,1,2021_May_26_0933,GazeFlow,2020.1.2,59.9583393867835,
7,Block810.xls,B,10,7,49,49,None,congruent,Left,Left,Right,33,35,2,yellow,2,6,/home/docky/apps/exp/images/33Yi.jpeg,/home/docky/apps/exp/images/35Y.jpeg,0,6,6,6,0,6,6,6,840.4205043749998,None,840.4205043749998,None,1,3.8414787719998458,840.4205043749998,None,844.2959786820002,None,844.2959786820002,None,846.7986724410002,None,846.7986724410002,None,1.0672752830000718,848.6024405970002,None,848.6024405970002,None,6,1,0.9179074229996331,849.6559960180002,None,849.6559960180002,None,849.6559960180002,None,850.5904220970001,None,1,0.8193729390000044,850.5904220970001,None,74,851.425785082,None,118,B,1,2021_May_26_0933,GazeFlow,2020.1.2,59.9583393867835,
7,Block810.xls,B,10,8,63,63,None,congruent,Left,Left,Right,38,39,1,yellow,2,6,/home/docky/apps/exp/images/38Y.jpeg,/home/docky/apps/exp/images/39Yi.jpeg,0,6,6,6,0,7,7,7,852.4273095100002,None,852.4273095100002,None,1,3.0738973540001098,852.4273095100002,None,855.5348703929999,None,855.5348703929999,None,858.0376529069999,None,858.0376529069999,None,1.4007438659996296,859.8414375130001,None,859.8414375130001,None,6,1,0.8343200540002726,861.2285484909999,None,861.2285484909999,None,861.2285484909999,None,862.0794514620002,None,1,0.5185138739998365,862.0794514620002,None,76,862.6144294639998,None,118,B,1,2021_May_26_0933,GazeFlow,2020.1.2,59.9583393867835,
7,Block810.xls,B,,,,,,,,,,,,,,,,,,0,6,6,6,,,,,,,,,,,,,,,,,,,,,,,,,,,,,,,,,,,,,,,,,,,,118,B,1,2021_May_26_0933,GazeFlow,2020.1.2,59.9583393867835,
8,Block801.xls,B,1,1,1,1,None,congruent,Left,Left,Right,16,19,3,blue,2,6,/home/docky/apps/exp/images/16Bi.jpeg,/home/docky/apps/exp/images/19B.jpeg,0,7,7,7,0,0,0,0,881.9872063880002,None,881.9872063880002,None,1,3.881507407999834,881.9872063880002,None,885.8964940440001,None,885.8964940440001,None,888.4157941210001,None,888.4157941210001,None,1.6005282709998028,890.216448868,None,890.216448868,None,6,1,0.884948813000392,891.8054095769999,None,891.8054095769999,None,891.8054095769999,None,892.7067493589998,None,1,0.45102263099988704,892.7067493589998,None,78,893.1738437160002,None,118,B,1,2021_May_26_0933,GazeFlow,2020.1.2,59.9583393867835,
8,Block801.xls,B,1,2,105,9,None,incongruent,Left,Right,Left,79,73,6,blue,2,5,/home/docky/apps/exp/images/79B.jpeg,/home/docky/apps/exp/images/73Bi.jpeg,0,7,7,7,0,1,1,1,894.1759136830001,None,894.1759136830001,None,1,3.1907000699998207,894.1759136830001,None,897.401344595,None,897.401344595,None,899.9028429099999,None,899.9028429099999,None,1.350705052000194,901.7068561300002,None,901.7068561300002,None,5,1,0.9181400889997349,903.043884493,None,903.043884493,None,903.043884493,None,903.9784992300001,None,1,0.4848347070001182,903.9784992300001,None,80,904.4798330160002,None,118,B,1,2021_May_26_0933,GazeFlow,2020.1.2,59.9583393867835,
8,Block801.xls,B,1,3,62,62,None,congruent,Left,Left,Right,38,39,1,yellow,2,6,/home/docky/apps/exp/images/38Y.jpeg,/home/docky/apps/exp/images/39Yi.jpeg,0,7,7,7,0,2,2,2,905.48162263,None,905.48162263,None,1,3.5078562650001004,905.48162263,None,909.022811714,None,909.022811714,None,911.5275259700002,None,911.5275259700002,None,1.2505599149999398,913.331062405,None,913.331062405,None,6,1,0.9345479500002511,914.5667408230001,None,914.5667408230001,None,914.5667408230001,None,915.5176151229998,None,1,0.6520032090002132,915.5176151229998,None,82,916.1861488949999,None,118,B,1,2021_May_26_0933,GazeFlow,2020.1.2,59.9583393867835,
8,Block801.xls,B,1,4,38,38,None,congruent,Right,Right,Left,79,73,6,blue,2,5,/home/docky/apps/exp/images/79B.jpeg,/home/docky/apps/exp/images/73Bi.jpeg,0,7,7,7,0,3,3,3,917.1880304830001,None,917.1880304830001,None,1,3.8245548200002304,917.1880304830001,None,921.0459304730002,None,921.0459304730002,None,923.5487897359999,None,923.5487897359999,None,1.3344992239999556,925.3525531949999,None,925.3525531949999,None,5,1,0.9177476629997727,926.6736677529998,None,926.6736677529998,None,926.6736677529998,None,927.6082084099999,None,1,0.48467963300026895,927.6082084099999,None,84,928.1095173459998,None,118,B,1,2021_May_26_0933,GazeFlow,2020.1.2,59.9583393867835,
8,Block801.xls,B,1,5,6,6,None,congruent,Left,Left,Right,35,38,3,blue,2,6,/home/docky/apps/exp/images/35Bi.jpeg,/home/docky/apps/exp/images/38B.jpeg,0,7,7,7,0,4,4,4,929.111331047,None,929.111331047,None,1,3.657634155999858,929.111331047,None,932.8032697220001,None,932.8032697220001,None,935.30589796,None,935.30589796,None,1.183990373999677,937.1045977540002,None,937.1045977540002,None,6,1,0.8512933430001794,938.2797170529998,None,938.2797170529998,None,938.2797170529998,None,939.1474548669999,None,1,0.518622644000061,939.1474548669999,None,86,939.6822023459999,None,118,B,1,2021_May_26_0933,GazeFlow,2020.1.2,59.9583393867835,
8,Block801.xls,B,1,6,51,51,None,congruent,Left,Left,Right,33,35,2,yellow,2,6,/home/docky/apps/exp/images/33Yi.jpeg,/home/docky/apps/exp/images/35Y.jpeg,0,7,7,7,0,5,5,5,940.6841871339998,None,940.6841871339998,None,1,3.4403912100001435,940.6841871339998,None,944.1583078240001,None,944.1583078240001,None,946.6613197420002,None,946.6613197420002,None,1.100800724000237,948.4642185450002,None,948.4642185450002,None,6,1,0.8845494029997099,949.5518659139998,None,949.5518659139998,None,949.5518659139998,None,950.4531047159999,None,1,0.5345513410002241,950.4531047159999,None,88,951.0039389090002,None,118,B,1,2021_May_26_0933,GazeFlow,2020.1.2,59.9583393867835,
8,Block801.xls,B,1,7,73,73,None,congruent,Right,Right,Left,35,33,2,yellow,2,5,/home/docky/apps/exp/images/35Yi.jpeg,/home/docky/apps/exp/images/33Y.jpeg,0,7,7,7,0,6,6,6,952.006224324,None,952.006224324,None,1,3.1733471839997947,952.006224324,None,955.2133986180002,None,955.2133986180002,None,957.7163829289998,None,957.7163829289998,None,1.3008479969998916,959.520267374,None,959.520267374,None,5,1,0.8845374099996661,960.8071450050002,None,960.8071450050002,None,960.8071450050002,None,961.708262048,None,1,0.4513229819999651,961.708262048,None,90,962.1763519000001,None,118,B,1,2021_May_26_0933,GazeFlow,2020.1.2,59.9583393867835,
8,Block801.xls,B,1,8,96,96,None,congruent,Right,Right,Left,80,79,1,yellow,2,5,/home/docky/apps/exp/images/80Yi.jpeg,/home/docky/apps/exp/images/79Y.jpeg,0,7,7,7,0,7,7,7,963.1783262439999,None,963.1783262439999,None,1,4.358684541000002,963.1783262439999,None,967.5708641659999,None,967.5708641659999,None,970.0742419789999,None,970.0742419789999,None,1.0672025509998093,971.8768170459998,None,971.8768170459998,None,5,1,0.8676571059995695,972.9310157660002,None,972.9310157660002,None,972.9310157660002,None,973.8155559219999,None,1,0.36763532500026486,973.8155559219999,None,92,974.1999171289999,None,118,B,1,2021_May_26_0933,GazeFlow,2020.1.2,59.9583393867835,
8,Block801.xls,B,,,,,,,,,,,,,,,,,,0,7,7,7,,,,,,,,,,,,,,,,,,,,,,,,,,,,,,,,,,,,,,,,,,,,118,B,1,2021_May_26_0933,GazeFlow,2020.1.2,59.9583393867835,
9,Block802.xls,B,2,1,30,30,None,congruent,Right,Right,Left,38,35,3,blue,2,5,/home/docky/apps/exp/images/38B.jpeg,/home/docky/apps/exp/images/35Bi.jpeg,0,8,8,8,0,0,0,0,997.2965899740002,None,997.2965899740002,None,1,4.0106208409997635,997.2965899740002,None,1001.3380535860001,None,1001.3380535860001,None,1003.858973679,None,1003.858973679,None,1.1169965640001465,1005.6458081609999,None,1005.6458081609999,None,5,1,0.9017673950002063,1006.747249862,None,1006.747249862,None,1006.747249862,None,1007.6650959120002,None,1,0.3848154100001011,1007.6650959120002,None,94,1008.0665256289999,None,118,B,1,2021_May_26_0933,GazeFlow,2020.1.2,59.9583393867835,
9,Block802.xls,B,2,2,5,5,None,congruent,Left,Left,Right,35,38,3,blue,2,6,/home/docky/apps/exp/images/35B.jpeg,/home/docky/apps/exp/images/38Bi.jpeg,0,8,8,8,0,1,1,1,1009.0677952629999,None,1009.0677952629999,None,1,3.574900830000388,1009.0677952629999,None,1012.6762772890002,None,1012.6762772890002,None,1015.1791727509999,None,1015.1791727509999,None,1.1003528950000145,1016.9821624669999,None,1016.9821624669999,None,6,1,0.8346897269998408,1018.0696229119999,None,1018.0696229119999,None,1018.0696229119999,None,1018.920749205,None,1,0.46738518700021814,1018.920749205,None,96,1019.4050783920002,None,118,B,1,2021_May_26_0933,GazeFlow,2020.1.2,59.9583393867835,
9,Block802.xls,B,2,3,103,7,None,incongruent,Left,Right,Left,19,16,3,blue,2,5,/home/docky/apps/exp/images/19Bi.jpeg,/home/docky/apps/exp/images/16B.jpeg,0,8,8,8,0,2,2,2,1020.40679692,None,1020.40679692,None,1,3.1737007900001117,1020.40679692,None,1023.6142883269999,None,1023.6142883269999,None,1026.117395528,None,1026.117395528,None,1.3342791820000457,1027.9209027440002,None,1027.9209027440002,None,5,1,0.851061836000099,1029.2415073050001,None,1029.2415073050001,None,1029.2415073050001,None,1030.1092157150001,None,1,0.40159249399994223,1030.1092157150001,None,98,1030.527189252,None,118,B,1,2021_May_26_0933,GazeFlow,2020.1.2,59.9583393867835,
9,Block802.xls,B,2,4,35,35,None,congruent,Right,Right,Left,66,65,1,blue,2,5,/home/docky/apps/exp/images/66B.jpeg,/home/docky/apps/exp/images/35Yi.jpeg,0,8,8,8,0,3,3,3,1031.5283803430002,None,1031.5283803430002,None,1,4.175996944999952,1031.5283803430002,None,1035.737532905,None,1035.737532905,None,1038.241259645,None,1038.241259645,None,1.06685636300017,1040.0393332530002,None,1040.0393332530002,None,5,1,1.0183152509998763,1041.098071974,None,1041.098071974,None,1041.098071974,None,1042.13303761,None,1,0.2008057370003371,1042.13303761,None,100,1042.350376848,None,118,B,1,2021_May_26_0933,GazeFlow,2020.1.2,59.9583393867835,
9,Block802.xls,B,2,5,42,42,None,congruent,Right,Right,Left,83,80,3,blue,2,5,/home/docky/apps/exp/images/83Bi.jpeg,/home/docky/apps/exp/images/80B.jpeg,0,8,8,8,0,4,4,4,1043.352201323,None,1043.352201323,None,1,3.474259234999863,1043.352201323,None,1046.8599472669998,None,1046.8599472669998,None,1049.36308994,None,1049.36308994,None,1.2506719709999743,1051.1616986200002,None,1051.1616986200002,None,5,1,0.8344721710000158,1052.403613889,None,1052.403613889,None,1052.403613889,None,1053.254668955,None,1,0.3680428860002394,1053.254668955,None,102,1053.639184014,None,118,B,1,2021_May_26_0933,GazeFlow,2020.1.2,59.9583393867835,
9,Block802.xls,B,2,6,104,8,None,incongruent,Left,Right,Left,38,35,3,blue,2,5,/home/docky/apps/exp/images/38B.jpeg,/home/docky/apps/exp/images/35Bi.jpeg,0,8,8,8,0,5,5,5,1054.6404941219998,None,1054.6404941219998,None,1,3.3243660320003983,1054.6404941219998,None,1057.998587426,None,1057.998587426,None,1060.5013247450001,None,1060.5013247450001,None,1.1338533910002297,1062.305151776,None,1062.305151776,None,5,1,0.86791717899996,1063.4252658690002,None,1063.4252658690002,None,1063.4252658690002,None,1064.309657962,None,1,0.3677198479999788,1064.309657962,None,104,1064.6940272880001,None,118,B,1,2021_May_26_0933,GazeFlow,2020.1.2,59.9583393867835,
9,Block802.xls,B,2,7,22,22,None,congruent,Left,Left,Right,80,83,3,blue,2,6,/home/docky/apps/exp/images/80Bi.jpeg,/home/docky/apps/exp/images/83B.jpeg,0,8,8,8,0,6,6,6,1065.695753909,None,1065.695753909,None,1,3.206980756000121,1065.695753909,None,1068.934658786,None,1068.934658786,None,1071.4447990509998,None,1071.4447990509998,None,0.9499579140001515,1073.2429485789999,None,1073.2429485789999,None,6,1,0.8510745290000159,1074.1796718639998,None,1074.1796718639998,None,1074.1796718639998,None,1075.0475732230002,None,1,0.40096730899995237,1075.0475732230002,None,106,1075.465146125,None,118,B,1,2021_May_26_0933,GazeFlow,2020.1.2,59.9583393867835,
9,Block802.xls,B,2,8,54,54,None,congruent,Left,Left,Right,65,66,1,yellow,2,6,/home/docky/apps/exp/images/35Bi.jpeg,/home/docky/apps/exp/images/66Y.jpeg,0,8,8,8,0,7,7,7,1076.466931594,None,1076.466931594,None,1,2.522459847999926,1076.466931594,None,1079.0228183079998,None,1079.0228183079998,None,1081.5260703949998,None,1081.5260703949998,None,1.4176153490002434,1083.3297357770002,None,1083.3297357770002,None,5,0,0.9512123380000048,1084.733707414,None,1084.733707414,None,1084.733707414,None,1085.701608751,None,1,0.3676816769998368,1085.701608751,None,104,1086.0858193939998,None,118,B,1,2021_May_26_0933,GazeFlow,2020.1.2,59.9583393867835,
9,Block802.xls,B,,,,,,,,,,,,,,,,,,0,8,8,8,,,,,,,,,,,,,,,,,,,,,,,,,,,,,,,,,,,,,,,,,,,,118,B,1,2021_May_26_0933,GazeFlow,2020.1.2,59.9583393867835,
10,Block813.xls,B,13,1,70,70,None,congruent,Left,Left,Right,79,82,3,yellow,2,6,/home/docky/apps/exp/images/79Yi.jpeg,/home/docky/apps/exp/images/80Y.jpeg,0,9,9,9,0,0,0,0,1107.2944717169999,None,1107.2944717169999,None,1,2.8644319620002534,1107.2944717169999,None,1110.1885776089998,None,1110.1885776089998,None,1112.7040709399998,None,1112.7040709399998,None,1.0330419480001183,1114.507754887,None,1114.507754887,None,6,1,0.8844253600000229,1115.5272814230002,None,1115.5272814230002,None,1115.5272814230002,None,1116.428485973,None,1,0.4516315770001711,1116.428485973,None,106,1116.896504833,None,118,B,1,2021_May_26_0933,GazeFlow,2020.1.2,59.9583393867835,
10,Block813.xls,B,13,2,60,60,None,congruent,Left,Left,Right,38,39,1,yellow,2,6,/home/docky/apps/exp/images/38Yi.jpeg,/home/docky/apps/exp/images/39Y.jpeg,0,9,9,9,0,1,1,1,1117.8981803269999,None,1117.8981803269999,None,1,2.956522932000098,1117.8981803269999,None,1120.888591124,None,1120.888591124,None,1123.3910825879998,None,1123.3910825879998,None,1.0334468529999867,1125.1935506620002,None,1125.1935506620002,None,6,1,0.884575668999787,1126.2150629369999,None,1126.2150629369999,None,1126.2150629369999,None,1127.1163696499998,None,1,0.45132380399991234,1127.1163696499998,None,108,1127.5840659250002,None,118,B,1,2021_May_26_0933,GazeFlow,2020.1.2,59.9583393867835,
10,Block813.xls,B,13,3,81,81,None,congruent,Right,Right,Left,66,65,1,yellow,2,5,/home/docky/apps/exp/images/66Y.jpeg,/home/docky/apps/exp/images/35Bi.jpeg,0,9,9,9,0,2,2,2,1128.5858990860002,None,1128.5858990860002,None,1,3.090084745999775,1128.5858990860002,None,1131.70990661,None,1131.70990661,None,1134.212536774,None,1134.212536774,None,1.4009353510000437,1136.012139586,None,1136.012139586,None,6,0,0.9022236179998799,1137.4037128129999,None,1137.4037128129999,None,1137.4037128129999,None,1138.322018972,None,1,0.501358357999834,1138.322018972,None,106,1138.8397217699999,None,118,B,1,2021_May_26_0933,GazeFlow,2020.1.2,59.9583393867835,
10,Block813.xls,B,13,4,110,14,None,incongruent,Right,Left,Right,65,66,1,yellow,2,6,/home/docky/apps/exp/images/35B.jpeg,/home/docky/apps/exp/images/66Yi.jpeg,0,9,9,9,0,3,3,3,1139.8416783070002,None,1139.8416783070002,None,1,3.4738404590002574,1139.8416783070002,None,1143.353080724,None,1143.353080724,None,1145.8520323020002,None,1145.8520323020002,None,1.1339324109999325,1147.6562151530002,None,1147.6562151530002,None,6,1,0.8846299359997829,1148.7760090339998,None,1148.7760090339998,None,1148.7760090339998,None,1149.677234835,None,1,0.4181330159999561,1149.677234835,None,108,1150.111885709,None,118,B,1,2021_May_26_0933,GazeFlow,2020.1.2,59.9583393867835,
10,Block813.xls,B,13,5,17,17,None,congruent,Left,Left,Right,73,76,3,blue,2,6,/home/docky/apps/exp/images/73Bi.jpeg,/home/docky/apps/exp/images/76B.jpeg,0,9,9,9,0,4,4,4,1151.1135722630002,None,1151.1135722630002,None,1,3.0898805540000467,1151.1135722630002,None,1154.237301873,None,1154.237301873,None,1156.74005116,None,1156.74005116,None,1.016725180999856,1158.544031077,None,1158.544031077,None,6,1,0.8011707390000993,1159.547351444,None,1159.547351444,None,1159.547351444,None,1160.3648841509998,None,1,0.6018949180001982,1160.3648841509998,None,110,1160.9831489090002,None,118,B,1,2021_May_26_0933,GazeFlow,2020.1.2,59.9583393867835,
10,Block813.xls,B,13,6,111,15,None,incongruent,Right,Left,Right,62,65,3,yellow,2,6,/home/docky/apps/exp/images/38B.jpeg,/home/docky/apps/exp/images/35Bi.jpeg,0,9,9,9,0,5,5,5,1161.9846396560001,None,1161.9846396560001,None,1,3.3907757910001237,1161.9846396560001,None,1165.4077469479998,None,1165.4077469479998,None,1167.912409252,None,1167.912409252,None,1.216627905000223,1169.7158449620001,None,1169.7158449620001,None,6,1,0.8848188480001227,1170.919721871,None,1170.919721871,None,1170.919721871,None,1171.82067809,None,1,0.45101373199986483,1171.82067809,None,112,1172.2883653079998,None,118,B,1,2021_May_26_0933,GazeFlow,2020.1.2,59.9583393867835,
10,Block813.xls,B,13,7,55,55,None,congruent,Left,Left,Right,65,66,1,yellow,2,6,/home/docky/apps/exp/images/35B.jpeg,/home/docky/apps/exp/images/66Yi.jpeg,0,9,9,9,0,6,6,6,1173.290229537,None,1173.290229537,None,1,3.2408814589998656,1173.290229537,None,1176.5652834530001,None,1176.5652834530001,None,1179.067639839,None,1179.067639839,None,1.0001382240002386,1180.871481652,None,1180.871481652,None,6,1,0.8510548690001087,1181.857718502,None,1181.857718502,None,1181.857718502,None,1182.725499624,None,1,0.4675566659998367,1182.725499624,None,114,1183.210211646,None,118,B,1,2021_May_26_0933,GazeFlow,2020.1.2,59.9583393867835,
10,Block813.xls,B,13,8,26,26,None,congruent,Right,Right,Left,19,16,3,blue,2,5,/home/docky/apps/exp/images/19B.jpeg,/home/docky/apps/exp/images/16Bi.jpeg,0,9,9,9,0,7,7,7,1184.211486911,None,1184.211486911,None,1,3.357535703999929,1184.211486911,None,1187.6064439030001,None,1187.6064439030001,None,1190.105703869,None,1190.105703869,None,1.0002979949999826,1191.9093356610001,None,1191.9093356610001,None,5,1,0.9012926250002238,1192.896103383,None,1192.896103383,None,1192.896103383,None,1193.8142585790001,None,1,0.518471295999916,1193.8142585790001,None,116,1194.3488050400001,None,118,B,1,2021_May_26_0933,GazeFlow,2020.1.2,59.9583393867835,
10,Block813.xls,B,,,,,,,,,,,,,,,,,,0,9,9,9,,,,,,,,,,,,,,,,,,,,,,,,,,,,,,,,,,,,,,,,,,,,118,B,1,2021_May_26_0933,GazeFlow,2020.1.2,59.9583393867835,
11,Block806.xls,B,6,1,10,10,None,congruent,Left,Left,Right,65,66,1,blue,2,6,/home/docky/apps/exp/images/35Y.jpeg,/home/docky/apps/exp/images/66Bi.jpeg,0,10,10,10,0,0,0,0,1216.678012295,None,1216.678012295,None,1,2.971617289000278,1216.678012295,None,1219.682386692,None,1219.682386692,None,1222.2039744459998,None,1222.2039744459998,None,0.9828296770001543,1223.983663634,None,1223.983663634,None,6,1,0.9180576760004442,1224.959113945,None,1224.959113945,None,1224.959113945,None,1225.89374271,None,1,0.5008654640000714,1225.89374271,None,118,1226.411242561,None,118,B,1,2021_May_26_0933,GazeFlow,2020.1.2,59.9583393867835,
11,Block806.xls,B,6,2,89,89,None,congruent,Right,Right,Left,76,69,7,yellow,2,5,/home/docky/apps/exp/images/76Yi.jpeg,/home/docky/apps/exp/images/69Y.jpeg,0,10,10,10,0,1,1,1,1227.4133038609998,None,1227.4133038609998,None,1,3.0902339680001205,1227.4133038609998,None,1230.5372024029998,None,1230.5372024029998,None,1233.041891153,None,1233.041891153,None,0.9332121540001026,1234.845563287,None,1234.845563287,None,5,1,0.8680367920001117,1235.763539658,None,1235.763539658,None,1235.763539658,None,1236.64796492,None,1,0.38458039299985103,1236.64796492,None,120,1237.0488606879999,None,118,B,1,2021_May_26_0933,GazeFlow,2020.1.2,59.9583393867835,
11,Block806.xls,B,6,3,88,88,None,congruent,Right,Right,Left,76,69,7,yellow,2,5,/home/docky/apps/exp/images/76Y.jpeg,/home/docky/apps/exp/images/69Yi.jpeg,0,10,10,10,0,2,2,2,1238.050753764,None,1238.050753764,None,1,3.3072272719996363,1238.050753764,None,1241.389847989,None,1241.389847989,None,1243.8949629550002,None,1243.8949629550002,None,0.9330140699998992,1245.698796101,None,1245.698796101,None,5,1,1.0346976759997233,1246.618273256,None,1246.618273256,None,1246.618273256,None,1247.6696752110001,None,1,0.2340564890000678,1247.6696752110001,None,122,1247.920088157,None,118,B,1,2021_May_26_0933,GazeFlow,2020.1.2,59.9583393867835,
11,Block806.xls,B,6,4,109,13,None,incongruent,Right,Left,Right,33,35,2,yellow,2,6,/home/docky/apps/exp/images/33Yi.jpeg,/home/docky/apps/exp/images/35Y.jpeg,0,10,10,10,0,3,3,3,1248.922300399,None,1248.922300399,None,1,3.2569467660000555,1248.922300399,None,1252.212358191,None,1252.212358191,None,1254.717949986,None,1254.717949986,None,1.1670772530001159,1256.5196562320002,None,1256.5196562320002,None,6,1,0.917949865999617,1257.6733177410001,None,1257.6733177410001,None,1257.6733177410001,None,1258.6076084269998,None,1,0.4680834499999946,1258.6076084269998,None,124,1259.092642739,None,118,B,1,2021_May_26_0933,GazeFlow,2020.1.2,59.9583393867835,
11,Block806.xls,B,6,5,37,37,None,congruent,Right,Right,Left,79,73,6,blue,2,5,/home/docky/apps/exp/images/79Bi.jpeg,/home/docky/apps/exp/images/73B.jpeg,0,10,10,10,0,4,4,4,1260.094079566,None,1260.094079566,None,1,3.307405757000197,1260.094079566,None,1263.4351128070002,None,1263.4351128070002,None,1265.938269621,None,1265.938269621,None,1.3675251849999768,1267.741145649,None,1267.741145649,None,5,1,0.818167879000157,1269.095602628,None,1269.095602628,None,1269.095602628,None,1269.9301597550002,None,1,0.3505425190001006,1269.9301597550002,None,126,1270.2974822699998,None,118,B,1,2021_May_26_0933,GazeFlow,2020.1.2,59.9583393867835,
11,Block806.xls,B,6,6,108,12,None,incongruent,Left,Right,Left,39,38,1,blue,2,5,/home/docky/apps/exp/images/39Bi.jpeg,/home/docky/apps/exp/images/38B.jpeg,0,10,10,10,0,5,5,5,1271.299270594,None,1271.299270594,None,1,3.0072533700003987,1271.299270594,None,1274.3249290550002,None,1274.3249290550002,None,1276.8446277560001,None,1276.8446277560001,None,1.7182465760001833,1278.6466955669998,None,1278.6466955669998,None,6,0,0.885519942999963,1280.3511668719998,None,1280.3511668719998,None,1280.3511668719998,None,1281.2528005069998,None,1,0.46714655899995705,1281.2528005069998,None,124,1281.736548586,None,118,B,1,2021_May_26_0933,GazeFlow,2020.1.2,59.9583393867835,
11,Block806.xls,B,6,7,52,52,None,congruent,Left,Left,Right,65,66,1,yellow,2,6,/home/docky/apps/exp/images/35B.jpeg,/home/docky/apps/exp/images/66Yi.jpeg,0,10,10,10,0,6,6,6,1282.738994366,None,1282.738994366,None,1,3.724725132000003,1282.738994366,None,1286.497220869,None,1286.497220869,None,1289.000645825,None,1289.000645825,None,0.916543859000285,1290.805467746,None,1290.805467746,None,6,1,0.8344078679997438,1291.706828452,None,1291.706828452,None,1291.706828452,None,1292.5579083960001,None,1,0.4510916500003077,1292.5579083960001,None,126,1293.025692825,None,118,B,1,2021_May_26_0933,GazeFlow,2020.1.2,59.9583393867835,
11,Block806.xls,B,6,8,75,75,None,congruent,Right,Right,Left,35,33,2,yellow,2,5,/home/docky/apps/exp/images/35Yi.jpeg,/home/docky/apps/exp/images/33Y.jpeg,0,10,10,10,0,7,7,7,1294.0272946989999,None,1294.0272946989999,None,1,3.0234499049997794,1294.0272946989999,None,1297.08683235,None,1297.08683235,None,1299.592533986,None,1299.592533986,None,0.9166332589998092,1301.391104628,None,1301.391104628,None,5,1,0.884853522999947,1302.2941703420001,None,1302.2941703420001,None,1302.2941703420001,None,1303.1953625299998,None,1,0.4015567619999274,1303.1953625299998,None,128,1303.612890507,None,118,B,1,2021_May_26_0933,GazeFlow,2020.1.2,59.9583393867835,
11,Block806.xls,B,,,,,,,,,,,,,,,,,,0,10,10,10,,,,,,,,,,,,,,,,,,,,,,,,,,,,,,,,,,,,,,,,,,,,118,B,1,2021_May_26_0933,GazeFlow,2020.1.2,59.9583393867835,
12,Block811.xls,B,11,1,86,86,None,congruent,Right,Right,Left,75,69,6,yellow,2,5,/home/docky/apps/exp/images/76Y.jpeg,/home/docky/apps/exp/images/69Yi.jpeg,0,11,11,11,0,0,0,0,1324.240585052,None,1324.240585052,None,1,3.9962479219998386,1324.240585052,None,1328.264798049,None,1328.264798049,None,1330.7840808209999,None,1330.7840808209999,None,0.9827732640001159,1332.587825525,None,1332.587825525,None,5,1,1.001722320999761,1333.55544534,None,1333.55544534,None,1333.55544534,None,1334.5737868729998,None,1,0.40141906100006963,1334.5737868729998,None,130,1334.991769357,None,118,B,1,2021_May_26_0933,GazeFlow,2020.1.2,59.9583393867835,
12,Block811.xls,B,11,2,83,83,None,congruent,Right,Right,Left,75,69,6,yellow,2,5,/home/docky/apps/exp/images/76Yi.jpeg,/home/docky/apps/exp/images/69Y.jpeg,0,11,11,11,0,1,1,1,1335.993433436,None,1335.993433436,None,1,4.342442129999654,1335.993433436,None,1340.372401141,None,1340.372401141,None,1342.8731004810002,None,1342.8731004810002,None,0.9166827939998257,1344.6761135390002,None,1344.6761135390002,None,5,1,0.93475231299999,1345.579259357,None,1345.579259357,None,1345.579259357,None,1346.5306219479999,None,1,0.3674317660002089,1346.5306219479999,None,132,1346.9147067959998,None,118,B,1,2021_May_26_0933,GazeFlow,2020.1.2,59.9583393867835,
12,Block811.xls,B,11,3,28,28,None,congruent,Right,Right,Left,38,35,3,blue,2,5,/home/docky/apps/exp/images/38Bi.jpeg,/home/docky/apps/exp/images/35B.jpeg,0,11,11,11,0,2,2,2,1347.91648034,None,1347.91648034,None,1,3.557997333000003,1347.91648034,None,1351.508088913,None,1351.508088913,None,1354.0113082359999,None,1354.0113082359999,None,1.0668537769997783,1355.81463407,None,1355.81463407,None,5,1,0.8676789959999951,1356.8680664580002,None,1356.8680664580002,None,1356.8680664580002,None,1357.7527895540002,None,1,0.38499599199985823,1357.7527895540002,None,134,1358.153821816,None,118,B,1,2021_May_26_0933,GazeFlow,2020.1.2,59.9583393867835,
12,Block811.xls,B,11,4,58,58,None,congruent,Left,Left,Right,62,65,3,yellow,2,6,/home/docky/apps/exp/images/38B.jpeg,/home/docky/apps/exp/images/35Bi.jpeg,0,11,11,11,0,3,3,3,1359.15529474,None,1359.15529474,None,1,3.5242349069999364,1359.15529474,None,1362.713393769,None,1362.713393769,None,1365.2017376009999,None,1365.2017376009999,None,1.1334523739997167,1367.015951895,None,1367.015951895,None,6,1,0.8346833420000621,1368.140100773,None,1368.140100773,None,1368.140100773,None,1368.9912201289999,None,1,0.48547917599989887,1368.9912201289999,None,136,1369.492801455,None,118,B,1,2021_May_26_0933,GazeFlow,2020.1.2,59.9583393867835,
12,Block811.xls,B,11,5,32,32,None,congruent,Right,Right,Left,66,65,1,blue,2,5,/home/docky/apps/exp/images/66Bi.jpeg,/home/docky/apps/exp/images/35Y.jpeg,0,11,11,11,0,4,4,4,1370.494377723,None,1370.494377723,None,1,3.257547283999884,1370.494377723,None,1373.785012854,None,1373.785012854,None,1376.28850126,None,1376.28850126,None,0.9832905510002092,1378.085791524,None,1378.085791524,None,5,1,0.8846474050001234,1379.0617256760002,None,1379.0617256760002,None,1379.0617256760002,None,1379.9628560699998,None,1,0.35079457699976047,1379.9628560699998,None,138,1380.330796276,None,118,B,1,2021_May_26_0933,GazeFlow,2020.1.2,59.9583393867835,
12,Block811.xls,B,11,6,67,67,None,congruent,Left,Left,Right,72,77,5,yellow,2,6,/home/docky/apps/exp/images/72Y.jpeg,/home/docky/apps/exp/images/77Yi.jpeg,0,11,11,11,0,5,5,5,1381.332384661,None,1381.332384661,None,1,3.3739751610000894,1381.332384661,None,1384.740138355,None,1384.740138355,None,1387.243025313,None,1387.243025313,None,0.9667805320000298,1389.0419571829998,None,1389.0419571829998,None,6,1,0.817610968000281,1390.0000474960002,None,1390.0000474960002,None,1390.0000474960002,None,1390.834177451,None,1,0.56839053900012,1390.834177451,None,140,1391.419196166,None,118,B,1,2021_May_26_0933,GazeFlow,2020.1.2,59.9583393867835,
12,Block811.xls,B,11,7,120,24,None,incongruent,Left,Right,Left,77,72,5,yellow,2,5,/home/docky/apps/exp/images/77Y.jpeg,/home/docky/apps/exp/images/72Yi.jpeg,0,11,11,11,0,6,6,6,1392.421024194,None,1392.421024194,None,1,3.341055421999954,1392.421024194,None,1395.795186466,None,1395.795186466,None,1398.298140503,None,1398.298140503,None,1.4512033669998345,1400.096037541,None,1400.096037541,None,5,1,0.8845188280001821,1401.539315808,None,1401.539315808,None,1401.539315808,None,1402.440849732,None,1,0.5682644809999147,1402.440849732,None,142,1403.025417878,None,118,B,1,2021_May_26_0933,GazeFlow,2020.1.2,59.9583393867835,
12,Block811.xls,B,11,8,57,57,None,congruent,Left,Left,Right,62,65,3,yellow,2,6,/home/docky/apps/exp/images/38Bi.jpeg,/home/docky/apps/exp/images/35B.jpeg,0,11,11,11,0,7,7,7,1404.0268956959999,None,1404.0268956959999,None,1,3.4912681119999434,1404.0268956959999,None,1407.5516193940002,None,1407.5516193940002,None,1410.054780286,None,1410.054780286,None,1.5844127989998924,1411.8589279880002,None,1411.8589279880002,None,5,0,0.8688533340000504,1413.4291933230002,None,1413.4291933230002,None,1413.4291933230002,None,1414.314234165,None,1,0.417736031000004,1414.314234165,None,140,1414.7483960569998,None,118,B,1,2021_May_26_0933,GazeFlow,2020.1.2,59.9583393867835,
12,Block811.xls,B,,,,,,,,,,,,,,,,,,0,11,11,11,,,,,,,,,,,,,,,,,,,,,,,,,,,,,,,,,,,,,,,,,,,,118,B,1,2021_May_26_0933,GazeFlow,2020.1.2,59.9583393867835,
13,Block808.xls,B,8,1,118,22,None,incongruent,Left,Right,Left,75,69,6,yellow,2,5,/home/docky/apps/exp/images/76Y.jpeg,/home/docky/apps/exp/images/69Yi.jpeg,0,12,12,12,0,0,0,0,1434.2223332909998,None,1434.2223332909998,None,1,3.7103406930000347,1434.2223332909998,None,1437.9589375619998,None,1437.9589375619998,None,1440.4827509430002,None,1440.4827509430002,None,1.166841948000183,1442.284895832,None,1442.284895832,None,5,1,0.9677688729998408,1443.4384587939999,None,1443.4384587939999,None,1443.4384587939999,None,1444.4226696669998,None,1,0.4192987350002113,1444.4226696669998,None,142,1444.857547179,None,118,B,1,2021_May_26_0933,GazeFlow,2020.1.2,59.9583393867835,
13,Block808.xls,B,8,2,7,7,None,congruent,Left,Left,Right,65,66,1,blue,2,6,/home/docky/apps/exp/images/35Yi.jpeg,/home/docky/apps/exp/images/66B.jpeg,0,12,12,12,0,1,1,1,1445.859206947,None,1445.859206947,None,1,3.32374602300024,1445.859206947,None,1449.2149976219998,None,1449.2149976219998,None,1451.7217790720001,None,1451.7217790720001,None,1.1336972489998516,1453.523201693,None,1453.523201693,None,5,0,0.8843433629999709,1454.643795304,None,1454.643795304,None,1454.643795304,None,1455.5446677630002,None,1,0.38512719699974696,1455.5446677630002,None,140,1455.94605065,None,118,B,1,2021_May_26_0933,GazeFlow,2020.1.2,59.9583393867835,
13,Block808.xls,B,8,3,112,16,None,incongruent,Right,Left,Right,69,76,7,yellow,2,6,/home/docky/apps/exp/images/69Yi.jpeg,/home/docky/apps/exp/images/76Y.jpeg,0,12,12,12,0,2,2,2,1456.94786617,None,1456.94786617,None,1,4.025062112999876,1456.94786617,None,1461.0067016130001,None,1461.0067016130001,None,1463.508971973,None,1463.508971973,None,1.050350134999917,1465.312842977,None,1465.312842977,None,6,1,0.9011267509999925,1466.3499625099998,None,1466.3499625099998,None,1466.3499625099998,None,1467.2681125539998,None,1,0.4346413459998075,1467.2681125539998,None,142,1467.719136182,None,118,B,1,2021_May_26_0933,GazeFlow,2020.1.2,59.9583393867835,
13,Block808.xls,B,8,4,97,1,None,incongruent,Right,Left,Right,16,19,3,blue,2,6,/home/docky/apps/exp/images/16Bi.jpeg,/home/docky/apps/exp/images/19B.jpeg,0,12,12,12,0,3,3,3,1468.720742721,None,1468.720742721,None,1,3.374043840000013,1468.720742721,None,1472.1285292379998,None,1472.1285292379998,None,1474.632062703,None,1474.632062703,None,1.9686533940002846,1476.4350408579999,None,1476.4350408579999,None,6,1,1.3518798250001964,1478.390479572,None,1478.390479572,None,1478.390479572,None,1479.759123632,None,1,0.6514033089997611,1479.759123632,None,144,1480.426913404,None,118,B,1,2021_May_26_0933,GazeFlow,2020.1.2,59.9583393867835,
13,Block808.xls,B,8,5,24,24,None,congruent,Left,Left,Right,80,83,3,blue,2,6,/home/docky/apps/exp/images/80Bi.jpeg,/home/docky/apps/exp/images/83B.jpeg,0,12,12,12,0,4,4,4,1481.429467161,None,1481.429467161,None,1,3.6072163260000707,1481.429467161,None,1485.0708028590002,None,1485.0708028590002,None,1487.5737305970001,None,1487.5737305970001,None,1.1337024999997993,1489.377796884,None,1489.377796884,None,6,1,0.8343562879999809,1490.4974836330002,None,1490.4974836330002,None,1490.4974836330002,None,1491.348257536,None,1,0.5353823740001644,1491.348257536,None,146,1491.90005235,None,118,B,1,2021_May_26_0933,GazeFlow,2020.1.2,59.9583393867835,
13,Block808.xls,B,8,6,13,13,None,congruent,Left,Left,Right,38,39,1,blue,2,6,/home/docky/apps/exp/images/38Bi.jpeg,/home/docky/apps/exp/images/39B.jpeg,0,12,12,12,0,5,5,5,1492.9017728939998,None,1492.9017728939998,None,1,3.2236042389999966,1492.9017728939998,None,1496.1590975210001,None,1496.1590975210001,None,1498.6639159249999,None,1498.6639159249999,None,1.2173048660001768,1500.465480542,None,1500.465480542,None,6,1,0.9344857299997784,1501.6695002400002,None,1501.6695002400002,None,1501.6695002400002,None,1502.6206747820002,None,1,0.5520788910002921,1502.6206747820002,None,148,1503.1887738169999,None,118,B,1,2021_May_26_0933,GazeFlow,2020.1.2,59.9583393867835,
13,Block808.xls,B,8,7,8,8,None,congruent,Left,Left,Right,65,66,1,blue,2,6,/home/docky/apps/exp/images/35Y.jpeg,/home/docky/apps/exp/images/66Bi.jpeg,0,12,12,12,0,6,6,6,1504.190694459,None,1504.190694459,None,1,3.4905477160000373,1504.190694459,None,1507.715650129,None,1507.715650129,None,1510.217734276,None,1510.217734276,None,0.9500408330000027,1512.0165406790002,None,1512.0165406790002,None,6,1,0.851149114999771,1512.958266961,None,1512.958266961,None,1512.958266961,None,1513.826191488,None,1,0.4841839370001253,1513.826191488,None,150,1514.327001919,None,118,B,1,2021_May_26_0933,GazeFlow,2020.1.2,59.9583393867835,
13,Block808.xls,B,8,8,31,31,None,congruent,Right,Right,Left,66,65,1,blue,2,5,/home/docky/apps/exp/images/66B.jpeg,/home/docky/apps/exp/images/35Yi.jpeg,0,12,12,12,0,7,7,7,1515.3290620060002,None,1515.3290620060002,None,1,3.5910578670000177,1515.3290620060002,None,1518.9538157850002,None,1518.9538157850002,None,1521.457025012,None,1521.457025012,None,1.133824466999613,1523.2605998529998,None,1523.2605998529998,None,6,0,0.867924400999982,1524.3805249810002,None,1524.3805249810002,None,1524.3805249810002,None,1525.26543738,None,1,0.46796115400002236,1525.26543738,None,148,1525.7499958829999,None,118,B,1,2021_May_26_0933,GazeFlow,2020.1.2,59.9583393867835,
13,Block808.xls,B,,,,,,,,,,,,,,,,,,0,12,12,12,,,,,,,,,,,,,,,,,,,,,,,,,,,,,,,,,,,,,,,,,,,,118,B,1,2021_May_26_0933,GazeFlow,2020.1.2,59.9583393867835,
14,Block815.xls,B,15,1,65,65,None,congruent,Left,Left,Right,69,76,7,yellow,2,6,/home/docky/apps/exp/images/69Yi.jpeg,/home/docky/apps/exp/images/76Y.jpeg,0,13,13,13,0,0,0,0,1552.771270801,None,1552.771270801,None,1,7.200812114999735,1552.771270801,None,1560.000086996,None,1560.000086996,None,1562.5229218979998,None,1562.5229218979998,None,1.1332311809997009,1564.3248486809998,None,1564.3248486809998,None,6,1,0.9012619039999663,1565.4448809790001,None,1565.4448809790001,None,1565.4448809790001,None,1566.3629939779998,None,1,0.4680888050002068,1566.3629939779998,None,150,1566.8473391379998,None,118,B,1,2021_May_26_0933,GazeFlow,2020.1.2,59.9583393867835,
14,Block815.xls,B,15,2,102,6,None,incongruent,Right,Left,Right,80,83,3,blue,2,6,/home/docky/apps/exp/images/80B.jpeg,/home/docky/apps/exp/images/83Bi.jpeg,0,13,13,13,0,1,1,1,1567.8488704729998,None,1567.8488704729998,None,1,3.3072813070002667,1567.8488704729998,None,1571.1899728409999,None,1571.1899728409999,None,1573.691581567,None,1573.691581567,None,1.0503015979998054,1575.4963927990002,None,1575.4963927990002,None,6,1,0.8845312979997288,1576.533353892,None,1576.533353892,None,1576.533353892,None,1577.4343675209998,None,1,0.5020057530000486,1577.4343675209998,None,152,1577.9525158289998,None,118,B,1,2021_May_26_0933,GazeFlow,2020.1.2,59.9583393867835,
14,Block815.xls,B,15,3,33,33,None,congruent,Right,Right,Left,66,65,1,blue,2,5,/home/docky/apps/exp/images/66Bi.jpeg,/home/docky/apps/exp/images/35Y.jpeg,0,13,13,13,0,2,2,2,1578.9541458939998,None,1578.9541458939998,None,1,3.2570731689997956,1578.9541458939998,None,1582.2430828759998,None,1582.2430828759998,None,1584.7498782970001,None,1584.7498782970001,None,0.96678566699984,1586.5519620280002,None,1586.5519620280002,None,5,1,0.8345501890003106,1587.504780103,None,1587.504780103,None,1587.504780103,None,1588.356111656,None,1,0.4006366089997755,1588.356111656,None,154,1588.773950885,None,118,B,1,2021_May_26_0933,GazeFlow,2020.1.2,59.9583393867835,
14,Block815.xls,B,15,4,72,72,None,congruent,Left,Left,Right,79,82,3,yellow,2,6,/home/docky/apps/exp/images/79Yi.jpeg,/home/docky/apps/exp/images/80Y.jpeg,0,13,13,13,0,3,3,3,1589.7753362869998,None,1589.7753362869998,None,1,3.340584453000247,1589.7753362869998,None,1593.1477442680002,None,1593.1477442680002,None,1595.653208788,None,1595.653208788,None,1.5513652320000801,1597.456015759,None,1597.456015759,None,6,1,0.8348695229997247,1598.9940265649998,None,1598.9940265649998,None,1598.9940265649998,None,1599.84547978,None,1,0.4348187360001248,1599.84547978,None,156,1600.296475105,None,118,B,1,2021_May_26_0933,GazeFlow,2020.1.2,59.9583393867835,
14,Block815.xls,B,15,5,100,4,None,incongruent,Right,Left,Right,73,76,3,blue,2,6,/home/docky/apps/exp/images/73B.jpeg,/home/docky/apps/exp/images/76Bi.jpeg,0,13,13,13,0,4,4,4,1601.2980353110001,None,1601.2980353110001,None,1,3.3405243480001445,1601.2980353110001,None,1604.6725622099998,None,1604.6725622099998,None,1607.1758484890001,None,1607.1758484890001,None,1.5343081139999413,1608.979448511,None,1608.979448511,None,6,1,0.852255378999871,1610.5000201050002,None,1610.5000201050002,None,1610.5000201050002,None,1611.3681452619999,None,1,0.4511949910001931,1611.3681452619999,None,158,1611.835892528,None,118,B,1,2021_May_26_0933,GazeFlow,2020.1.2,59.9583393867835,
14,Block815.xls,B,15,6,45,45,None,congruent,Right,Right,Left,39,38,1,blue,2,5,/home/docky/apps/exp/images/39B.jpeg,/home/docky/apps/exp/images/38Bi.jpeg,0,13,13,13,0,5,5,5,1612.837358152,None,1612.837358152,None,1,3.2403065839998817,1612.837358152,None,1616.111440045,None,1616.111440045,None,1618.614617326,None,1618.614617326,None,1.8018608990000757,1620.417782998,None,1620.417782998,None,5,1,1.0352317120000407,1622.2064790149998,None,1622.2064790149998,None,1622.2064790149998,None,1623.258299652,None,1,0.31671478799989927,1623.258299652,None,160,1623.5919364330002,None,118,B,1,2021_May_26_0933,GazeFlow,2020.1.2,59.9583393867835,
14,Block815.xls,B,15,7,98,2,None,incongruent,Right,Left,Right,35,38,3,blue,2,6,/home/docky/apps/exp/images/35Bi.jpeg,/home/docky/apps/exp/images/38B.jpeg,0,13,13,13,0,6,6,6,1624.593995057,None,1624.593995057,None,1,3.4243359930001134,1624.593995057,None,1628.051711945,None,1628.051711945,None,1630.5565573210001,None,1630.5565573210001,None,1.200222107999707,1632.358826229,None,1632.358826229,None,6,1,0.9179246359999524,1633.5452170560002,None,1633.5452170560002,None,1633.5452170560002,None,1634.4798509749999,None,1,0.46803361100000984,1634.4798509749999,None,162,1634.9646147080002,None,118,B,1,2021_May_26_0933,GazeFlow,2020.1.2,59.9583393867835,
14,Block815.xls,B,15,8,59,59,None,congruent,Left,Left,Right,38,39,1,yellow,2,6,/home/docky/apps/exp/images/38Yi.jpeg,/home/docky/apps/exp/images/39Y.jpeg,0,13,13,13,0,7,7,7,1635.966315275,None,1635.966315275,None,1,3.323661597999944,1635.966315275,None,1639.3224855049998,None,1639.3224855049998,None,1641.833021972,None,1641.833021972,None,1.5010856450003303,1643.630575019,None,1643.630575019,None,6,1,0.8177897600003234,1645.1180455150002,None,1645.1180455150002,None,1645.1180455150002,None,1645.952363113,None,1,0.5017481790000602,1645.952363113,None,164,1646.4706802270002,None,118,B,1,2021_May_26_0933,GazeFlow,2020.1.2,59.9583393867835,
14,Block815.xls,B,,,,,,,,,,,,,,,,,,0,13,13,13,,,,,,,,,,,,,,,,,,,,,,,,,,,,,,,,,,,,,,,,,,,,118,B,1,2021_May_26_0933,GazeFlow,2020.1.2,59.9583393867835,
15,Block807.xls,B,7,1,71,71,None,congruent,Left,Left,Right,79,82,3,yellow,2,6,/home/docky/apps/exp/images/79Y.jpeg,/home/docky/apps/exp/images/80Yi.jpeg,0,14,14,14,0,0,0,0,1671.103624034,None,1671.103624034,None,1,2.76352986899974,1671.103624034,None,1673.896779878,None,1673.896779878,None,1676.4134547499998,None,1676.4134547499998,None,1.8675709979997919,1678.213944705,None,1678.213944705,None,6,1,0.9520615100000214,1680.0703296709999,None,1680.0703296709999,None,1680.0703296709999,None,1681.038595095,None,1,0.45071713900006216,1681.038595095,None,166,1681.505567263,None,118,B,1,2021_May_26_0933,GazeFlow,2020.1.2,59.9583393867835,
15,Block807.xls,B,7,2,44,44,None,congruent,Right,Right,Left,83,80,3,blue,2,5,/home/docky/apps/exp/images/83Bi.jpeg,/home/docky/apps/exp/images/80B.jpeg,0,14,14,14,0,1,1,1,1682.5076074049998,None,1682.5076074049998,None,1,3.3906988710000405,1682.5076074049998,None,1685.9321918370001,None,1685.9321918370001,None,1688.4350732090002,None,1688.4350732090002,None,1.017159537000225,1690.238786456,None,1690.238786456,None,5,1,0.8848256870001023,1691.2420337429999,None,1691.2420337429999,None,1691.2420337429999,None,1692.1433823349998,None,1,0.35113989599994966,1692.1433823349998,None,168,1692.511258784,None,118,B,1,2021_May_26_0933,GazeFlow,2020.1.2,59.9583393867835,
15,Block807.xls,B,7,3,48,48,None,congruent,Right,Right,Left,39,38,1,blue,2,5,/home/docky/apps/exp/images/39Bi.jpeg,/home/docky/apps/exp/images/38B.jpeg,0,14,14,14,0,2,2,2,1693.512403069,None,1693.512403069,None,1,3.3747128169998177,1693.512403069,None,1696.9202422429998,None,1696.9202422429998,None,1699.424055848,None,1699.424055848,None,1.6514115790000687,1701.227082245,None,1701.227082245,None,5,1,0.8857627870002034,1702.864698885,None,1702.864698885,None,1702.864698885,None,1703.766196608,None,1,0.38435604400001466,1703.766196608,None,170,1704.1666682720002,None,118,B,1,2021_May_26_0933,GazeFlow,2020.1.2,59.9583393867835,
15,Block807.xls,B,7,4,113,17,None,incongruent,Right,Left,Right,72,77,5,yellow,2,6,/home/docky/apps/exp/images/72Yi.jpeg,/home/docky/apps/exp/images/77Y.jpeg,0,14,14,14,0,3,3,3,1705.168921216,None,1705.168921216,None,1,4.025203606000105,1705.168921216,None,1709.228132188,None,1709.228132188,None,1711.7306131569999,None,1711.7306131569999,None,1.1669405990000996,1713.536310003,None,1713.536310003,None,6,1,0.8515581999999995,1714.688055658,None,1714.688055658,None,1714.688055658,None,1715.556177503,None,1,0.46790943099995275,1715.556177503,None,172,1716.040740758,None,118,B,1,2021_May_26_0933,GazeFlow,2020.1.2,59.9583393867835,
15,Block807.xls,B,7,5,69,69,None,congruent,Left,Left,Right,72,77,5,yellow,2,6,/home/docky/apps/exp/images/72Y.jpeg,/home/docky/apps/exp/images/77Yi.jpeg,0,14,14,14,0,4,4,4,1717.0422809420002,None,1717.0422809420002,None,1,3.2235768790001202,1717.0422809420002,None,1720.2998009849998,None,1720.2998009849998,None,1722.8043957640002,None,1722.8043957640002,None,1.1506135890003861,1724.6081163939998,None,1724.6081163939998,None,6,1,0.8347307509998245,1725.7432240100002,None,1725.7432240100002,None,1725.7432240100002,None,1726.594348091,None,1,0.5184151670000574,1726.594348091,None,174,1727.129173159,None,118,B,1,2021_May_26_0933,GazeFlow,2020.1.2,59.9583393867835,
15,Block807.xls,B,7,6,39,39,None,congruent,Right,Right,Left,79,76,3,blue,2,5,/home/docky/apps/exp/images/79B.jpeg,/home/docky/apps/exp/images/76Bi.jpeg,0,14,14,14,0,5,5,5,1728.1306366,None,1728.1306366,None,1,3.290629424999679,1728.1306366,None,1731.454858956,None,1731.454858956,None,1733.959821129,None,1733.959821129,None,1.2005939470000158,1735.7619938869998,None,1735.7619938869998,None,5,1,0.8342255799998384,1736.948640826,None,1736.948640826,None,1736.948640826,None,1737.799604122,None,1,0.46840232099975765,1737.799604122,None,176,1738.284228429,None,118,B,1,2021_May_26_0933,GazeFlow,2020.1.2,59.9583393867835,
15,Block807.xls,B,7,7,50,50,None,congruent,Left,Left,Right,33,35,2,yellow,2,6,/home/docky/apps/exp/images/33Y.jpeg,/home/docky/apps/exp/images/35Yi.jpeg,0,14,14,14,0,6,6,6,1739.2859519429999,None,1739.2859519429999,None,1,3.5410701830001017,1739.2859519429999,None,1742.8606232920001,None,1742.8606232920001,None,1745.365768403,None,1745.365768403,None,1.3005903039997975,1747.1627935440001,None,1747.1627935440001,None,6,1,0.8009286440001233,1748.454723152,None,1748.454723152,None,1748.454723152,None,1749.272132303,None,1,0.5188667330003227,1749.272132303,None,178,1749.8066553550002,None,118,B,1,2021_May_26_0933,GazeFlow,2020.1.2,59.9583393867835,
15,Block807.xls,B,7,8,19,19,None,congruent,Left,Left,Right,76,79,3,blue,2,6,/home/docky/apps/exp/images/76B.jpeg,/home/docky/apps/exp/images/79Bi.jpeg,0,14,14,14,0,7,7,7,1750.8086742199998,None,1750.8086742199998,None,1,3.490886669000247,1750.8086742199998,None,1754.3333851759999,None,1754.3333851759999,None,1756.8359997159996,None,1756.8359997159996,None,1.2840821640002105,1758.6389982350001,None,1758.6389982350001,None,6,1,3.5400610039996536,1759.9102960230002,None,1759.9102960230002,None,1759.9102960230002,None,1763.4668439280003,None,1,0.5344311119997656,1763.4668439280003,None,180,1764.017811996,None,118,B,1,2021_May_26_0933,GazeFlow,2020.1.2,59.9583393867835,
15,Block807.xls,B,,,,,,,,,,,,,,,,,,0,14,14,14,,,,,,,,,,,,,,,,,,,,,,,,,,,,,,,,,,,,,,,,,,,,118,B,1,2021_May_26_0933,GazeFlow,2020.1.2,59.9583393867835,
