Nblock,condsFile,grouping,Block,TrialBlock,N,trialN,trialCond,gazeCon,gazedirR,corrBinR,corrBinP,valLBY,valRBY,diff,colorCube,feedbacktext,corrAns,imageL,imageR,SelBlocks.thisRepN,SelBlocks.thisTrialN,SelBlocks.thisN,SelBlocks.thisIndex,Trials.thisRepN,Trials.thisTrialN,Trials.thisN,Trials.thisIndex,waitCube.started,waitCube.stopped,text_3.started,text_3.stopped,StartKeyPress.keys,StartKeyPress.rt,StartKeyPress.started,StartKeyPress.stopped,StimL.started,StimL.stopped,StimR.started,StimR.stopped,imageStim2L.started,imageStim2L.stopped,imageStim2R.started,imageStim2R.stopped,RTkeyRelease,imageStim3L.started,imageStim3L.stopped,imageStim3R.started,imageStim3R.stopped,dropResp.keys,dropResp.corr,dropResp.rt,dropResp.started,dropResp.stopped,imageStim5L.started,imageStim5L.stopped,imageStim5R.started,imageStim5R.stopped,text_2.started,text_2.stopped,ReturnSpace.keys,ReturnSpace.rt,ReturnSpace.started,ReturnSpace.stopped,totalpoints,textFeedback.started,textFeedback.stopped,participant,group,session,date,expName,psychopyVersion,frameRate,
1,Block502.xls,A,2,1,93,33,22,incongruent,Left,Right,Left,38,35,3,blue,2,5,/home/docky/apps/exp/images/38B.jpeg,/home/docky/apps/exp/images/35Bi.jpeg,0,0,0,0,0,0,0,0,40.15547310599959,None,40.15547310599959,None,1,4.563897560999976,40.15547310599959,None,44.7540804500004,None,44.7540804500004,None,47.269264397999905,None,47.269264397999905,None,1.934876770000301,49.07199929400031,None,49.07199929400031,None,5,1,0.9687023229998886,50.99054369900023,None,50.99054369900023,None,50.99054369900023,None,51.97543441400012,None,1,0.5843001590001222,51.97543441400012,None,2,52.57583063099992,None,119,A,1,2021_May_26_1107,GazeFlow,2020.1.2,60.68193361821741,
1,Block502.xls,A,2,2,42,42,12,congruent,Right,Right,Left,83,80,3,blue,2,5,/home/docky/apps/exp/images/83Bi.jpeg,/home/docky/apps/exp/images/80B.jpeg,0,0,0,0,0,1,1,1,53.57787787500001,None,53.57787787500001,None,1,4.643725455999629,53.57787787500001,None,58.25492424300046,None,58.25492424300046,None,60.760001767000176,None,60.760001767000176,None,1.8350963660004709,62.55633660500007,None,62.55633660500007,None,5,1,1.0024545169999328,64.38304934799999,None,64.38304934799999,None,64.38304934799999,None,65.40150733599967,None,1,0.5842133129999638,65.40150733599967,None,4,66.0024276410004,None,119,A,1,2021_May_26_1107,GazeFlow,2020.1.2,60.68193361821741,
1,Block502.xls,A,2,3,9,9,11,congruent,Left,Left,Right,38,39,1,blue,2,6,/home/docky/apps/exp/images/38Bi.jpeg,/home/docky/apps/exp/images/39B.jpeg,0,0,0,0,0,2,2,2,67.00411964500017,None,67.00411964500017,None,1,4.89371447800022,67.00411964500017,None,71.93156991900014,None,71.93156991900014,None,74.43410808899989,None,74.43410808899989,None,2.753867681999509,76.23778438699992,None,76.23778438699992,None,5,0,1.1859734740000931,78.99402721000024,None,78.99402721000024,None,78.99402721000024,None,80.19652099999985,None,1,0.5681620129998919,80.19652099999985,None,2,80.78101648899974,None,119,A,1,2021_May_26_1107,GazeFlow,2020.1.2,60.68193361821741,
1,Block502.xls,A,2,4,23,23,11,congruent,Left,Left,Right,38,39,1,yellow,2,6,/home/docky/apps/exp/images/38Yi.jpeg,/home/docky/apps/exp/images/39Y.jpeg,0,0,0,0,0,3,3,3,81.78350707899972,None,81.78350707899972,None,1,4.342064974000095,81.78350707899972,None,86.15938387000006,None,86.15938387000006,None,88.66406604500025,None,88.66406604500025,None,3.42190475300049,90.46767375499985,None,90.46767375499985,None,6,1,1.5372744119995332,93.889263905,None,93.889263905,None,93.889263905,None,95.44329013999959,None,1,0.3838310139999521,95.44329013999959,None,4,95.84378133599967,None,119,A,1,2021_May_26_1107,GazeFlow,2020.1.2,60.68193361821741,
1,Block502.xls,A,2,5,57,57,12,congruent,Right,Right,Left,77,72,5,yellow,2,5,/home/docky/apps/exp/images/77Y.jpeg,/home/docky/apps/exp/images/72Yi.jpeg,0,0,0,0,0,4,4,4,96.8460814250002,None,96.8460814250002,None,1,4.726287707000665,96.8460814250002,None,101.60743232099958,None,101.60743232099958,None,104.10914889299966,None,104.10914889299966,None,1.634287026000493,105.91194997000002,None,105.91194997000002,None,5,1,1.0696948559998418,107.53388032800012,None,107.53388032800012,None,107.53388032800012,None,108.61900359900028,None,1,0.4839096599998811,108.61900359900028,None,6,109.11949078999987,None,119,A,1,2021_May_26_1107,GazeFlow,2020.1.2,60.68193361821741,
1,Block502.xls,A,2,6,118,58,22,incongruent,Left,Right,Left,80,79,1,yellow,2,5,/home/docky/apps/exp/images/80Yi.jpeg,/home/docky/apps/exp/images/79Y.jpeg,0,0,0,0,0,5,5,5,110.12125553799979,None,110.12125553799979,None,1,4.609941906999666,110.12125553799979,None,114.76484383200022,None,114.76484383200022,None,117.2680238969997,None,117.2680238969997,None,1.9519586140004321,119.07295598499968,None,119.07295598499968,None,5,1,0.9689056139995955,121.00996019400009,None,121.00996019400009,None,121.00996019400009,None,121.99511226699997,None,1,0.40042143800019403,121.99511226699997,None,8,122.4118240329999,None,119,A,1,2021_May_26_1107,GazeFlow,2020.1.2,60.68193361821741,
1,Block502.xls,A,2,7,101,41,22,incongruent,Left,Right,Left,83,80,3,blue,2,5,/home/docky/apps/exp/images/83Bi.jpeg,/home/docky/apps/exp/images/80B.jpeg,0,0,0,0,0,6,6,6,123.41412259000026,None,123.41412259000026,None,1,4.509410695999577,123.41412259000026,None,127.95709484300005,None,127.95709484300005,None,130.4622468309999,None,130.4622468309999,None,1.8353211789999477,132.26564555999994,None,132.26564555999994,None,5,1,1.051938575999884,134.08562574000007,None,134.08562574000007,None,134.08562574000007,None,135.15401712200037,None,1,0.4840978259999247,135.15401712200037,None,10,135.6546999889997,None,119,A,1,2021_May_26_1107,GazeFlow,2020.1.2,60.68193361821741,
1,Block502.xls,A,2,8,69,9,21,incongruent,Right,Left,Right,73,76,3,blue,2,6,/home/docky/apps/exp/images/73B.jpeg,/home/docky/apps/exp/images/76Bi.jpeg,0,0,0,0,0,7,7,7,136.65640550399985,None,136.65640550399985,None,1,4.309277555000335,136.65640550399985,None,140.9996078260001,None,140.9996078260001,None,143.5023750649998,None,143.5023750649998,None,1.6183797670000786,145.3053097640004,None,145.3053097640004,None,6,1,0.8850730960002693,146.91057014299986,None,146.91057014299986,None,146.91057014299986,None,147.8119992539996,None,1,0.4838502349994087,147.8119992539996,None,12,148.31230156899983,None,119,A,1,2021_May_26_1107,GazeFlow,2020.1.2,60.68193361821741,
1,Block502.xls,A,,,,,,,,,,,,,,,,,,0,0,0,0,,,,,,,,,,,,,,,,,,,,,,,,,,,,,,,,,,,,,,,,,,,,119,A,1,2021_May_26_1107,GazeFlow,2020.1.2,60.68193361821741,
2,Block506.xls,A,6,1,120,60,22,incongruent,Left,Right,Left,80,79,1,yellow,2,5,/home/docky/apps/exp/images/80Yi.jpeg,/home/docky/apps/exp/images/79Y.jpeg,0,1,1,1,0,0,0,0,170.62463190499966,None,170.62463190499966,None,1,5.952824570000303,170.62463190499966,None,176.6042074799998,None,176.6042074799998,None,179.12212231000012,None,179.12212231000012,None,1.9512324219995207,180.92531644599967,None,180.92531644599967,None,5,1,0.985231892000229,182.86387108800045,None,182.86387108800045,None,182.86387108800045,None,183.865643825,None,1,0.5004397840002639,183.865643825,None,14,184.38297462500032,None,119,A,1,2021_May_26_1107,GazeFlow,2020.1.2,60.68193361821741,
2,Block506.xls,A,6,2,51,51,12,congruent,Right,Right,Left,66,65,1,yellow,2,5,/home/docky/apps/exp/images/66Y.jpeg,/home/docky/apps/exp/images/35Bi.jpeg,0,1,1,1,0,1,1,1,185.38465434000045,None,185.38465434000045,None,1,4.726728345999618,185.38465434000045,None,190.14506738,None,190.14506738,None,192.64983988899985,None,192.64983988899985,None,1.4509038079995662,194.45168531900072,None,194.45168531900072,None,5,1,0.9518428499995935,195.8891630749995,None,195.8891630749995,None,195.8891630749995,None,196.85748372299986,None,1,0.48400948000016797,196.85748372299986,None,16,197.35804254400045,None,119,A,1,2021_May_26_1107,GazeFlow,2020.1.2,60.68193361821741,
2,Block506.xls,A,6,3,119,59,22,incongruent,Left,Right,Left,80,79,1,yellow,2,5,/home/docky/apps/exp/images/80Y.jpeg,/home/docky/apps/exp/images/79Yi.jpeg,0,1,1,1,0,2,2,2,198.36014960400007,None,198.36014960400007,None,1,4.3926786450010695,198.36014960400007,None,202.78658535799968,None,202.78658535799968,None,205.29122422700038,None,205.29122422700038,None,1.617909234999388,207.09315255000092,None,207.09315255000092,None,5,1,1.319194472000163,208.69718721700065,None,208.69718721700065,None,208.69718721700065,None,210.0326497470005,None,1,0.6675097470015317,210.0326497470005,None,18,210.7171755770005,None,119,A,1,2021_May_26_1107,GazeFlow,2020.1.2,60.68193361821741,
2,Block506.xls,A,6,4,28,28,11,congruent,Left,Left,Right,72,77,5,yellow,2,6,/home/docky/apps/exp/images/72Y.jpeg,/home/docky/apps/exp/images/77Yi.jpeg,0,1,1,1,0,3,3,3,211.71936969500075,None,211.71936969500075,None,1,4.542282028000045,211.71936969500075,None,216.29886760700083,None,216.29886760700083,None,218.79847264699947,None,218.79847264699947,None,1.5178016310001112,220.59636274899913,None,220.59636274899913,None,6,1,0.9684328339990316,222.10636762299964,None,222.10636762299964,None,222.10636762299964,None,223.09127387200078,None,1,0.4344702149992372,223.09127387200078,None,20,223.54218692400082,None,119,A,1,2021_May_26_1107,GazeFlow,2020.1.2,60.68193361821741,
2,Block506.xls,A,6,5,85,25,21,incongruent,Right,Left,Right,69,75,6,yellow,2,6,/home/docky/apps/exp/images/69Y.jpeg,/home/docky/apps/exp/images/76Yi.jpeg,0,1,1,1,0,4,4,4,224.5437533180002,None,224.5437533180002,None,1,4.676700682999581,224.5437533180002,None,229.2538972150005,None,229.2538972150005,None,231.75610347599923,None,231.75610347599923,None,2.219181242000559,233.55525613600093,None,233.55525613600093,None,6,1,1.017808791999414,235.7662225590002,None,235.7662225590002,None,235.7662225590002,None,236.8004107679999,None,1,0.5682441900007689,236.8004107679999,None,22,237.38507940699947,None,119,A,1,2021_May_26_1107,GazeFlow,2020.1.2,60.68193361821741,
2,Block506.xls,A,6,6,71,11,21,incongruent,Right,Left,Right,76,79,3,blue,2,6,/home/docky/apps/exp/images/76B.jpeg,/home/docky/apps/exp/images/79Bi.jpeg,0,1,1,1,0,5,5,5,238.38744507499996,None,238.38744507499996,None,1,3.5903901060009957,238.38744507499996,None,242.01148218700018,None,242.01148218700018,None,244.51647447800042,None,244.51647447800042,None,1.6016154549997736,246.3197639580003,None,246.3197639580003,None,6,1,1.6028560960003233,247.90589929900034,None,247.90589929900034,None,247.90589929900034,None,249.52501440099968,None,1,0.9354829210005846,249.52501440099968,None,24,250.47683701299957,None,119,A,1,2021_May_26_1107,GazeFlow,2020.1.2,60.68193361821741,
2,Block506.xls,A,6,7,56,56,12,congruent,Right,Right,Left,76,69,7,yellow,2,5,/home/docky/apps/exp/images/76Yi.jpeg,/home/docky/apps/exp/images/69Y.jpeg,0,1,1,1,0,6,6,6,251.47938514100042,None,251.47938514100042,None,1,5.594674317000681,251.47938514100042,None,257.1074160979997,None,257.1074160979997,None,259.6103067239992,None,259.6103067239992,None,1.5846638340008212,261.41405559599934,None,261.41405559599934,None,5,1,1.0684899440002482,262.98489431299913,None,262.98489431299913,None,262.98489431299913,None,264.07002915000066,None,1,0.5840555979993951,264.07002915000066,None,26,264.6706556269992,None,119,A,1,2021_May_26_1107,GazeFlow,2020.1.2,60.68193361821741,
2,Block506.xls,A,6,8,33,33,12,congruent,Right,Right,Left,38,35,3,blue,2,5,/home/docky/apps/exp/images/38B.jpeg,/home/docky/apps/exp/images/35Bi.jpeg,0,1,1,1,0,7,7,7,265.6727548280005,None,265.6727548280005,None,1,4.660067908000201,265.6727548280005,None,270.3661783050002,None,270.3661783050002,None,272.8691998200002,None,272.8691998200002,None,2.470123680999677,274.6675663399992,None,274.6675663399992,None,5,1,0.9522871540011693,277.14412922499923,None,277.14412922499923,None,277.14412922499923,None,278.11293025299983,None,1,0.5513173799990909,278.11293025299983,None,28,278.6808909950005,None,119,A,1,2021_May_26_1107,GazeFlow,2020.1.2,60.68193361821741,
2,Block506.xls,A,,,,,,,,,,,,,,,,,,0,1,1,1,,,,,,,,,,,,,,,,,,,,,,,,,,,,,,,,,,,,,,,,,,,,119,A,1,2021_May_26_1107,GazeFlow,2020.1.2,60.68193361821741,
3,Block505.xls,A,5,1,1,1,11,congruent,Left,Left,Right,16,19,3,blue,2,6,/home/docky/apps/exp/images/16Bi.jpeg,/home/docky/apps/exp/images/19B.jpeg,0,2,2,2,0,0,0,0,296.26669116299945,None,296.26669116299945,None,1,6.116521185000238,296.26669116299945,None,302.411401671,None,302.411401671,None,304.9325161730003,None,304.9325161730003,None,2.318641273999674,306.7332953640007,None,306.7332953640007,None,6,1,1.0682226179997087,309.0401467090005,None,309.0401467090005,None,309.0401467090005,None,310.12509032400067,None,1,1.3029163850005716,310.12509032400067,None,30,311.44450081299965,None,119,A,1,2021_May_26_1107,GazeFlow,2020.1.2,60.68193361821741,
3,Block505.xls,A,5,2,10,10,11,congruent,Left,Left,Right,73,76,3,blue,2,6,/home/docky/apps/exp/images/73B.jpeg,/home/docky/apps/exp/images/76Bi.jpeg,0,2,2,2,0,1,1,1,312.4464303520008,None,312.4464303520008,None,1,5.828094753000187,312.4464303520008,None,318.30871131500044,None,318.30871131500044,None,320.8132278179992,None,320.8132278179992,None,2.620339265000439,322.6099306269998,None,322.6099306269998,None,6,1,1.1181362780007476,325.23843376899913,None,325.23843376899913,None,325.23843376899913,None,326.3727128799992,None,1,0.7347732260004705,326.3727128799992,None,32,327.1245352680007,None,119,A,1,2021_May_26_1107,GazeFlow,2020.1.2,60.68193361821741,
3,Block505.xls,A,5,3,95,35,22,incongruent,Left,Right,Left,66,65,1,blue,2,5,/home/docky/apps/exp/images/66B.jpeg,/home/docky/apps/exp/images/35Yi.jpeg,0,2,2,2,0,2,2,2,328.1265858880006,None,328.1265858880006,None,1,5.244223919000433,328.1265858880006,None,333.4039146210007,None,333.4039146210007,None,335.9089887939999,None,335.9089887939999,None,1.9855080070010445,337.70520399699944,None,337.70520399699944,None,5,1,1.1015168240010098,339.68257243899916,None,339.68257243899916,None,339.68257243899916,None,340.8006995829992,None,1,0.5676708709997911,340.8006995829992,None,34,341.385254713,None,119,A,1,2021_May_26_1107,GazeFlow,2020.1.2,60.68193361821741,
3,Block505.xls,A,5,4,46,46,12,congruent,Right,Right,Left,35,33,2,yellow,2,5,/home/docky/apps/exp/images/35Yi.jpeg,/home/docky/apps/exp/images/33Y.jpeg,0,2,2,2,0,3,3,3,342.38748474300064,None,342.38748474300064,None,1,5.060394740999982,342.38748474300064,None,347.48289936700075,None,347.48289936700075,None,349.986103704,None,349.986103704,None,2.1526007569991634,351.7877687299997,None,351.7877687299997,None,5,1,1.0680199239996,353.92653187499945,None,353.92653187499945,None,353.92653187499945,None,355.0114161499996,None,1,1.1187922210010584,355.0114161499996,None,36,356.1469147830003,None,119,A,1,2021_May_26_1107,GazeFlow,2020.1.2,60.68193361821741,
3,Block505.xls,A,5,5,78,18,21,incongruent,Right,Left,Right,65,66,1,yellow,2,6,/home/docky/apps/exp/images/35Bi.jpeg,/home/docky/apps/exp/images/66Y.jpeg,0,2,2,2,0,4,4,4,357.1491632210009,None,357.1491632210009,None,1,5.244130262000908,357.1491632210009,None,362.42662749399915,None,362.42662749399915,None,364.9297731809993,None,364.9297731809993,None,3.254991753001377,366.7324097589999,None,366.7324097589999,None,5,0,0.9675210369987326,369.99127531400063,None,369.99127531400063,None,369.99127531400063,None,370.97543337300067,None,1,0.7346187129987811,370.97543337300067,None,34,371.7268993339994,None,119,A,1,2021_May_26_1107,GazeFlow,2020.1.2,60.68193361821741,
3,Block505.xls,A,5,6,43,43,12,congruent,Right,Right,Left,83,80,3,blue,2,5,/home/docky/apps/exp/images/83B.jpeg,/home/docky/apps/exp/images/80Bi.jpeg,0,2,2,2,0,5,5,5,372.7291091699999,None,372.7291091699999,None,1,4.709412262000114,372.7291091699999,None,377.4721466660003,None,377.4721466660003,None,379.9754478420009,None,379.9754478420009,None,1.7181059180002194,381.7808142879994,None,381.7808142879994,None,5,1,1.0019645969987323,383.4834466580005,None,383.4834466580005,None,383.4834466580005,None,384.50182642100026,None,1,0.48382709799989243,384.50182642100026,None,36,385.0023829819993,None,119,A,1,2021_May_26_1107,GazeFlow,2020.1.2,60.68193361821741,
3,Block505.xls,A,5,7,44,44,12,congruent,Right,Right,Left,39,38,1,blue,2,5,/home/docky/apps/exp/images/39Bi.jpeg,/home/docky/apps/exp/images/38B.jpeg,0,2,2,2,0,6,6,6,386.00406349700006,None,386.00406349700006,None,1,6.513560977999077,386.00406349700006,None,392.55146929499915,None,392.55146929499915,None,395.0559827049992,None,395.0559827049992,None,2.5870084909984143,396.85776996200093,None,396.85776996200093,None,5,1,1.0008470680004393,399.4480005859996,None,399.4480005859996,None,399.4480005859996,None,400.46543176999967,None,1,0.48469403900162433,400.46543176999967,None,38,400.9664142749998,None,119,A,1,2021_May_26_1107,GazeFlow,2020.1.2,60.68193361821741,
3,Block505.xls,A,5,8,116,56,22,incongruent,Left,Right,Left,77,72,5,yellow,2,5,/home/docky/apps/exp/images/77Y.jpeg,/home/docky/apps/exp/images/72Y.jpeg,0,2,2,2,0,7,7,7,401.96873644400057,None,401.96873644400057,None,1,8.065758569999161,401.96873644400057,None,410.0684348019995,None,410.0684348019995,None,412.5732247629994,None,412.5732247629994,None,1.968767475000277,414.37479225399966,None,414.37479225399966,None,5,1,1.1684339630010072,416.3298766609996,None,416.3298766609996,None,416.3298766609996,None,417.515094546,None,1,0.701527701001396,417.515094546,None,40,418.23302771600083,None,119,A,1,2021_May_26_1107,GazeFlow,2020.1.2,60.68193361821741,
3,Block505.xls,A,,,,,,,,,,,,,,,,,,0,2,2,2,,,,,,,,,,,,,,,,,,,,,,,,,,,,,,,,,,,,,,,,,,,,119,A,1,2021_May_26_1107,GazeFlow,2020.1.2,60.68193361821741,
4,Block509.xls,A,9,1,34,34,12,congruent,Right,Right,Left,38,35,3,blue,2,5,/home/docky/apps/exp/images/38Bi.jpeg,/home/docky/apps/exp/images/35B.jpeg,0,3,3,3,0,0,0,0,447.0391431960006,None,447.0391431960006,None,1,4.900945248000426,447.0391431960006,None,451.9622859000001,None,451.9622859000001,None,454.4875749270004,None,454.4875749270004,None,2.4693925009996747,456.2909553189993,None,456.2909553189993,None,5,1,0.9006236559998797,458.7624557179997,None,458.7624557179997,None,458.7624557179997,None,459.67984592999983,None,1,0.5678453630007425,459.67984592999983,None,42,460.2640317529995,None,119,A,1,2021_May_26_1107,GazeFlow,2020.1.2,60.68193361821741,
4,Block509.xls,A,9,2,7,7,11,congruent,Left,Left,Right,65,66,1,blue,2,6,/home/docky/apps/exp/images/35Yi.jpeg,/home/docky/apps/exp/images/66B.jpeg,0,3,3,3,0,1,1,1,461.2665649590008,None,461.2665649590008,None,1,4.87628297000083,461.2665649590008,None,466.17675075600073,None,466.17675075600073,None,468.6815263939998,None,468.6815263939998,None,2.3533990969990555,470.4845427329992,None,470.4845427329992,None,6,1,1.0174435710014222,472.8229178020001,None,472.8229178020001,None,472.8229178020001,None,473.8571312920003,None,1,0.9518991589993675,473.8571312920003,None,44,474.8261821320002,None,119,A,1,2021_May_26_1107,GazeFlow,2020.1.2,60.68193361821741,
4,Block509.xls,A,9,3,74,14,21,incongruent,Right,Left,Right,80,83,3,blue,2,6,/home/docky/apps/exp/images/80B.jpeg,/home/docky/apps/exp/images/83Bi.jpeg,0,3,3,3,0,2,2,2,475.82797759799996,None,475.82797759799996,None,1,4.442632471000252,475.82797759799996,None,480.30638177700075,None,480.30638177700075,None,482.8119955280008,None,482.8119955280008,None,1.7680677339994872,484.6053793960009,None,484.6053793960009,None,6,1,0.9855248059993755,486.3648831340006,None,486.3648831340006,None,486.3648831340006,None,487.3668245630006,None,1,0.5845019659991522,487.3668245630006,None,46,487.9676288370001,None,119,A,1,2021_May_26_1107,GazeFlow,2020.1.2,60.68193361821741,
4,Block509.xls,A,9,4,19,19,11,congruent,Left,Left,Right,65,66,1,yellow,2,6,/home/docky/apps/exp/images/35Bi.jpeg,/home/docky/apps/exp/images/66Y.jpeg,0,3,3,3,0,3,3,3,488.9701109330008,None,488.9701109330008,None,1,5.026540685999862,488.9701109330008,None,494.03053076800006,None,494.03053076800006,None,496.53285565699935,None,496.53285565699935,None,1.6181873559999076,498.33882125199943,None,498.33882125199943,None,6,1,0.9856476170007227,499.94145673299954,None,499.94145673299954,None,499.94145673299954,None,500.9431477190001,None,1,0.5339841870008968,500.9431477190001,None,48,501.4937518409997,None,119,A,1,2021_May_26_1107,GazeFlow,2020.1.2,60.68193361821741,
4,Block509.xls,A,9,5,60,60,12,congruent,Right,Right,Left,80,79,1,yellow,2,5,/home/docky/apps/exp/images/80Yi.jpeg,/home/docky/apps/exp/images/79Y.jpeg,0,3,3,3,0,4,4,4,502.4956300370004,None,502.4956300370004,None,1,5.444994930998291,502.4956300370004,None,507.9740080239999,None,507.9740080239999,None,510.4787262870004,None,510.4787262870004,None,1.2839529880002374,512.2805629160002,None,512.2805629160002,None,5,1,1.0185371169991413,513.5508362499995,None,513.5508362499995,None,513.5508362499995,None,514.5860941740002,None,1,0.4346880819994112,514.5860941740002,None,50,515.0369111150003,None,119,A,1,2021_May_26_1107,GazeFlow,2020.1.2,60.68193361821741,
4,Block509.xls,A,9,6,83,23,21,incongruent,Right,Left,Right,38,39,1,yellow,2,6,/home/docky/apps/exp/images/38Yi.jpeg,/home/docky/apps/exp/images/39Y.jpeg,0,3,3,3,0,5,5,5,516.0385154469996,None,516.0385154469996,None,1,6.146351044999392,516.0385154469996,None,522.2182414320005,None,522.2182414320005,None,524.7226989510009,None,524.7226989510009,None,3.021156078999411,526.519685274,None,526.519685274,None,6,1,0.9672839140002907,529.5489293769997,None,529.5489293769997,None,529.5489293769997,None,530.5330528580007,None,1,0.40090953199978685,530.5330528580007,None,52,530.9505714750003,None,119,A,1,2021_May_26_1107,GazeFlow,2020.1.2,60.68193361821741,
4,Block509.xls,A,9,7,4,4,11,congruent,Left,Left,Right,35,38,3,blue,2,6,/home/docky/apps/exp/images/35B.jpeg,/home/docky/apps/exp/images/38Bi.jpeg,0,3,3,3,0,6,6,6,531.9529417580006,None,531.9529417580006,None,1,4.492271062999862,531.9529417580006,None,536.4792453210002,None,536.4792453210002,None,538.9820713840008,None,538.9820713840008,None,1.467683617000148,540.7858538230003,None,540.7858538230003,None,6,1,1.0853441220006061,542.2396003540007,None,542.2396003540007,None,542.2396003540007,None,543.3415727279998,None,1,0.5009881629994197,543.3415727279998,None,54,543.8588068390009,None,119,A,1,2021_May_26_1107,GazeFlow,2020.1.2,60.68193361821741,
4,Block509.xls,A,9,8,24,24,11,congruent,Left,Left,Right,38,39,1,yellow,2,6,/home/docky/apps/exp/images/38Y.jpeg,/home/docky/apps/exp/images/39Yi.jpeg,0,3,3,3,0,7,7,7,544.8609921609996,None,544.8609921609996,None,1,6.379860681001446,544.8609921609996,None,551.2742549000004,None,551.2742549000004,None,553.7790395540005,None,553.7790395540005,None,2.269399689999773,555.5757980379994,None,555.5757980379994,None,6,1,1.0017530919994897,557.8362027350004,None,557.8362027350004,None,557.8362027350004,None,558.8546142309997,None,1,0.3672909699998854,558.8546142309997,None,56,559.2384089460002,None,119,A,1,2021_May_26_1107,GazeFlow,2020.1.2,60.68193361821741,
4,Block509.xls,A,,,,,,,,,,,,,,,,,,0,3,3,3,,,,,,,,,,,,,,,,,,,,,,,,,,,,,,,,,,,,,,,,,,,,119,A,1,2021_May_26_1107,GazeFlow,2020.1.2,60.68193361821741,
5,Block504.xls,A,4,1,11,11,11,congruent,Left,Left,Right,73,76,3,blue,2,6,/home/docky/apps/exp/images/73Bi.jpeg,/home/docky/apps/exp/images/76B.jpeg,0,4,4,4,0,0,0,0,578.9963927380004,None,578.9963927380004,None,1,5.629163069999777,578.9963927380004,None,584.6519970439995,None,584.6519970439995,None,587.1770922259993,None,587.1770922259993,None,1.851520784000968,588.963508971,None,588.963508971,None,6,1,0.8516831569995702,590.8001307700006,None,590.8001307700006,None,590.8001307700006,None,591.6682742300009,None,1,0.35032369299915445,591.6682742300009,None,58,592.0354949080001,None,119,A,1,2021_May_26_1107,GazeFlow,2020.1.2,60.68193361821741,
5,Block504.xls,A,4,2,87,27,21,incongruent,Right,Left,Right,72,77,5,yellow,2,6,/home/docky/apps/exp/images/72Y.jpeg,/home/docky/apps/exp/images/77Yi.jpeg,0,4,4,4,0,1,1,1,593.0370872150006,None,593.0370872150006,None,1,4.994591347000096,593.0370872150006,None,598.0644553129996,None,598.0644553129996,None,600.5672205740002,None,600.5672205740002,None,2.4533062589998735,602.3709991240003,None,602.3709991240003,None,6,1,1.2009945800000423,604.8277848419993,None,604.8277848419993,None,604.8277848419993,None,606.0455282539997,None,1,0.43425399199986714,606.0455282539997,None,60,606.4963510339994,None,119,A,1,2021_May_26_1107,GazeFlow,2020.1.2,60.68193361821741,
5,Block504.xls,A,4,3,48,48,12,congruent,Right,Right,Left,39,38,1,yellow,2,5,/home/docky/apps/exp/images/39Yi.jpeg,/home/docky/apps/exp/images/38Y.jpeg,0,4,4,4,0,2,2,2,607.4988528010008,None,607.4988528010008,None,1,5.27752859300017,607.4988528010008,None,612.810033969,None,612.810033969,None,615.3146227709994,None,615.3146227709994,None,2.970926072999646,617.1162133919997,None,617.1162133919997,None,5,1,2.01944065600037,620.0907793819997,None,620.0907793819997,None,620.0907793819997,None,622.1269065799997,None,1,0.46814297899982193,622.1269065799997,None,62,622.6114494050007,None,119,A,1,2021_May_26_1107,GazeFlow,2020.1.2,60.68193361821741,
5,Block504.xls,A,4,4,38,38,12,congruent,Right,Right,Left,79,73,6,blue,2,5,/home/docky/apps/exp/images/79B.jpeg,/home/docky/apps/exp/images/73Bi.jpeg,0,4,4,4,0,3,3,3,623.61347338,None,623.61347338,None,1,5.544311198000287,623.61347338,None,629.1889790710002,None,629.1889790710002,None,631.6960267620007,None,631.6960267620007,None,1.951870176999364,633.4975725699996,None,633.4975725699996,None,5,1,0.96849882800052,635.4365174189998,None,635.4365174189998,None,635.4365174189998,None,636.4216331969992,None,1,0.4002486070003215,636.4216331969992,None,64,636.8385341809999,None,119,A,1,2021_May_26_1107,GazeFlow,2020.1.2,60.68193361821741,
5,Block504.xls,A,4,5,2,2,11,congruent,Left,Left,Right,16,19,3,blue,2,6,/home/docky/apps/exp/images/16B.jpeg,/home/docky/apps/exp/images/19Bi.jpeg,0,4,4,4,0,4,4,4,637.840689308,None,637.840689308,None,1,4.859882022999955,637.840689308,None,642.7328966619998,None,642.7328966619998,None,645.2374015529995,None,645.2374015529995,None,2.8708680409999943,647.0409881770001,None,647.0409881770001,None,6,1,0.9005187700004171,649.9150756789995,None,649.9150756789995,None,649.9150756789995,None,650.8322942549994,None,1,0.7682492650001223,650.8322942549994,None,66,651.617112727,None,119,A,1,2021_May_26_1107,GazeFlow,2020.1.2,60.68193361821741,
5,Block504.xls,A,4,6,73,13,21,incongruent,Right,Left,Right,80,83,3,blue,2,6,/home/docky/apps/exp/images/80Bi.jpeg,/home/docky/apps/exp/images/83B.jpeg,0,4,4,4,0,5,5,5,652.6196392899992,None,652.6196392899992,None,1,4.459071516999757,652.6196392899992,None,657.1120850199995,None,657.1120850199995,None,659.6192872349993,None,659.6192872349993,None,2.5870941980010684,661.4185889240007,None,661.4185889240007,None,6,1,0.9840756800003874,664.0089186819996,None,664.0089186819996,None,664.0089186819996,None,665.009524995,None,1,0.4680626879999181,665.009524995,None,68,665.4940847520002,None,119,A,1,2021_May_26_1107,GazeFlow,2020.1.2,60.68193361821741,
5,Block504.xls,A,4,7,63,3,21,incongruent,Right,Left,Right,35,38,3,blue,2,6,/home/docky/apps/exp/images/35B.jpeg,/home/docky/apps/exp/images/38Bi.jpeg,0,4,4,4,0,6,6,6,666.4963263269992,None,666.4963263269992,None,1,5.510882634000154,666.4963263269992,None,672.0410520760006,None,672.0410520760006,None,674.5441532930008,None,674.5441532930008,None,2.870835267000075,676.3495091169998,None,676.3495091169998,None,6,1,0.9505413509996288,679.2215711239996,None,679.2215711239996,None,679.2215711239996,None,680.188875543,None,1,0.4176331790004042,680.188875543,None,70,680.623160057,None,119,A,1,2021_May_26_1107,GazeFlow,2020.1.2,60.68193361821741,
5,Block504.xls,A,4,8,86,26,21,incongruent,Right,Left,Right,72,77,5,yellow,2,6,/home/docky/apps/exp/images/72Yi.jpeg,/home/docky/apps/exp/images/77Y.jpeg,0,4,4,4,0,7,7,7,681.6254099700009,None,681.6254099700009,None,1,5.661770259999685,681.6254099700009,None,687.3207093080009,None,687.3207093080009,None,689.8233656450002,None,689.8233656450002,None,1.7182623879998573,691.621831296,None,691.621831296,None,6,1,1.168950433999271,693.331739917,None,693.331739917,None,693.331739917,None,694.5172053779997,None,1,0.46710208900003636,694.5172053779997,None,72,695.0009125919996,None,119,A,1,2021_May_26_1107,GazeFlow,2020.1.2,60.68193361821741,
5,Block504.xls,A,,,,,,,,,,,,,,,,,,0,4,4,4,,,,,,,,,,,,,,,,,,,,,,,,,,,,,,,,,,,,,,,,,,,,119,A,1,2021_May_26_1107,GazeFlow,2020.1.2,60.68193361821741,
6,Block511.xls,A,11,1,15,15,11,congruent,Left,Left,Right,80,83,3,blue,2,6,/home/docky/apps/exp/images/80Bi.jpeg,/home/docky/apps/exp/images/83B.jpeg,0,5,5,5,0,0,0,0,715.959877368,None,715.959877368,None,1,8.171562095998524,715.959877368,None,724.1668912249997,None,724.1668912249997,None,726.6800445399995,None,726.6800445399995,None,1.4337192679995496,728.4814151540004,None,728.4814151540004,None,6,1,1.0191899330002343,729.9024439989998,None,729.9024439989998,None,729.9024439989998,None,730.9375909090004,None,1,0.4014251509997848,730.9375909090004,None,74,731.3552283969993,None,119,A,1,2021_May_26_1107,GazeFlow,2020.1.2,60.68193361821741,
6,Block511.xls,A,11,2,105,45,22,incongruent,Left,Right,Left,39,38,1,blue,2,5,/home/docky/apps/exp/images/39Bi.jpeg,/home/docky/apps/exp/images/38B.jpeg,0,5,5,5,0,1,1,1,732.3565788810001,None,732.3565788810001,None,1,4.676423652999802,732.3565788810001,None,737.0666043009996,None,737.0666043009996,None,739.5720748699996,None,739.5720748699996,None,2.503564077998817,741.3748988329999,None,741.3748988329999,None,5,1,0.9344293889989785,743.8799156449995,None,743.8799156449995,None,743.8799156449995,None,744.8308634520008,None,1,0.517616385999645,744.8308634520008,None,76,745.3651141430009,None,119,A,1,2021_May_26_1107,GazeFlow,2020.1.2,60.68193361821741,
6,Block511.xls,A,11,3,68,8,21,incongruent,Right,Left,Right,38,39,1,blue,2,6,/home/docky/apps/exp/images/38B.jpeg,/home/docky/apps/exp/images/39Bi.jpeg,0,5,5,5,0,2,2,2,746.3675883059996,None,746.3675883059996,None,1,5.1773430700013705,746.3675883059996,None,751.5765165580005,None,751.5765165580005,None,754.0807502470007,None,754.0807502470007,None,2.737232939000023,755.8842267120008,None,755.8842267120008,None,5,0,0.9026079720006237,758.6235830819996,None,758.6235830819996,None,758.6235830819996,None,759.5424864320003,None,1,0.45124710900017817,759.5424864320003,None,74,760.0102070250005,None,119,A,1,2021_May_26_1107,GazeFlow,2020.1.2,60.68193361821741,
6,Block511.xls,A,11,4,80,20,21,incongruent,Right,Left,Right,62,65,3,yellow,2,6,/home/docky/apps/exp/images/38Bi.jpeg,/home/docky/apps/exp/images/35B.jpeg,0,5,5,5,0,3,3,3,761.0125835619992,None,761.0125835619992,None,1,4.9768968660009705,761.0125835619992,None,766.0217098820003,None,766.0217098820003,None,768.5256001200005,None,768.5256001200005,None,3.188059557998713,770.3290494670009,None,770.3290494670009,None,6,1,1.0019766820005316,773.5193362599994,None,773.5193362599994,None,773.5193362599994,None,774.5384041730003,None,1,0.4338132119992224,774.5384041730003,None,76,774.9888429539997,None,119,A,1,2021_May_26_1107,GazeFlow,2020.1.2,60.68193361821741,
6,Block511.xls,A,11,5,5,5,11,congruent,Left,Left,Right,65,66,1,blue,2,6,/home/docky/apps/exp/images/35Yi.jpeg,/home/docky/apps/exp/images/66B.jpeg,0,5,5,5,0,4,4,4,775.9915303059997,None,775.9915303059997,None,1,4.75938149600006,775.9915303059997,None,780.7843754670002,None,780.7843754670002,None,783.2877356079998,None,783.2877356079998,None,1.4845095010005025,785.0905069779992,None,785.0905069779992,None,6,1,1.2357116880011745,786.5621858339991,None,786.5621858339991,None,786.5621858339991,None,787.8144917830004,None,1,0.40027000899863197,787.8144917830004,None,78,788.2313013020002,None,119,A,1,2021_May_26_1107,GazeFlow,2020.1.2,60.68193361821741,
6,Block511.xls,A,11,6,18,18,11,congruent,Left,Left,Right,65,66,1,yellow,2,6,/home/docky/apps/exp/images/35B.jpeg,/home/docky/apps/exp/images/66Yi.jpeg,0,5,5,5,0,5,5,5,789.2339406000001,None,789.2339406000001,None,1,7.514420122000956,789.2339406000001,None,796.7806819179996,None,796.7806819179996,None,799.2850705230003,None,799.2850705230003,None,2.8873157180005364,801.0888507089994,None,801.0888507089994,None,6,1,1.2511840229999507,803.9797974099993,None,803.9797974099993,None,803.9797974099993,None,805.2477507100002,None,1,4.709808348001388,805.2477507100002,None,80,809.9739442759992,None,119,A,1,2021_May_26_1107,GazeFlow,2020.1.2,60.68193361821741,
6,Block511.xls,A,11,7,25,25,11,congruent,Left,Left,Right,69,75,6,yellow,2,6,/home/docky/apps/exp/images/69Yi.jpeg,/home/docky/apps/exp/images/76Y.jpeg,0,5,5,5,0,6,6,6,810.9759962809994,None,810.9759962809994,None,1,2.5884950689996913,810.9759962809994,None,813.5961649280007,None,813.5961649280007,None,816.1013053670004,None,816.1013053670004,None,2.068805422999503,817.9042212159993,None,817.9042212159993,None,6,1,0.9016335720007191,819.960174891,None,819.960174891,None,819.960174891,None,820.8779123459999,None,1,0.4514123760000075,820.8779123459999,None,82,821.3455564829992,None,119,A,1,2021_May_26_1107,GazeFlow,2020.1.2,60.68193361821741,
6,Block511.xls,A,11,8,3,3,11,congruent,Left,Left,Right,35,38,3,blue,2,6,/home/docky/apps/exp/images/35Bi.jpeg,/home/docky/apps/exp/images/38B.jpeg,0,5,5,5,0,7,7,7,822.3479127460005,None,822.3479127460005,None,1,6.345769591000135,822.3479127460005,None,828.7275531080004,None,828.7275531080004,None,831.230456921,None,831.230456921,None,2.4034031669998512,833.0332791179999,None,833.0332791179999,None,6,1,0.8672195639992424,835.424097307,None,835.424097307,None,835.424097307,None,836.3079203480002,None,1,0.5344237409990455,836.3079203480002,None,84,836.8588266809993,None,119,A,1,2021_May_26_1107,GazeFlow,2020.1.2,60.68193361821741,
6,Block511.xls,A,,,,,,,,,,,,,,,,,,0,5,5,5,,,,,,,,,,,,,,,,,,,,,,,,,,,,,,,,,,,,,,,,,,,,119,A,1,2021_May_26_1107,GazeFlow,2020.1.2,60.68193361821741,
7,Block508.xls,A,8,1,13,13,11,congruent,Left,Left,Right,76,79,3,blue,2,6,/home/docky/apps/exp/images/76Bi.jpeg,/home/docky/apps/exp/images/79B.jpeg,0,6,6,6,0,0,0,0,868.8554577410005,None,868.8554577410005,None,1,7.722915761998593,868.8554577410005,None,876.6008733909994,None,876.6008733909994,None,879.1255968409996,None,879.1255968409996,None,1.5503799660000368,880.9288555899993,None,880.9288555899993,None,6,1,1.1852577419995214,882.4645923950002,None,882.4645923950002,None,882.4645923950002,None,883.6667130880005,None,1,0.6341300679996493,883.6667130880005,None,86,884.3175432649996,None,119,A,1,2021_May_26_1107,GazeFlow,2020.1.2,60.68193361821741,
7,Block508.xls,A,8,2,21,21,11,congruent,Left,Left,Right,62,65,3,yellow,2,6,/home/docky/apps/exp/images/38B.jpeg,/home/docky/apps/exp/images/35Bi.jpeg,0,6,6,6,0,1,1,1,885.3195639659998,None,885.3195639659998,None,1,4.909991267000805,885.3195639659998,None,890.269330864,None,890.269330864,None,892.7663037190005,None,892.7663037190005,None,1.834997519999888,894.5641954409994,None,894.5641954409994,None,6,1,1.0355817409999872,896.391676708,None,896.391676708,None,896.391676708,None,897.4434035679997,None,1,0.41707347100054903,897.4434035679997,None,88,897.8772600429993,None,119,A,1,2021_May_26_1107,GazeFlow,2020.1.2,60.68193361821741,
7,Block508.xls,A,8,3,99,39,22,incongruent,Left,Right,Left,79,76,3,blue,2,5,/home/docky/apps/exp/images/79Bi.jpeg,/home/docky/apps/exp/images/76B.jpeg,0,6,6,6,0,2,2,2,898.8791922530008,None,898.8791922530008,None,1,5.8957286269996985,898.8791922530008,None,904.8082888140007,None,904.8082888140007,None,907.3113087200009,None,907.3113087200009,None,1.8519997150015115,909.1150204020005,None,909.1150204020005,None,5,1,1.1193322130002343,910.9530863509999,None,910.9530863509999,None,910.9530863509999,None,912.0885289740008,None,1,0.5173111099993548,912.0885289740008,None,90,912.6222347550001,None,119,A,1,2021_May_26_1107,GazeFlow,2020.1.2,60.68193361821741,
7,Block508.xls,A,8,4,37,37,12,congruent,Right,Right,Left,66,65,1,blue,2,5,/home/docky/apps/exp/images/66Bi.jpeg,/home/docky/apps/exp/images/35Y.jpeg,0,6,6,6,0,3,3,3,913.6244679830006,None,913.6244679830006,None,1,20.65708771000027,913.6244679830006,None,934.3153607400009,None,934.3153607400009,None,936.8187411400004,None,936.8187411400004,None,3.6052889829989,938.6168147369999,None,938.6168147369999,None,6,0,0.9842308049992425,942.2307220650009,None,942.2307220650009,None,942.2307220650009,None,943.2316125269999,None,1,0.5012717400004476,943.2316125269999,None,88,943.7495825960004,None,119,A,1,2021_May_26_1107,GazeFlow,2020.1.2,60.68193361821741,
7,Block508.xls,A,8,5,82,22,21,incongruent,Right,Left,Right,38,39,1,yellow,2,6,/home/docky/apps/exp/images/38Y.jpeg,/home/docky/apps/exp/images/39Yi.jpeg,0,6,6,6,0,4,4,4,944.7518119879996,None,944.7518119879996,None,1,4.391991383999994,944.7518119879996,None,949.1761414980001,None,949.1761414980001,None,951.6806062900005,None,951.6806062900005,None,2.285974026999611,953.4835752879999,None,953.4835752879999,None,6,1,1.1680320509985904,955.7572323659997,None,955.7572323659997,None,955.7572323659997,None,956.9415141180007,None,1,0.501193421001517,956.9415141180007,None,90,957.4597439290001,None,119,A,1,2021_May_26_1107,GazeFlow,2020.1.2,60.68193361821741,
7,Block508.xls,A,8,6,104,44,22,incongruent,Left,Right,Left,39,38,1,blue,2,5,/home/docky/apps/exp/images/39B.jpeg,/home/docky/apps/exp/images/38Bi.jpeg,0,6,6,6,0,5,5,5,958.4617084200008,None,958.4617084200008,None,1,5.795674406001126,958.4617084200008,None,964.2903559380002,None,964.2903559380002,None,966.7933041679998,None,966.7933041679998,None,1.7514796479990764,968.5921439980002,None,968.5921439980002,None,5,1,1.085439952001252,970.3348827620002,None,970.3348827620002,None,970.3348827620002,None,971.4365677180003,None,1,0.43403677199967206,971.4365677180003,None,92,971.8873001830007,None,119,A,1,2021_May_26_1107,GazeFlow,2020.1.2,60.68193361821741,
7,Block508.xls,A,8,7,39,39,12,congruent,Right,Right,Left,79,73,6,blue,2,5,/home/docky/apps/exp/images/79B.jpeg,/home/docky/apps/exp/images/73Bi.jpeg,0,6,6,6,0,6,6,6,972.8892263869993,None,972.8892263869993,None,1,6.112924641000063,972.8892263869993,None,979.0355106230008,None,979.0355106230008,None,981.5384870560001,None,981.5384870560001,None,1.7182518190002156,983.3415782540005,None,983.3415782540005,None,5,1,0.9853657549992931,985.0466898999994,None,985.0466898999994,None,985.0466898999994,None,986.0484363469996,None,1,0.4171678080001584,986.0484363469996,None,94,986.4822853449996,None,119,A,1,2021_May_26_1107,GazeFlow,2020.1.2,60.68193361821741,
7,Block508.xls,A,8,8,36,36,12,congruent,Right,Right,Left,66,65,1,blue,2,5,/home/docky/apps/exp/images/66B.jpeg,/home/docky/apps/exp/images/35Yi.jpeg,0,6,6,6,0,7,7,7,987.4839161400005,None,987.4839161400005,None,1,5.495351798001138,987.4839161400005,None,993.0126268289996,None,993.0126268289996,None,995.5160218610008,None,995.5160218610008,None,1.634716513000967,997.319457216,None,997.319457216,None,5,1,0.9020319110004493,998.9400537070005,None,998.9400537070005,None,998.9400537070005,None,999.8584973299994,None,1,0.4170921389995783,999.8584973299994,None,96,1000.2922038070001,None,119,A,1,2021_May_26_1107,GazeFlow,2020.1.2,60.68193361821741,
7,Block508.xls,A,,,,,,,,,,,,,,,,,,0,6,6,6,,,,,,,,,,,,,,,,,,,,,,,,,,,,,,,,,,,,,,,,,,,,119,A,1,2021_May_26_1107,GazeFlow,2020.1.2,60.68193361821741,
8,Block510.xls,A,10,1,102,42,22,incongruent,Left,Right,Left,83,80,3,blue,2,5,/home/docky/apps/exp/images/83B.jpeg,/home/docky/apps/exp/images/80Bi.jpeg,0,7,7,7,0,0,0,0,1021.2021127620001,None,1021.2021127620001,None,1,8.836138614999072,1021.2021127620001,None,1030.0686680610006,None,1030.0686680610006,None,1032.5892217499995,None,1032.5892217499995,None,3.0539091279988497,1034.3928484830003,None,1034.3928484830003,None,5,1,0.9855822070003342,1037.4474152569992,None,1037.4474152569992,None,1037.4474152569992,None,1038.4497929340005,None,1,0.4175962299996172,1038.4497929340005,None,98,1038.883925006,None,119,A,1,2021_May_26_1107,GazeFlow,2020.1.2,60.68193361821741,
8,Block510.xls,A,10,2,114,54,22,incongruent,Left,Right,Left,76,69,7,yellow,2,5,/home/docky/apps/exp/images/76Yi.jpeg,/home/docky/apps/exp/images/69Y.jpeg,0,7,7,7,0,1,1,1,1039.8861908640001,None,1039.8861908640001,None,1,5.227028233000965,1039.8861908640001,None,1045.1446571299994,None,1045.1446571299994,None,1047.6500351330005,None,1047.6500351330005,None,2.1357281470009184,1049.4528644020002,None,1049.4528644020002,None,5,1,0.9348446350013546,1051.5757181189992,None,1051.5757181189992,None,1051.5757181189992,None,1052.5269472549999,None,1,0.5345769680006924,1052.5269472549999,None,100,1053.0781616100003,None,119,A,1,2021_May_26_1107,GazeFlow,2020.1.2,60.68193361821741,
8,Block510.xls,A,10,3,72,12,21,incongruent,Right,Left,Right,76,79,3,blue,2,6,/home/docky/apps/exp/images/76Bi.jpeg,/home/docky/apps/exp/images/79B.jpeg,0,7,7,7,0,2,2,2,1054.0797313970006,None,1054.0797313970006,None,1,6.530664204999994,1054.0797313970006,None,1060.6436264480008,None,1060.6436264480008,None,1063.147030999001,None,1063.147030999001,None,2.0853765190004196,1064.9501260440002,None,1064.9501260440002,None,6,1,1.0512924759987072,1067.0224267029998,None,1067.0224267029998,None,1067.0224267029998,None,1068.0906281359994,None,1,0.4174583430012717,1068.0906281359994,None,102,1068.524768794,None,119,A,1,2021_May_26_1107,GazeFlow,2020.1.2,60.68193361821741,
8,Block510.xls,A,10,4,112,52,22,incongruent,Left,Right,Left,75,69,6,yellow,2,5,/home/docky/apps/exp/images/76Y.jpeg,/home/docky/apps/exp/images/69Yi.jpeg,0,7,7,7,0,3,3,3,1069.5269023280007,None,1069.5269023280007,None,1,5.410907573001168,1069.5269023280007,None,1074.971734754,None,1074.971734754,None,1077.4747009480006,None,1077.4747009480006,None,2.002578633999292,1079.277088670001,None,1079.277088670001,None,5,1,0.9846288280004956,1081.2665771889997,None,1081.2665771889997,None,1081.2665771889997,None,1082.267868764001,None,1,0.41784768300021824,1082.267868764001,None,104,1082.7021261809996,None,119,A,1,2021_May_26_1107,GazeFlow,2020.1.2,60.68193361821741,
8,Block510.xls,A,10,5,17,17,11,congruent,Left,Left,Right,33,35,2,yellow,2,6,/home/docky/apps/exp/images/33Y.jpeg,/home/docky/apps/exp/images/35Yi.jpeg,0,7,7,7,0,4,4,4,1083.704093251,None,1083.704093251,None,1,4.8266555840000365,1083.704093251,None,1088.5650679910004,None,1088.5650679910004,None,1091.0677072080007,None,1091.0677072080007,None,2.319233461999829,1092.8713334079994,None,1092.8713334079994,None,5,0,1.2519692270016094,1095.1767782889992,None,1095.1767782889992,None,1095.1767782889992,None,1096.4455344860007,None,1,0.4174811890006822,1096.4455344860007,None,102,1096.8797941349994,None,119,A,1,2021_May_26_1107,GazeFlow,2020.1.2,60.68193361821741,
8,Block510.xls,A,10,6,31,31,12,congruent,Right,Right,Left,19,16,3,blue,2,5,/home/docky/apps/exp/images/19Bi.jpeg,/home/docky/apps/exp/images/16B.jpeg,0,7,7,7,0,5,5,5,1097.8818095190009,None,1097.8818095190009,None,1,5.444356271000288,1097.8818095190009,None,1103.3597989090003,None,1103.3597989090003,None,1105.8641789439998,None,1105.8641789439998,None,1.2838485350002884,1107.661003737,None,1107.661003737,None,5,1,1.0352162129984208,1108.9370235670003,None,1108.9370235670003,None,1108.9370235670003,None,1109.9888633649998,None,1,0.46819212199989124,1109.9888633649998,None,104,1110.4730592280002,None,119,A,1,2021_May_26_1107,GazeFlow,2020.1.2,60.68193361821741,
8,Block510.xls,A,10,7,61,1,21,incongruent,Right,Left,Right,16,19,3,blue,2,6,/home/docky/apps/exp/images/16Bi.jpeg,/home/docky/apps/exp/images/19B.jpeg,0,7,7,7,0,6,6,6,1111.4747464559996,None,1111.4747464559996,None,1,6.312844526000845,1111.4747464559996,None,1117.821435236,None,1117.821435236,None,1120.3245110769994,None,1120.3245110769994,None,1.6014772250000533,1122.128115007,None,1122.128115007,None,6,1,1.1357146789996477,1123.7155550529997,None,1123.7155550529997,None,1123.7155550529997,None,1124.8677892789992,None,1,0.43365267499939364,1124.8677892789992,None,106,1125.318192103,None,119,A,1,2021_May_26_1107,GazeFlow,2020.1.2,60.68193361821741,
8,Block510.xls,A,10,8,94,34,22,incongruent,Left,Right,Left,38,35,3,blue,2,5,/home/docky/apps/exp/images/38Bi.jpeg,/home/docky/apps/exp/images/35B.jpeg,0,7,7,7,0,7,7,7,1126.3198262800006,None,1126.3198262800006,None,1,52.80387373799931,1126.3198262800006,None,1179.1569937140002,None,1179.1569937140002,None,1181.6594373510006,None,1181.6594373510006,None,1.9686813540010917,1183.4635534710005,None,1183.4635534710005,None,5,1,1.0183012990000861,1185.4185736560003,None,1185.4185736560003,None,1185.4185736560003,None,1186.4532366140002,None,1,0.4177221919999283,1186.4532366140002,None,108,1186.887441467,None,119,A,1,2021_May_26_1107,GazeFlow,2020.1.2,60.68193361821741,
8,Block510.xls,A,,,,,,,,,,,,,,,,,,0,7,7,7,,,,,,,,,,,,,,,,,,,,,,,,,,,,,,,,,,,,,,,,,,,,119,A,1,2021_May_26_1107,GazeFlow,2020.1.2,60.68193361821741,
9,Block507.xls,A,7,1,110,50,22,incongruent,Left,Right,Left,66,65,1,yellow,2,5,/home/docky/apps/exp/images/66Y.jpeg,/home/docky/apps/exp/images/35Bi.jpeg,0,8,8,8,0,0,0,0,1215.6783141490005,None,1215.6783141490005,None,1,9.340393230999325,1215.6783141490005,None,1225.0469874719993,None,1225.0469874719993,None,1227.5660359380008,None,1227.5660359380008,None,2.0347500780007977,1229.3694137339999,None,1229.3694137339999,None,5,1,1.2189007150009274,1231.3911215180005,None,1231.3911215180005,None,1231.3911215180005,None,1232.6264973259995,None,1,0.4675436809993698,1232.6264973259995,None,110,1233.1106313080008,None,119,A,1,2021_May_26_1107,GazeFlow,2020.1.2,60.68193361821741,
9,Block507.xls,A,7,2,90,30,22,incongruent,Right,Left,Right,16,19,3,blue,2,6,/home/docky/apps/exp/images/16Bi.jpeg,/home/docky/apps/exp/images/19B.jpeg,0,8,8,8,0,1,1,1,1234.1130175089993,None,1234.1130175089993,None,1,5.093356510999001,1234.1130175089993,None,1239.2382475650002,None,1239.2382475650002,None,1241.7464425959997,None,1241.7464425959997,None,1.4513728310012084,1243.5411005249998,None,1243.5411005249998,None,6,1,0.9352346140003647,1244.9842767599994,None,1244.9842767599994,None,1244.9842767599994,None,1245.9359290710008,None,1,0.33447537400024885,1245.9359290710008,None,112,1246.2866156400005,None,119,A,1,2021_May_26_1107,GazeFlow,2020.1.2,60.68193361821741,
9,Block507.xls,A,7,3,16,16,11,congruent,Left,Left,Right,33,35,2,yellow,2,6,/home/docky/apps/exp/images/33Yi.jpeg,/home/docky/apps/exp/images/35Y.jpeg,0,8,8,8,0,2,2,2,1247.2882919630001,None,1247.2882919630001,None,1,4.759745666999152,1247.2882919630001,None,1252.0819737659995,None,1252.0819737659995,None,1254.5904376690005,None,1254.5904376690005,None,1.2339795469997625,1256.3903331859992,None,1256.3903331859992,None,6,1,0.967967298000076,1257.6087294130002,None,1257.6087294130002,None,1257.6087294130002,None,1258.5932808009993,None,1,0.400926303000233,1258.5932808009993,None,114,1259.0106338960004,None,119,A,1,2021_May_26_1107,GazeFlow,2020.1.2,60.68193361821741,
9,Block507.xls,A,7,4,117,57,22,incongruent,Left,Right,Left,77,72,5,yellow,2,5,/home/docky/apps/exp/images/77Y.jpeg,/home/docky/apps/exp/images/72Yi.jpeg,0,8,8,8,0,3,3,3,1260.0127679299994,None,1260.0127679299994,None,1,4.860302954000872,1260.0127679299994,None,1264.9066111990005,None,1264.9066111990005,None,1267.4097777119996,None,1267.4097777119996,None,2.470350995999979,1269.2131264600002,None,1269.2131264600002,None,5,1,0.984834917999251,1271.6698402400007,None,1271.6698402400007,None,1271.6698402400007,None,1272.6709362079991,None,1,0.45067852399915864,1272.6709362079991,None,116,1273.13819445,None,119,A,1,2021_May_26_1107,GazeFlow,2020.1.2,60.68193361821741,
9,Block507.xls,A,7,5,53,53,12,congruent,Right,Right,Left,75,69,6,yellow,2,5,/home/docky/apps/exp/images/76Yi.jpeg,/home/docky/apps/exp/images/69Y.jpeg,0,8,8,8,0,4,4,4,1274.1408211040007,None,1274.1408211040007,None,1,5.160573155999373,1274.1408211040007,None,1279.3348206990004,None,1279.3348206990004,None,1281.8395371230008,None,1281.8395371230008,None,2.3199259729990445,1283.6362212449994,None,1283.6362212449994,None,5,1,1.051080440000078,1285.9478097689998,None,1285.9478097689998,None,1285.9478097689998,None,1287.015118497001,None,1,0.4843232879993593,1287.015118497001,None,118,1287.5160746930005,None,119,A,1,2021_May_26_1107,GazeFlow,2020.1.2,60.68193361821741,
9,Block507.xls,A,7,6,96,36,22,incongruent,Left,Right,Left,66,65,1,blue,2,5,/home/docky/apps/exp/images/66Bi.jpeg,/home/docky/apps/exp/images/35Y.jpeg,0,8,8,8,0,5,5,5,1288.5185288639996,None,1288.5185288639996,None,1,5.193621235001046,1288.5185288639996,None,1293.7460114039995,None,1293.7460114039995,None,1296.249090538001,None,1296.249090538001,None,4.507655785000679,1298.052039534,None,1298.052039534,None,5,1,0.9360868109997682,1302.5613333829997,None,1302.5613333829997,None,1302.5613333829997,None,1303.514081618,None,1,0.3839508580003894,1303.514081618,None,120,1303.9146447400008,None,119,A,1,2021_May_26_1107,GazeFlow,2020.1.2,60.68193361821741,
9,Block507.xls,A,7,7,58,58,12,congruent,Right,Right,Left,77,72,5,yellow,2,5,/home/docky/apps/exp/images/77Yi.jpeg,/home/docky/apps/exp/images/72Y.jpeg,0,8,8,8,0,6,6,6,1304.9172560399993,None,1304.9172560399993,None,1,5.610989142000108,1304.9172560399993,None,1310.56209588,None,1310.56209588,None,1313.065264199001,None,1313.065264199001,None,2.787205136999546,1314.868534196,None,1314.868534196,None,5,1,1.0355382840007223,1317.6578470579998,None,1317.6578470579998,None,1317.6578470579998,None,1318.7102041959997,None,1,0.45099543600008474,1318.7102041959997,None,122,1319.1778151219996,None,119,A,1,2021_May_26_1107,GazeFlow,2020.1.2,60.68193361821741,
9,Block507.xls,A,7,8,41,41,12,congruent,Right,Right,Left,79,76,3,blue,2,5,/home/docky/apps/exp/images/79Bi.jpeg,/home/docky/apps/exp/images/76B.jpeg,0,8,8,8,0,7,7,7,1320.1800249390008,None,1320.1800249390008,None,1,5.8950362840005255,1320.1800249390008,None,1326.1121650230007,None,1326.1121650230007,None,1328.6119324689998,None,1328.6119324689998,None,2.720724965000045,1330.4155405350002,None,1330.4155405350002,None,5,1,1.0175496909996582,1333.13923573,None,1333.13923573,None,1333.13923573,None,1334.1732573569998,None,1,0.46782833600082085,1334.1732573569998,None,124,1334.6577928420002,None,119,A,1,2021_May_26_1107,GazeFlow,2020.1.2,60.68193361821741,
9,Block507.xls,A,,,,,,,,,,,,,,,,,,0,8,8,8,,,,,,,,,,,,,,,,,,,,,,,,,,,,,,,,,,,,,,,,,,,,119,A,1,2021_May_26_1107,GazeFlow,2020.1.2,60.68193361821741,
10,Block515.xls,A,15,1,107,47,22,incongruent,Left,Right,Left,35,33,2,yellow,2,5,/home/docky/apps/exp/images/35Yi.jpeg,/home/docky/apps/exp/images/33Y.jpeg,0,9,9,9,0,0,0,0,1357.7046788889993,None,1357.7046788889993,None,1,11.206981215000269,1357.7046788889993,None,1368.9400983019996,None,1368.9400983019996,None,1371.4618538019995,None,1371.4618538019995,None,2.6532985220001137,1373.2503541409997,None,1373.2503541409997,None,5,1,0.9502473020002071,1375.9057459189999,None,1375.9057459189999,None,1375.9057459189999,None,1376.8728217119997,None,1,0.43448476000048686,1376.8728217119997,None,126,1377.3236695759997,None,119,A,1,2021_May_26_1107,GazeFlow,2020.1.2,60.68193361821741,
10,Block515.xls,A,15,2,55,55,12,congruent,Right,Right,Left,76,69,7,yellow,2,5,/home/docky/apps/exp/images/76Yi.jpeg,/home/docky/apps/exp/images/69Y.jpeg,0,9,9,9,0,1,1,1,1378.3262730899996,None,1378.3262730899996,None,1,5.293798501999845,1378.3262730899996,None,1383.6531361080006,None,1383.6531361080006,None,1386.1611648820008,None,1386.1611648820008,None,2.1192863279993617,1387.9607766149993,None,1387.9607766149993,None,5,1,1.0347325729999284,1390.0659706310007,None,1390.0659706310007,None,1390.0659706310007,None,1391.1174113919997,None,1,0.5509093740001845,1391.1174113919997,None,128,1391.6850365910004,None,119,A,1,2021_May_26_1107,GazeFlow,2020.1.2,60.68193361821741,
10,Block515.xls,A,15,3,75,15,21,incongruent,Right,Left,Right,33,35,2,yellow,2,6,/home/docky/apps/exp/images/33Yi.jpeg,/home/docky/apps/exp/images/35Y.jpeg,0,9,9,9,0,2,2,2,1392.6874287620003,None,1392.6874287620003,None,1,6.59690975400008,1392.6874287620003,None,1399.3176258089998,None,1399.3176258089998,None,1401.8259781869992,None,1401.8259781869992,None,2.8375532000009116,1403.6182136260004,None,1403.6182136260004,None,6,1,0.9672734390005644,1406.4650386080002,None,1406.4650386080002,None,1406.4650386080002,None,1407.4488510469992,None,1,0.3672534439992887,1407.4488510469992,None,130,1407.8331022079992,None,119,A,1,2021_May_26_1107,GazeFlow,2020.1.2,60.68193361821741,
10,Block515.xls,A,15,4,62,2,21,incongruent,Right,Left,Right,35,38,3,blue,2,6,/home/docky/apps/exp/images/35Bi.jpeg,/home/docky/apps/exp/images/38B.jpeg,0,9,9,9,0,3,3,3,1408.8355804609992,None,1408.8355804609992,None,1,5.828651619998709,1408.8355804609992,None,1414.6973034470002,None,1414.6973034470002,None,1417.2005052020004,None,1417.2005052020004,None,3.021307483999408,1419.0035485470007,None,1419.0035485470007,None,6,1,1.2868776149989571,1422.0260246160005,None,1422.0260246160005,None,1422.0260246160005,None,1423.3297624100005,None,1,0.3673475609994057,1423.3297624100005,None,132,1423.713683133,None,119,A,1,2021_May_26_1107,GazeFlow,2020.1.2,60.68193361821741,
10,Block515.xls,A,15,5,100,40,22,incongruent,Left,Right,Left,79,76,3,blue,2,5,/home/docky/apps/exp/images/79Bi.jpeg,/home/docky/apps/exp/images/76B.jpeg,0,9,9,9,0,4,4,4,1424.716351209,None,1424.716351209,None,1,4.892928711999048,1424.716351209,None,1429.6432732029998,None,1429.6432732029998,None,1432.1462985749995,None,1432.1462985749995,None,1.3676289079994604,1433.9495561209997,None,1433.9495561209997,None,5,1,1.0349132339997595,1435.3036940119991,None,1435.3036940119991,None,1435.3036940119991,None,1436.3550984139993,None,1,0.46769778999987466,1436.3550984139993,None,134,1436.8395117579994,None,119,A,1,2021_May_26_1107,GazeFlow,2020.1.2,60.68193361821741,
10,Block515.xls,A,15,6,108,48,22,incongruent,Left,Right,Left,39,38,1,yellow,2,5,/home/docky/apps/exp/images/39Y.jpeg,/home/docky/apps/exp/images/38Yi.jpeg,0,9,9,9,0,5,5,5,1437.8412277510006,None,1437.8412277510006,None,1,6.112531773000228,1437.8412277510006,None,1443.9859691520005,None,1443.9859691520005,None,1446.4901736599995,None,1446.4901736599995,None,1.584662291001223,1448.2935106920004,None,1448.2935106920004,None,6,0,0.8682046979993174,1449.8653360220005,None,1449.8653360220005,None,1449.8653360220005,None,1450.7502385950002,None,1,0.41807479599992803,1450.7502385950002,None,132,1451.1843429280007,None,119,A,1,2021_May_26_1107,GazeFlow,2020.1.2,60.68193361821741,
10,Block515.xls,A,15,7,59,59,12,congruent,Right,Right,Left,80,79,1,yellow,2,5,/home/docky/apps/exp/images/80Y.jpeg,/home/docky/apps/exp/images/79Yi.jpeg,0,9,9,9,0,6,6,6,1452.1861561489995,None,1452.1861561489995,None,1,5.912141651000638,1452.1861561489995,None,1458.1315756529993,None,1458.1315756529993,None,1460.6363856460002,None,1460.6363856460002,None,2.503696735999256,1462.4382750779996,None,1462.4382750779996,None,5,1,1.0509928699993907,1464.9451477459997,None,1464.9451477459997,None,1464.9451477459997,None,1466.0126760930007,None,1,0.4675673710007686,1466.0126760930007,None,134,1466.4971825889997,None,119,A,1,2021_May_26_1107,GazeFlow,2020.1.2,60.68193361821741,
10,Block515.xls,A,15,8,8,8,11,congruent,Left,Left,Right,38,39,1,blue,2,6,/home/docky/apps/exp/images/38B.jpeg,/home/docky/apps/exp/images/39Bi.jpeg,0,9,9,9,0,7,7,7,1467.4994323290002,None,1467.4994323290002,None,1,5.427844014000584,1467.4994323290002,None,1472.9605782509998,None,1472.9605782509998,None,1475.4637470499993,None,1475.4637470499993,None,2.252223049001259,1477.2667757070003,None,1477.2667757070003,None,6,1,0.9848072240001784,1479.505974826,None,1479.505974826,None,1479.505974826,None,1480.5076436000008,None,1,0.9350971080002637,1480.5076436000008,None,136,1481.4594267139992,None,119,A,1,2021_May_26_1107,GazeFlow,2020.1.2,60.68193361821741,
10,Block515.xls,A,,,,,,,,,,,,,,,,,,0,9,9,9,,,,,,,,,,,,,,,,,,,,,,,,,,,,,,,,,,,,,,,,,,,,119,A,1,2021_May_26_1107,GazeFlow,2020.1.2,60.68193361821741,
11,Block512.xls,A,12,1,30,30,11,congruent,Left,Left,Right,79,82,3,yellow,2,6,/home/docky/apps/exp/images/79Yi.jpeg,/home/docky/apps/exp/images/80Y.jpeg,0,10,10,10,0,0,0,0,1507.445077972,None,1507.445077972,None,1,7.78685699900052,1507.445077972,None,1515.2650063970004,None,1515.2650063970004,None,1517.7809459190003,None,1517.7809459190003,None,2.4026485809990845,1519.5776370550002,None,1519.5776370550002,None,6,1,0.8839974769998662,1521.972549055,None,1521.972549055,None,1521.972549055,None,1522.8731753139991,None,1,0.41777167200052645,1522.8731753139991,None,138,1523.3074623860002,None,119,A,1,2021_May_26_1107,GazeFlow,2020.1.2,60.68193361821741,
11,Block512.xls,A,12,2,115,55,22,incongruent,Left,Right,Left,76,69,7,yellow,2,5,/home/docky/apps/exp/images/76Yi.jpeg,/home/docky/apps/exp/images/69Y.jpeg,0,10,10,10,0,1,1,1,1524.3097851930006,None,1524.3097851930006,None,1,6.195886731999053,1524.3097851930006,None,1530.539158945,None,1530.539158945,None,1533.0423582369995,None,1533.0423582369995,None,4.507211329999336,1534.8461899889999,None,1534.8461899889999,None,5,1,1.1192859420007153,1539.3547353879994,None,1539.3547353879994,None,1539.3547353879994,None,1540.4905505699999,None,1,0.6349915959999635,1540.4905505699999,None,140,1541.1418885409994,None,119,A,1,2021_May_26_1107,GazeFlow,2020.1.2,60.68193361821741,
11,Block512.xls,A,12,3,66,6,21,incongruent,Right,Left,Right,38,39,1,blue,2,6,/home/docky/apps/exp/images/38B.jpeg,/home/docky/apps/exp/images/39Bi.jpeg,0,10,10,10,0,2,2,2,1542.1443247060006,None,1542.1443247060006,None,1,5.510914002999925,1542.1443247060006,None,1547.6891853360003,None,1547.6891853360003,None,1550.1910973660006,None,1550.1910973660006,None,3.1884293020011683,1551.9957546409996,None,1551.9957546409996,None,5,0,0.886063137999372,1555.1849940639995,None,1555.1849940639995,None,1555.1849940639995,None,1556.0878187539993,None,1,0.36733607099995425,1556.0878187539993,None,138,1556.4715899760004,None,119,A,1,2021_May_26_1107,GazeFlow,2020.1.2,60.68193361821741,
11,Block512.xls,A,12,4,35,35,12,congruent,Right,Right,Left,66,65,1,blue,2,5,/home/docky/apps/exp/images/66B.jpeg,/home/docky/apps/exp/images/35Yi.jpeg,0,10,10,10,0,3,3,3,1557.4741638210007,None,1557.4741638210007,None,1,5.46075561500038,1557.4741638210007,None,1562.9685551430002,None,1562.9685551430002,None,1565.4721976289993,None,1565.4721976289993,None,2.6037809059998835,1567.2750420700004,None,1567.2750420700004,None,5,1,0.8172344869999506,1569.8821790270003,None,1569.8821790270003,None,1569.8821790270003,None,1570.7159572249993,None,1,0.3676190080004744,1570.7159572249993,None,140,1571.0999594680006,None,119,A,1,2021_May_26_1107,GazeFlow,2020.1.2,60.68193361821741,
11,Block512.xls,A,12,5,40,40,12,congruent,Right,Right,Left,79,76,3,blue,2,5,/home/docky/apps/exp/images/79Bi.jpeg,/home/docky/apps/exp/images/76B.jpeg,0,10,10,10,0,4,4,4,1572.1023341610007,None,1572.1023341610007,None,1,5.995326181999189,1572.1023341610007,None,1578.1301016749994,None,1578.1301016749994,None,1580.6345713550008,None,1580.6345713550008,None,1.7517482270013716,1582.4382213580002,None,1582.4382213580002,None,5,1,1.135915180999291,1584.1760264239992,None,1584.1760264239992,None,1584.1760264239992,None,1585.3282434839994,None,1,0.4672480869994615,1585.3282434839994,None,142,1585.8116953359995,None,119,A,1,2021_May_26_1107,GazeFlow,2020.1.2,60.68193361821741,
11,Block512.xls,A,12,6,64,4,21,incongruent,Right,Left,Right,65,66,1,blue,2,6,/home/docky/apps/exp/images/35Yi.jpeg,/home/docky/apps/exp/images/66B.jpeg,0,10,10,10,0,5,5,5,1586.8143177289994,None,1586.8143177289994,None,1,6.146078439000121,1586.8143177289994,None,1592.9938054210006,None,1592.9938054210006,None,1595.4984737540008,None,1595.4984737540008,None,3.4049913070011826,1597.3006662029993,None,1597.3006662029993,None,6,1,0.8836803379999765,1600.7089914990001,None,1600.7089914990001,None,1600.7089914990001,None,1601.6091289730002,None,1,0.367440431000432,1601.6091289730002,None,144,1601.9932180429996,None,119,A,1,2021_May_26_1107,GazeFlow,2020.1.2,60.68193361821741,
11,Block512.xls,A,12,7,12,12,11,congruent,Left,Left,Right,76,79,3,blue,2,6,/home/docky/apps/exp/images/76B.jpeg,/home/docky/apps/exp/images/79Bi.jpeg,0,10,10,10,0,6,6,6,1602.9957056169997,None,1602.9957056169997,None,1,5.244349262000469,1602.9957056169997,None,1608.273393556,None,1608.273393556,None,1610.7782457029998,None,1610.7782457029998,None,2.4534180400005425,1612.573883477001,None,1612.573883477001,None,6,1,5.6271967430002405,1615.036611517001,None,1615.036611517001,None,1615.036611517001,None,1620.6800941249994,None,1,2.354864136999822,1620.6800941249994,None,146,1623.0514703580002,None,119,A,1,2021_May_26_1107,GazeFlow,2020.1.2,60.68193361821741,
11,Block512.xls,A,12,8,49,49,12,congruent,Right,Right,Left,39,38,1,yellow,2,5,/home/docky/apps/exp/images/39Y.jpeg,/home/docky/apps/exp/images/38Yi.jpeg,0,10,10,10,0,7,7,7,1624.0532706429995,None,1624.0532706429995,None,1,6.446727301999999,1624.0532706429995,None,1630.533438380001,None,1630.533438380001,None,1633.036013938,None,1633.036013938,None,3.622416427999269,1634.8394591980004,None,1634.8394591980004,None,5,1,1.034970159000295,1638.465153053,None,1638.465153053,None,1638.465153053,None,1639.516220042001,None,1,0.8354869340000732,1639.516220042001,None,148,1640.3679813850003,None,119,A,1,2021_May_26_1107,GazeFlow,2020.1.2,60.68193361821741,
11,Block512.xls,A,,,,,,,,,,,,,,,,,,0,10,10,10,,,,,,,,,,,,,,,,,,,,,,,,,,,,,,,,,,,,,,,,,,,,119,A,1,2021_May_26_1107,GazeFlow,2020.1.2,60.68193361821741,
12,Block503.xls,A,3,1,22,22,11,congruent,Left,Left,Right,62,65,3,yellow,2,6,/home/docky/apps/exp/images/38Bi.jpeg,/home/docky/apps/exp/images/35B.jpeg,0,11,11,11,0,0,0,0,1668.2082670040008,None,1668.2082670040008,None,1,7.6216650449987355,1668.2082670040008,None,1675.8523446959998,None,1675.8523446959998,None,1678.3760910570008,None,1678.3760910570008,None,2.1017912340012117,1680.1800202179993,None,1680.1800202179993,None,6,1,1.0846900240012474,1682.2667768210003,None,1682.2667768210003,None,1682.2667768210003,None,1683.3680887479995,None,1,0.785016829999222,1683.3680887479995,None,150,1684.1697592770006,None,119,A,1,2021_May_26_1107,GazeFlow,2020.1.2,60.68193361821741,
12,Block503.xls,A,3,2,65,5,21,incongruent,Right,Left,Right,65,66,1,blue,2,6,/home/docky/apps/exp/images/35Y.jpeg,/home/docky/apps/exp/images/66Bi.jpeg,0,11,11,11,0,1,1,1,1685.1721009250004,None,1685.1721009250004,None,1,6.028686212999673,1685.1721009250004,None,1691.2367195819998,None,1691.2367195819998,None,1693.7375432489998,None,1693.7375432489998,None,5.926872011999876,1695.5354518470003,None,1695.5354518470003,None,6,1,0.9691607490003662,1701.4695696949993,None,1701.4695696949993,None,1701.4695696949993,None,1702.4552749059994,None,1,0.36752756599889835,1702.4552749059994,None,152,1702.8394315399992,None,119,A,1,2021_May_26_1107,GazeFlow,2020.1.2,60.68193361821741,
12,Block503.xls,A,3,3,76,16,21,incongruent,Right,Left,Right,33,35,2,yellow,2,6,/home/docky/apps/exp/images/33Y.jpeg,/home/docky/apps/exp/images/35Yi.jpeg,0,11,11,11,0,2,2,2,1703.8417867229991,None,1703.8417867229991,None,1,7.047139760999926,1703.8417867229991,None,1710.922610912,None,1710.922610912,None,1713.427422869,None,1713.427422869,None,2.0020722240005853,1715.2292833210004,None,1715.2292833210004,None,6,1,1.0345790920000582,1717.218077601,None,1717.218077601,None,1717.218077601,None,1718.269323038,None,1,0.35081716400054574,1718.269323038,None,154,1718.6365736910002,None,119,A,1,2021_May_26_1107,GazeFlow,2020.1.2,60.68193361821741,
12,Block503.xls,A,3,4,29,29,11,congruent,Left,Left,Right,79,82,3,yellow,2,6,/home/docky/apps/exp/images/79Y.jpeg,/home/docky/apps/exp/images/80Yi.jpeg,0,11,11,11,0,3,3,3,1719.6388173860005,None,1719.6388173860005,None,1,5.761689150000166,1719.6388173860005,None,1725.4340560240007,None,1725.4340560240007,None,1727.9376303660001,None,1727.9376303660001,None,1.9851804569989326,1729.7388625249996,None,1729.7388625249996,None,6,1,1.0680648180004937,1731.7125224019992,None,1731.7125224019992,None,1731.7125224019992,None,1732.7973060670001,None,1,0.5345663930002047,1732.7973060670001,None,156,1733.3483065369992,None,119,A,1,2021_May_26_1107,GazeFlow,2020.1.2,60.68193361821741,
12,Block503.xls,A,3,5,103,43,22,incongruent,Left,Right,Left,39,38,1,blue,2,5,/home/docky/apps/exp/images/39Bi.jpeg,/home/docky/apps/exp/images/38B.jpeg,0,11,11,11,0,4,4,4,1734.3506093780006,None,1734.3506093780006,None,1,4.225625858000058,1734.3506093780006,None,1738.6098518600002,None,1738.6098518600002,None,1741.1126657569994,None,1741.1126657569994,None,2.637024293999275,1742.9158773659992,None,1742.9158773659992,None,6,0,1.0179089369994472,1745.5567887829993,None,1745.5567887829993,None,1745.5567887829993,None,1746.5909867050004,None,1,0.9018525160008721,1746.5909867050004,None,154,1747.509170188,None,119,A,1,2021_May_26_1107,GazeFlow,2020.1.2,60.68193361821741,
12,Block503.xls,A,3,6,47,47,12,congruent,Right,Right,Left,35,33,2,yellow,2,5,/home/docky/apps/exp/images/35Yi.jpeg,/home/docky/apps/exp/images/33Y.jpeg,0,11,11,11,0,5,5,5,1748.511829088001,None,1748.511829088001,None,1,5.961933557999146,1748.511829088001,None,1754.5090171220008,None,1754.5090171220008,None,1757.0124486689992,None,1757.0124486689992,None,1.785058179000771,1758.8135492110005,None,1758.8135492110005,None,5,1,1.0020532769995043,1760.58545073,None,1760.58545073,None,1760.58545073,None,1761.6039666669994,None,1,0.50087542700021,1761.6039666669994,None,156,1762.1212128180005,None,119,A,1,2021_May_26_1107,GazeFlow,2020.1.2,60.68193361821741,
12,Block503.xls,A,3,7,20,20,11,congruent,Left,Left,Right,65,66,1,yellow,2,6,/home/docky/apps/exp/images/35Bi.jpeg,/home/docky/apps/exp/images/66Y.jpeg,0,11,11,11,0,6,6,6,1763.1233917020008,None,1763.1233917020008,None,1,6.195863226999791,1763.1233917020008,None,1769.3529315229998,None,1769.3529315229998,None,1771.8557711940002,None,1771.8557711940002,None,3.455990745998861,1773.6529828159992,None,1773.6529828159992,None,6,1,0.9504548889999569,1777.118426307,None,1777.118426307,None,1777.118426307,None,1778.0857128399994,None,1,0.4840947190004954,1778.0857128399994,None,158,1778.5864794939998,None,119,A,1,2021_May_26_1107,GazeFlow,2020.1.2,60.68193361821741,
12,Block503.xls,A,3,8,27,27,11,congruent,Left,Left,Right,72,77,5,yellow,2,6,/home/docky/apps/exp/images/72Yi.jpeg,/home/docky/apps/exp/images/77Y.jpeg,0,11,11,11,0,7,7,7,1779.5889044330006,None,1779.5889044330006,None,1,7.03061358100058,1779.5889044330006,None,1786.6534604950002,None,1786.6534604950002,None,1789.1557720770006,None,1789.1557720770006,None,3.3217634110005747,1790.9593389650008,None,1790.9593389650008,None,6,1,1.119410250999863,1794.2830790119997,None,1794.2830790119997,None,1794.2830790119997,None,1795.4192269040004,None,1,0.46773334099998465,1795.4192269040004,None,160,1795.9032948480008,None,119,A,1,2021_May_26_1107,GazeFlow,2020.1.2,60.68193361821741,
12,Block503.xls,A,,,,,,,,,,,,,,,,,,0,11,11,11,,,,,,,,,,,,,,,,,,,,,,,,,,,,,,,,,,,,,,,,,,,,119,A,1,2021_May_26_1107,GazeFlow,2020.1.2,60.68193361821741,
13,Block501.xls,A,1,1,54,54,12,congruent,Right,Right,Left,75,69,6,yellow,2,5,/home/docky/apps/exp/images/76Y.jpeg,/home/docky/apps/exp/images/69Yi.jpeg,0,12,12,12,0,0,0,0,1817.3963031009998,None,1817.3963031009998,None,1,4.048272844998792,1817.3963031009998,None,1821.4753574750002,None,1821.4753574750002,None,1823.9924189570002,None,1823.9924189570002,None,3.036990311999034,1825.7946167929995,None,1825.7946167929995,None,5,1,1.2177743060001376,1828.8351826669996,None,1828.8351826669996,None,1828.8351826669996,None,1830.0698617909993,None,1,0.5010132289989997,1830.0698617909993,None,162,1830.5875550819992,None,119,A,1,2021_May_26_1107,GazeFlow,2020.1.2,60.68193361821741,
13,Block501.xls,A,1,2,70,10,21,incongruent,Right,Left,Right,73,76,3,blue,2,6,/home/docky/apps/exp/images/73Bi.jpeg,/home/docky/apps/exp/images/76B.jpeg,0,12,12,12,0,1,1,1,1831.5899289800009,None,1831.5899289800009,None,1,5.945467158000611,1831.5899289800009,None,1837.5687752380009,None,1837.5687752380009,None,1840.073673983,None,1840.073673983,None,2.5035695930000657,1841.8753406919996,None,1841.8753406919996,None,6,1,1.2535358490004,1844.3796541639995,None,1844.3796541639995,None,1844.3796541639995,None,1845.6500970660009,None,1,0.4342242919992714,1845.6500970660009,None,164,1846.1007294,None,119,A,1,2021_May_26_1107,GazeFlow,2020.1.2,60.68193361821741,
13,Block501.xls,A,1,3,84,24,21,incongruent,Right,Left,Right,69,76,7,yellow,2,6,/home/docky/apps/exp/images/69Yi.jpeg,/home/docky/apps/exp/images/76Y.jpeg,0,12,12,12,0,2,2,2,1847.1035182370006,None,1847.1035182370006,None,1,5.477871164999669,1847.1035182370006,None,1852.6147767009998,None,1852.6147767009998,None,1855.117941042,None,1855.117941042,None,3.5555608969989407,1856.9211525180008,None,1856.9211525180008,None,6,1,0.9507830349994038,1860.4799912070002,None,1860.4799912070002,None,1860.4799912070002,None,1861.4474901860003,None,1,0.46780691300045874,1861.4474901860003,None,166,1861.9316785309993,None,119,A,1,2021_May_26_1107,GazeFlow,2020.1.2,60.68193361821741,
13,Block501.xls,A,1,4,26,26,11,congruent,Left,Left,Right,69,75,6,yellow,2,6,/home/docky/apps/exp/images/69Y.jpeg,/home/docky/apps/exp/images/76Yi.jpeg,0,12,12,12,0,3,3,3,1862.9341748460001,None,1862.9341748460001,None,1,5.86198083599993,1862.9341748460001,None,1868.8294759080009,None,1868.8294759080009,None,1871.3320925069993,None,1871.3320925069993,None,2.6870179969992023,1873.136356438,None,1873.136356438,None,6,1,1.1511059590011428,1875.826894713001,None,1875.826894713001,None,1875.826894713001,None,1876.9944347909995,None,1,0.5512125250006648,1876.9944347909995,None,168,1877.5621984670006,None,119,A,1,2021_May_26_1107,GazeFlow,2020.1.2,60.68193361821741,
13,Block501.xls,A,1,5,97,37,22,incongruent,Left,Right,Left,79,73,6,blue,2,5,/home/docky/apps/exp/images/79B.jpeg,/home/docky/apps/exp/images/73Bi.jpeg,0,12,12,12,0,4,4,4,1878.5644657879993,None,1878.5644657879993,None,1,5.494724797999879,1878.5644657879993,None,1884.0925879380002,None,1884.0925879380002,None,1886.5968322170002,None,1886.5968322170002,None,5.058545814001263,1888.3984731459996,None,1888.3984731459996,None,5,1,1.0022117440003058,1893.4594148229999,None,1893.4594148229999,None,1893.4594148229999,None,1894.4782441960006,None,1,0.4175265789999685,1894.4782441960006,None,170,1894.9127104099998,None,119,A,1,2021_May_26_1107,GazeFlow,2020.1.2,60.68193361821741,
13,Block501.xls,A,1,6,98,38,22,incongruent,Left,Right,Left,79,73,6,blue,2,5,/home/docky/apps/exp/images/79B.jpeg,/home/docky/apps/exp/images/73Bi.jpeg,0,12,12,12,0,5,5,5,1895.9148347269993,None,1895.9148347269993,None,1,5.828411192000203,1895.9148347269993,None,1901.7767916710009,None,1901.7767916710009,None,1904.280383454,None,1904.280383454,None,3.0212129120009195,1906.0835975279997,None,1906.0835975279997,None,5,1,1.8025208729995938,1909.1078556099992,None,1909.1078556099992,None,1909.1078556099992,None,1910.9269952919994,None,1,0.5185485020010674,1910.9269952919994,None,172,1911.461746258,None,119,A,1,2021_May_26_1107,GazeFlow,2020.1.2,60.68193361821741,
13,Block501.xls,A,1,7,77,17,21,incongruent,Right,Left,Right,65,66,1,yellow,2,6,/home/docky/apps/exp/images/35B.jpeg,/home/docky/apps/exp/images/66Yi.jpeg,0,12,12,12,0,6,6,6,1912.4636560120007,None,1912.4636560120007,None,1,6.446200819000296,1912.4636560120007,None,1918.94354949,None,1918.94354949,None,1921.4462727199998,None,1921.4462727199998,None,2.9043073520006146,1923.2519481259997,None,1923.2519481259997,None,6,1,7.265370245999293,1926.1560315729994,None,1926.1560315729994,None,1926.1560315729994,None,1933.4377574580003,None,1,1.0522702910002408,1933.4377574580003,None,174,1934.5064263630002,None,119,A,1,2021_May_26_1107,GazeFlow,2020.1.2,60.68193361821741,
13,Block501.xls,A,1,8,50,50,12,congruent,Right,Right,Left,66,65,1,yellow,2,5,/home/docky/apps/exp/images/66Y.jpeg,/home/docky/apps/exp/images/35Bi.jpeg,0,12,12,12,0,7,7,7,1935.508476213,None,1935.508476213,None,1,7.598805792998974,1935.508476213,None,1943.1407619150004,None,1943.1407619150004,None,1945.6450194670006,None,1945.6450194670006,None,2.553767966999658,1947.4473037270009,None,1947.4473037270009,None,5,1,1.269597602999056,1950.0021405380003,None,1950.0021405380003,None,1950.0021405380003,None,1951.2884177429996,None,1,0.869022450000557,1951.2884177429996,None,176,1952.1737415119997,None,119,A,1,2021_May_26_1107,GazeFlow,2020.1.2,60.68193361821741,
13,Block501.xls,A,,,,,,,,,,,,,,,,,,0,12,12,12,,,,,,,,,,,,,,,,,,,,,,,,,,,,,,,,,,,,,,,,,,,,119,A,1,2021_May_26_1107,GazeFlow,2020.1.2,60.68193361821741,
14,Block513.xls,A,13,1,32,32,12,congruent,Right,Right,Left,19,16,3,blue,2,5,/home/docky/apps/exp/images/19B.jpeg,/home/docky/apps/exp/images/16Bi.jpeg,0,13,13,13,0,0,0,0,1976.3211058299994,None,1976.3211058299994,None,1,6.402582475999225,1976.3211058299994,None,1982.7525362530005,None,1982.7525362530005,None,1985.2709621980002,None,1985.2709621980002,None,1.3667981129983673,1987.0759384910007,None,1987.0759384910007,None,5,1,0.9853177739987586,1988.4281073939992,None,1988.4281073939992,None,1988.4281073939992,None,1989.4298371760005,None,1,0.7343796420009312,1989.4298371760005,None,178,1990.1807454790005,None,119,A,1,2021_May_26_1107,GazeFlow,2020.1.2,60.68193361821741,
14,Block513.xls,A,13,2,81,21,21,incongruent,Right,Left,Right,38,39,1,yellow,2,6,/home/docky/apps/exp/images/38Yi.jpeg,/home/docky/apps/exp/images/39Y.jpeg,0,13,13,13,0,1,1,1,1991.1828967659994,None,1991.1828967659994,None,1,5.912610777000737,1991.1828967659994,None,1997.1290920710007,None,1997.1290920710007,None,1999.6334073520002,None,1999.6334073520002,None,1.5683423680002306,2001.434894254001,None,2001.434894254001,None,5,0,1.0018280929998582,2002.9899444510002,None,2002.9899444510002,None,2002.9899444510002,None,2004.0075352510003,None,1,0.4343144799986476,2004.0075352510003,None,176,2004.4586137590004,None,119,A,1,2021_May_26_1107,GazeFlow,2020.1.2,60.68193361821741,
14,Block513.xls,A,13,3,92,32,22,incongruent,Left,Right,Left,19,16,3,blue,2,5,/home/docky/apps/exp/images/19B.jpeg,/home/docky/apps/exp/images/16Bi.jpeg,0,13,13,13,0,2,2,2,2005.4603195509999,None,2005.4603195509999,None,1,6.8142668590007816,2005.4603195509999,None,2012.3085932629992,None,2012.3085932629992,None,2014.8114154080004,None,2014.8114154080004,None,2.285639675999846,2016.610199877,None,2016.610199877,None,5,1,0.9848696029985149,2018.8873318479991,None,2018.8873318479991,None,2018.8873318479991,None,2019.888809444,None,1,0.4509253920004994,2019.888809444,None,178,2020.3561697619998,None,119,A,1,2021_May_26_1107,GazeFlow,2020.1.2,60.68193361821741,
14,Block513.xls,A,13,4,6,6,11,congruent,Left,Left,Right,65,66,1,blue,2,6,/home/docky/apps/exp/images/35Y.jpeg,/home/docky/apps/exp/images/66Bi.jpeg,0,13,13,13,0,3,3,3,2021.3585848119992,None,2021.3585848119992,None,1,6.363038453999252,2021.3585848119992,None,2027.7523800640001,None,2027.7523800640001,None,2030.2572614989995,None,2030.2572614989995,None,4.357282723000026,2032.061264680001,None,2032.061264680001,None,6,1,0.8855336039996473,2036.4200203139999,None,2036.4200203139999,None,2036.4200203139999,None,2037.3226070970004,None,1,0.3674625390012807,2037.3226070970004,None,180,2037.706547621,None,119,A,1,2021_May_26_1107,GazeFlow,2020.1.2,60.68193361821741,
14,Block513.xls,A,13,5,67,7,21,incongruent,Right,Left,Right,38,39,1,blue,2,6,/home/docky/apps/exp/images/38Bi.jpeg,/home/docky/apps/exp/images/39B.jpeg,0,13,13,13,0,4,4,4,2038.7090108910006,None,2038.7090108910006,None,1,5.544989191999775,2038.7090108910006,None,2044.2871164630005,None,2044.2871164630005,None,2046.7917252329999,None,2046.7917252329999,None,4.9753549190008926,2048.588590587001,None,2048.588590587001,None,5,0,0.8017585489997145,2053.570400161,None,2053.570400161,None,2053.570400161,None,2054.3888563339997,None,1,0.36736492599993653,2054.3888563339997,None,178,2054.7728382119994,None,119,A,1,2021_May_26_1107,GazeFlow,2020.1.2,60.68193361821741,
14,Block513.xls,A,13,6,111,51,22,incongruent,Left,Right,Left,66,65,1,yellow,2,5,/home/docky/apps/exp/images/66Yi.jpeg,/home/docky/apps/exp/images/35B.jpeg,0,13,13,13,0,5,5,5,2055.774880092001,None,2055.774880092001,None,1,5.227763496999614,2055.774880092001,None,2061.037760847,None,2061.037760847,None,2063.5413158950005,None,2063.5413158950005,None,6.728357205000066,2065.3432476160006,None,2065.3432476160006,None,5,1,0.8190732940001908,2072.0726257960005,None,2072.0726257960005,None,2072.0726257960005,None,2072.908450172,None,1,0.38419173900001624,2072.908450172,None,180,2073.3089785069997,None,119,A,1,2021_May_26_1107,GazeFlow,2020.1.2,60.68193361821741,
14,Block513.xls,A,13,7,88,28,21,incongruent,Right,Left,Right,79,82,3,yellow,2,6,/home/docky/apps/exp/images/79Y.jpeg,/home/docky/apps/exp/images/80Yi.jpeg,0,13,13,13,0,6,6,6,2074.3110497589996,None,2074.3110497589996,None,1,5.260928083998806,2074.3110497589996,None,2079.604369185,None,2079.604369185,None,2082.108920101001,None,2082.108920101001,None,1.4346953009990102,2083.912370294999,None,2083.912370294999,None,5,0,0.9179318420010532,2085.3334988710003,None,2085.3334988710003,None,2085.3334988710003,None,2086.2680442600004,None,1,0.4673808360003022,2086.2680442600004,None,178,2086.751837356999,None,119,A,1,2021_May_26_1107,GazeFlow,2020.1.2,60.68193361821741,
14,Block513.xls,A,13,8,14,14,11,congruent,Left,Left,Right,80,83,3,blue,2,6,/home/docky/apps/exp/images/80B.jpeg,/home/docky/apps/exp/images/83Bi.jpeg,0,13,13,13,0,7,7,7,2087.7540650929996,None,2087.7540650929996,None,1,6.129512187999353,2087.7540650929996,None,2093.9167200599995,None,2093.9167200599995,None,2096.4203048930003,None,2096.4203048930003,None,1.5842678600001818,2098.225271384,None,2098.225271384,None,6,1,0.918544259000555,2099.7945301650007,None,2099.7945301650007,None,2099.7945301650007,None,2100.7294140120002,None,1,0.3176151400002709,2100.7294140120002,None,180,2101.0634940190002,None,119,A,1,2021_May_26_1107,GazeFlow,2020.1.2,60.68193361821741,
14,Block513.xls,A,,,,,,,,,,,,,,,,,,0,13,13,13,,,,,,,,,,,,,,,,,,,,,,,,,,,,,,,,,,,,,,,,,,,,119,A,1,2021_May_26_1107,GazeFlow,2020.1.2,60.68193361821741,
15,Block514.xls,A,14,1,113,53,22,incongruent,Left,Right,Left,75,69,6,yellow,2,5,/home/docky/apps/exp/images/76Y.jpeg,/home/docky/apps/exp/images/69Yi.jpeg,0,14,14,14,0,0,0,0,2124.294288622,None,2124.294288622,None,1,6.082680670000627,2124.294288622,None,2130.408874844,None,2130.408874844,None,2132.9243296569994,None,2132.9243296569994,None,1.4500231969996094,2134.7263978029996,None,2134.7263978029996,None,5,1,0.9354188319994137,2136.1649517159995,None,2136.1649517159995,None,2136.1649517159995,None,2137.116947293999,None,1,0.5511932259996684,2137.116947293999,None,182,2137.6846575669997,None,119,A,1,2021_May_26_1107,GazeFlow,2020.1.2,60.68193361821741,
15,Block514.xls,A,14,2,45,45,12,congruent,Right,Right,Left,39,38,1,blue,2,5,/home/docky/apps/exp/images/39B.jpeg,/home/docky/apps/exp/images/38Bi.jpeg,0,14,14,14,0,1,1,1,2138.6861645060008,None,2138.6861645060008,None,1,6.279322057000172,2138.6861645060008,None,2144.9995331559994,None,2144.9995331559994,None,2147.5023001969994,None,2147.5023001969994,None,3.605797245998474,2149.3058190439997,None,2149.3058190439997,None,5,1,0.8188409879985556,2152.9131963869995,None,2152.9131963869995,None,2152.9131963869995,None,2153.7487991080006,None,1,0.5176104639995174,2153.7487991080006,None,184,2154.283068791,None,119,A,1,2021_May_26_1107,GazeFlow,2020.1.2,60.68193361821741,
15,Block514.xls,A,14,3,52,52,12,congruent,Right,Right,Left,75,69,6,yellow,2,5,/home/docky/apps/exp/images/76Y.jpeg,/home/docky/apps/exp/images/69Yi.jpeg,0,14,14,14,0,2,2,2,2155.2854958390008,None,2155.2854958390008,None,1,5.527477855999678,2155.2854958390008,None,2160.8470717160008,None,2160.8470717160008,None,2163.3517854280008,None,2163.3517854280008,None,1.1668957229994703,2165.153884552,None,2165.153884552,None,5,1,1.1185460070009867,2166.3071568610003,None,2166.3071568610003,None,2166.3071568610003,None,2167.441894265,None,1,0.4853343100003258,2167.441894265,None,186,2167.9434502649992,None,119,A,1,2021_May_26_1107,GazeFlow,2020.1.2,60.68193361821741,
15,Block514.xls,A,14,4,106,46,22,incongruent,Left,Right,Left,35,33,2,yellow,2,5,/home/docky/apps/exp/images/35Yi.jpeg,/home/docky/apps/exp/images/33Y.jpeg,0,14,14,14,0,3,3,3,2168.9449219610005,None,2168.9449219610005,None,1,5.678571144000671,2168.9449219610005,None,2174.6553885839994,None,2174.6553885839994,None,2177.159903068,None,2177.159903068,None,1.534553990000859,2178.963139738001,None,2178.963139738001,None,5,1,0.9185192969998752,2180.484608584001,None,2180.484608584001,None,2180.484608584001,None,2181.4196528719995,None,1,0.451364354999896,2181.4196528719995,None,188,2181.887201871,None,119,A,1,2021_May_26_1107,GazeFlow,2020.1.2,60.68193361821741,
15,Block514.xls,A,14,5,109,49,22,incongruent,Left,Right,Left,39,38,1,yellow,2,5,/home/docky/apps/exp/images/39Yi.jpeg,/home/docky/apps/exp/images/38Y.jpeg,0,14,14,14,0,4,4,4,2182.8889396959994,None,2182.8889396959994,None,1,6.312802022999676,2182.8889396959994,None,2189.233934256,None,2189.233934256,None,2191.738590305001,None,2191.738590305001,None,1.5513368170013564,2193.536562601,None,2193.536562601,None,5,1,1.0357770219998201,2195.0796568270007,None,2195.0796568270007,None,2195.0796568270007,None,2196.131612794,None,1,0.5174615989999438,2196.131612794,None,190,2196.6653852869995,None,119,A,1,2021_May_26_1107,GazeFlow,2020.1.2,60.68193361821741,
15,Block514.xls,A,14,6,89,29,21,incongruent,Right,Left,Right,79,82,3,yellow,2,6,/home/docky/apps/exp/images/79Yi.jpeg,/home/docky/apps/exp/images/80Y.jpeg,0,14,14,14,0,5,5,5,2197.667459333,None,2197.667459333,None,1,5.8621333749997575,2197.667459333,None,2203.563509349001,None,2203.563509349001,None,2206.068152975001,None,2206.068152975001,None,2.2524537070003134,2207.8696268819995,None,2207.8696268819995,None,6,1,0.934641511999871,2210.1089779589993,None,2210.1089779589993,None,2210.1089779589993,None,2211.059966702999,None,1,0.3677360179990501,2211.059966702999,None,192,2211.4443400560003,None,119,A,1,2021_May_26_1107,GazeFlow,2020.1.2,60.68193361821741,
15,Block514.xls,A,14,7,91,31,22,incongruent,Left,Right,Left,19,16,3,blue,2,5,/home/docky/apps/exp/images/19Bi.jpeg,/home/docky/apps/exp/images/16B.jpeg,0,14,14,14,0,6,6,6,2212.4466044650007,None,2212.4466044650007,None,1,5.243776964998688,2212.4466044650007,None,2217.7242770519997,None,2217.7242770519997,None,2220.2270345940005,None,2220.2270345940005,None,1.7347458900003403,2222.032515135,None,2222.032515135,None,5,1,1.2025151069992717,2223.7519608209996,None,2223.7519608209996,None,2223.7519608209996,None,2224.9709429410004,None,1,0.483864990001166,2224.9709429410004,None,194,2225.471328312001,None,119,A,1,2021_May_26_1107,GazeFlow,2020.1.2,60.68193361821741,
15,Block514.xls,A,14,8,79,19,21,incongruent,Right,Left,Right,62,65,3,yellow,2,6,/home/docky/apps/exp/images/38B.jpeg,/home/docky/apps/exp/images/35Bi.jpeg,0,14,14,14,0,7,7,7,2226.473683722,None,2226.473683722,None,1,6.045958967999468,2226.473683722,None,2232.5530035050006,None,2232.5530035050006,None,2235.0578130719996,None,2235.0578130719996,None,1.735019267000098,2236.8597496480006,None,2236.8597496480006,None,6,1,0.9521831219990418,2238.5810330659997,None,2238.5810330659997,None,2238.5810330659997,None,2239.5493335210003,None,1,0.46751724500063574,2239.5493335210003,None,196,2240.033218617001,None,119,A,1,2021_May_26_1107,GazeFlow,2020.1.2,60.68193361821741,
15,Block514.xls,A,,,,,,,,,,,,,,,,,,0,14,14,14,,,,,,,,,,,,,,,,,,,,,,,,,,,,,,,,,,,,,,,,,,,,119,A,1,2021_May_26_1107,GazeFlow,2020.1.2,60.68193361821741,
