Nblock,condsFile,grouping,Block,TrialBlock,N,trialN,trialCond,gazeCon,gazedirR,corrBinR,corrBinP,valLBY,valRBY,diff,colorCube,feedbacktext,corrAns,imageL,imageR,SelBlocks.thisRepN,SelBlocks.thisTrialN,SelBlocks.thisN,SelBlocks.thisIndex,Trials.thisRepN,Trials.thisTrialN,Trials.thisN,Trials.thisIndex,waitCube.started,waitCube.stopped,text_3.started,text_3.stopped,StartKeyPress.keys,StartKeyPress.rt,StartKeyPress.started,StartKeyPress.stopped,StimL.started,StimL.stopped,StimR.started,StimR.stopped,imageStim2L.started,imageStim2L.stopped,imageStim2R.started,imageStim2R.stopped,RTkeyRelease,imageStim3L.started,imageStim3L.stopped,imageStim3R.started,imageStim3R.stopped,dropResp.keys,dropResp.corr,dropResp.rt,dropResp.started,dropResp.stopped,imageStim5L.started,imageStim5L.stopped,imageStim5R.started,imageStim5R.stopped,text_2.started,text_2.stopped,ReturnSpace.keys,ReturnSpace.rt,ReturnSpace.started,ReturnSpace.stopped,totalpoints,textFeedback.started,textFeedback.stopped,participant,group,session,date,expName,psychopyVersion,frameRate,
1,Block809.xls,B,9,1,93,93,None,congruent,Right,Right,Left,80,79,1,yellow,2,5,/home/docky/apps/exp/images/80Y.jpeg,/home/docky/apps/exp/images/79Yi.jpeg,0,0,0,0,0,0,0,0,72.5435085299996,None,72.5435085299996,None,1,7.052412990999073,72.5435085299996,None,79.62731785799951,None,79.62731785799951,None,82.14631690699935,None,82.14631690699935,None,1.5337984660000075,83.94844342099896,None,83.94844342099896,None,6,0,0.9522429520002333,85.46582849299921,None,85.46582849299921,None,85.46582849299921,None,86.4340722729994,None,1,0.7678352999992057,86.4340722729994,None,-2,87.21858771400002,None,120,B,1,2021_May_26_1622,GazeFlow,2020.1.2,59.9240967837217,
1,Block809.xls,B,9,2,15,15,None,congruent,Left,Left,Right,38,39,1,blue,2,6,/home/docky/apps/exp/images/38B.jpeg,/home/docky/apps/exp/images/39Bi.jpeg,0,0,0,0,0,1,1,1,88.22074249099933,None,88.22074249099933,None,1,4.910509022000042,88.22074249099933,None,93.16461258899835,None,93.16461258899835,None,95.66772424800001,None,95.66772424800001,None,1.4677791469985095,97.47140424899953,None,97.47140424899953,None,6,1,0.9685392340015824,98.92532236199986,None,98.92532236199986,None,98.92532236199986,None,99.91044320499896,None,1,0.9682172640004865,99.91044320499896,None,0,100.89522777699858,None,120,B,1,2021_May_26_1622,GazeFlow,2020.1.2,59.9240967837217,
1,Block809.xls,B,9,3,117,21,None,incongruent,Left,Right,Left,39,38,1,yellow,2,5,/home/docky/apps/exp/images/39Yi.jpeg,/home/docky/apps/exp/images/38Y.jpeg,0,0,0,0,0,2,2,2,101.89722585099844,None,101.89722585099844,None,1,4.910239046999777,101.89722585099844,None,106.84094067799924,None,106.84094067799924,None,109.34423779799909,None,109.34423779799909,None,1.9021928580004897,111.14900965000015,None,111.14900965000015,None,5,1,0.9186536889992567,113.03582076199928,None,113.03582076199928,None,113.03582076199928,None,113.97100638399934,None,1,0.6339851590000762,113.97100638399934,None,2,114.62181743699875,None,120,B,1,2021_May_26_1622,GazeFlow,2020.1.2,59.9240967837217,
1,Block809.xls,B,9,4,94,94,None,congruent,Right,Right,Left,80,79,1,yellow,2,5,/home/docky/apps/exp/images/80Y.jpeg,/home/docky/apps/exp/images/79Yi.jpeg,0,0,0,0,0,3,3,3,115.62405044299885,None,115.62405044299885,None,1,4.492398427999433,115.62405044299885,None,120.15040465899983,None,120.15040465899983,None,122.65480609699989,None,122.65480609699989,None,1.3841207749992464,124.45701875699888,None,124.45701875699888,None,5,1,0.9352401279993501,125.82777997899939,None,125.82777997899939,None,125.82777997899939,None,126.77919833299893,None,1,0.6678187849993265,126.77919833299893,None,4,127.46341269099867,None,120,B,1,2021_May_26_1622,GazeFlow,2020.1.2,59.9240967837217,
1,Block809.xls,B,9,5,41,41,None,congruent,Right,Right,Left,79,76,3,blue,2,5,/home/docky/apps/exp/images/79Bi.jpeg,/home/docky/apps/exp/images/76B.jpeg,0,0,0,0,0,4,4,4,128.46587279099913,None,128.46587279099913,None,1,4.742484993001199,128.46587279099913,None,133.24213690299985,None,133.24213690299985,None,135.7491468199987,None,135.7491468199987,None,1.3174191300004168,137.5484330169984,None,137.5484330169984,None,5,1,0.9679959709992545,138.85296918399945,None,138.85296918399945,None,138.85296918399945,None,139.83753664100004,None,1,0.5850563870008045,139.83753664100004,None,6,140.43897158699838,None,120,B,1,2021_May_26_1622,GazeFlow,2020.1.2,59.9240967837217,
1,Block809.xls,B,9,6,36,36,None,congruent,Right,Right,Left,79,73,6,blue,2,5,/home/docky/apps/exp/images/79Bi.jpeg,/home/docky/apps/exp/images/73B.jpeg,0,0,0,0,0,5,5,5,141.44031147499845,None,141.44031147499845,None,1,4.2093806819993915,141.44031147499845,None,145.68330025700016,None,145.68330025700016,None,148.18801024099957,None,148.18801024099957,None,1.1504436360010004,149.98929685299845,None,149.98929685299845,None,5,1,0.9514064879986108,151.12674011499985,None,151.12674011499985,None,151.12674011499985,None,152.0945699499989,None,1,0.501583268000104,152.0945699499989,None,8,152.61283235099836,None,120,B,1,2021_May_26_1622,GazeFlow,2020.1.2,59.9240967837217,
1,Block809.xls,B,9,7,78,78,None,congruent,Right,Right,Left,39,38,1,yellow,2,5,/home/docky/apps/exp/images/39Yi.jpeg,/home/docky/apps/exp/images/38Y.jpeg,0,0,0,0,0,6,6,6,153.61443581999993,None,153.61443581999993,None,1,4.826561546000448,153.61443581999993,None,158.47491555299894,None,158.47491555299894,None,160.97772612199878,None,160.97772612199878,None,1.2340220659989427,162.77576525699988,None,162.77576525699988,None,5,1,0.9347505629993975,164.00150089999988,None,164.00150089999988,None,164.00150089999988,None,164.95295100399926,None,1,0.6185787150006945,164.95295100399926,None,10,165.58791605799888,None,120,B,1,2021_May_26_1622,GazeFlow,2020.1.2,59.9240967837217,
1,Block809.xls,B,9,8,29,29,None,congruent,Right,Right,Left,38,35,3,blue,2,5,/home/docky/apps/exp/images/38B.jpeg,/home/docky/apps/exp/images/35Bi.jpeg,0,0,0,0,0,7,7,7,166.58956605799904,None,166.58956605799904,None,1,4.827049427998645,166.58956605799904,None,171.45008372399934,None,171.45008372399934,None,173.95313362199886,None,173.95313362199886,None,1.0666618230006861,175.75055679599973,None,175.75055679599973,None,5,1,0.9681774380005663,176.80968719999873,None,176.80968719999873,None,176.80968719999873,None,177.79457933999947,None,1,0.7688271349998104,177.79457933999947,None,12,178.57972503699966,None,120,B,1,2021_May_26_1622,GazeFlow,2020.1.2,59.9240967837217,
1,Block809.xls,B,,,,,,,,,,,,,,,,,,0,0,0,0,,,,,,,,,,,,,,,,,,,,,,,,,,,,,,,,,,,,,,,,,,,,120,B,1,2021_May_26_1622,GazeFlow,2020.1.2,59.9240967837217,
2,Block805.xls,B,5,1,16,16,None,congruent,Left,Left,Right,73,76,3,blue,2,6,/home/docky/apps/exp/images/73B.jpeg,/home/docky/apps/exp/images/76Bi.jpeg,0,1,1,1,0,0,0,0,196.19860287199845,None,196.19860287199845,None,1,6.1861758420000115,196.19860287199845,None,202.41379113699986,None,202.41379113699986,None,204.93148889999975,None,204.93148889999975,None,1.132939434999571,206.72870368999975,None,206.72870368999975,None,6,1,0.9677393870006199,207.8535270049997,None,207.8535270049997,None,207.8535270049997,None,208.8383827589987,None,1,0.5179064490002929,208.8383827589987,None,14,209.3727716049998,None,120,B,1,2021_May_26_1622,GazeFlow,2020.1.2,59.9240967837217,
2,Block805.xls,B,5,2,2,2,None,congruent,Left,Left,Right,16,19,3,blue,2,6,/home/docky/apps/exp/images/16B.jpeg,/home/docky/apps/exp/images/19Bi.jpeg,0,1,1,1,0,1,1,1,210.37445938599922,None,210.37445938599922,None,1,4.542788472999746,210.37445938599922,None,214.95104205899952,None,214.95104205899952,None,217.45442683799956,None,217.45442683799956,None,1.2334478749999107,219.25956179499917,None,219.25956179499917,None,6,1,0.8844946129993332,220.47810227699847,None,220.47810227699847,None,220.47810227699847,None,221.37911622199863,None,1,0.4686043570000038,221.37911622199863,None,16,221.86403626899846,None,120,B,1,2021_May_26_1622,GazeFlow,2020.1.2,59.9240967837217,
2,Block805.xls,B,5,3,64,64,None,congruent,Left,Left,Right,69,76,7,yellow,2,6,/home/docky/apps/exp/images/69Y.jpeg,/home/docky/apps/exp/images/76Yi.jpeg,0,1,1,1,0,2,2,2,222.86531253700014,None,222.86531253700014,None,1,4.64368928300064,222.86531253700014,None,227.54223540099883,None,227.54223540099883,None,230.04555815899948,None,230.04555815899948,None,1.5008593889997428,231.84865651899963,None,231.84865651899963,None,6,1,0.8850036910007475,233.3362281969985,None,233.3362281969985,None,233.3362281969985,None,234.2378000259996,None,1,0.5842428369996924,234.2378000259996,None,18,234.83855723499983,None,120,B,1,2021_May_26_1622,GazeFlow,2020.1.2,59.9240967837217,
2,Block805.xls,B,5,4,61,61,None,congruent,Left,Left,Right,38,39,1,yellow,2,6,/home/docky/apps/exp/images/38Yi.jpeg,/home/docky/apps/exp/images/39Y.jpeg,0,1,1,1,0,3,3,3,235.840642743,None,235.840642743,None,1,3.9921430089998466,235.840642743,None,239.86597719199926,None,239.86597719199926,None,242.3710484489984,None,242.3710484489984,None,1.3841968520009686,244.1730136339993,None,244.1730136339993,None,5,0,0.9517153999986476,245.54327031199864,None,245.54327031199864,None,245.54327031199864,None,246.51102281800013,None,1,0.5010226119993604,246.51102281800013,None,16,247.02896146999956,None,120,B,1,2021_May_26_1622,GazeFlow,2020.1.2,59.9240967837217,
2,Block805.xls,B,5,5,23,23,None,congruent,Left,Left,Right,80,83,3,blue,2,6,/home/docky/apps/exp/images/80B.jpeg,/home/docky/apps/exp/images/83Bi.jpeg,0,1,1,1,0,4,4,4,248.03104302799875,None,248.03104302799875,None,1,4.659556639000584,248.03104302799875,None,252.72497569999905,None,252.72497569999905,None,255.22757521899985,None,255.22757521899985,None,1.3840556840004865,257.0311080799984,None,257.0311080799984,None,6,1,1.0354839490009908,258.4016296439986,None,258.4016296439986,None,258.4016296439986,None,259.45355336399916,None,1,0.434247580000374,259.45355336399916,None,18,259.90432719599994,None,120,B,1,2021_May_26_1622,GazeFlow,2020.1.2,59.9240967837217,
2,Block805.xls,B,5,6,87,87,None,congruent,Right,Right,Left,76,69,7,yellow,2,5,/home/docky/apps/exp/images/76Yi.jpeg,/home/docky/apps/exp/images/69Y.jpeg,0,1,1,1,0,5,5,5,260.905761177999,None,260.905761177999,None,1,4.610193682001409,260.905761177999,None,265.55129520599985,None,265.55129520599985,None,268.0541879839984,None,268.0541879839984,None,1.1504433430000063,269.8551443619999,None,269.8551443619999,None,5,1,0.9676509049986635,270.9928545549992,None,270.9928545549992,None,270.9928545549992,None,271.9772665249984,None,1,0.5854832860004535,271.9772665249984,None,20,272.5789594559992,None,120,B,1,2021_May_26_1622,GazeFlow,2020.1.2,59.9240967837217,
2,Block805.xls,B,5,7,4,4,None,congruent,Left,Left,Right,35,38,3,blue,2,6,/home/docky/apps/exp/images/35B.jpeg,/home/docky/apps/exp/images/38Bi.jpeg,0,1,1,1,0,6,6,6,273.5805471709991,None,273.5805471709991,None,1,4.64292946400019,273.5805471709991,None,278.257943306,None,278.257943306,None,280.7680777879996,None,280.7680777879996,None,1.283990325000559,282.5640197449993,None,282.5640197449993,None,6,1,0.9177882379990479,283.83434926299924,None,283.83434926299924,None,283.83434926299924,None,284.7687708049998,None,1,0.43550546999904327,284.7687708049998,None,22,285.2195995459988,None,120,B,1,2021_May_26_1622,GazeFlow,2020.1.2,59.9240967837217,
2,Block805.xls,B,5,8,114,18,None,incongruent,Right,Left,Right,79,82,3,yellow,2,6,/home/docky/apps/exp/images/79Y.jpeg,/home/docky/apps/exp/images/80Yi.jpeg,0,1,1,1,0,7,7,7,286.2216111479993,None,286.2216111479993,None,1,4.1593866140010505,286.2216111479993,None,290.4151648139996,None,290.4151648139996,None,292.91755651999847,None,292.91755651999847,None,1.133671523000885,294.71547782199923,None,294.71547782199923,None,5,0,0.9513315280000825,295.8410702729998,None,295.8410702729998,None,295.8410702729998,None,296.8092879329997,None,1,0.6181648010006029,296.8092879329997,None,20,297.44371198999943,None,120,B,1,2021_May_26_1622,GazeFlow,2020.1.2,59.9240967837217,
2,Block805.xls,B,,,,,,,,,,,,,,,,,,0,1,1,1,,,,,,,,,,,,,,,,,,,,,,,,,,,,,,,,,,,,,,,,,,,,120,B,1,2021_May_26_1622,GazeFlow,2020.1.2,59.9240967837217,
3,Block804.xls,B,4,1,95,95,None,congruent,Right,Right,Left,80,79,1,yellow,2,5,/home/docky/apps/exp/images/80Yi.jpeg,/home/docky/apps/exp/images/79Y.jpeg,0,2,2,2,0,0,0,0,316.46668095399946,None,316.46668095399946,None,1,6.166615980000643,316.46668095399946,None,322.66304035899884,None,322.66304035899884,None,325.18189752999933,None,325.18189752999933,None,1.132978223000464,326.98519474599925,None,326.98519474599925,None,5,1,0.9012414730004821,328.1037877229992,None,328.1037877229992,None,328.1037877229992,None,329.02160793799885,None,1,0.5681504619988118,329.02160793799885,None,22,329.6061702899988,None,120,B,1,2021_May_26_1622,GazeFlow,2020.1.2,59.9240967837217,
3,Block804.xls,B,4,2,107,11,None,incongruent,Left,Right,Left,83,80,3,blue,2,5,/home/docky/apps/exp/images/83Bi.jpeg,/home/docky/apps/exp/images/80B.jpeg,0,2,2,2,0,1,1,1,330.6080030309986,None,330.6080030309986,None,1,5.611655922000864,330.6080030309986,None,336.2530451959992,None,336.2530451959992,None,338.758177189,None,338.758177189,None,1.2171567810000852,340.5616016089989,None,340.5616016089989,None,5,1,0.901123464000193,341.76364094699966,None,341.76364094699966,None,341.76364094699966,None,342.6814129059985,None,1,0.551940524001111,342.6814129059985,None,24,343.2494983359993,None,120,B,1,2021_May_26_1622,GazeFlow,2020.1.2,59.9240967837217,
3,Block804.xls,B,4,3,27,27,None,congruent,Right,Right,Left,19,16,3,blue,2,5,/home/docky/apps/exp/images/19Bi.jpeg,/home/docky/apps/exp/images/16B.jpeg,0,2,2,2,0,2,2,2,344.251112259999,None,344.251112259999,None,1,4.142150252999272,344.251112259999,None,348.428080280999,None,348.428080280999,None,350.930058377,None,350.930058377,None,1.1509747630007041,352.7280065729992,None,352.7280065729992,None,6,0,0.9016263020002953,353.87020871799905,None,353.87020871799905,None,353.87020871799905,None,354.78846360399984,None,1,0.517505813999378,354.78846360399984,None,22,355.3224104479996,None,120,B,1,2021_May_26_1622,GazeFlow,2020.1.2,59.9240967837217,
3,Block804.xls,B,4,4,101,5,None,incongruent,Right,Left,Right,76,79,3,blue,2,6,/home/docky/apps/exp/images/76B.jpeg,/home/docky/apps/exp/images/79Bi.jpeg,0,2,2,2,0,3,3,3,356.324523366,None,356.324523366,None,1,4.359241868000026,356.324523366,None,360.71730976099934,None,360.71730976099934,None,363.22574608799914,None,363.22574608799914,None,1.4681085129996063,365.0245449089998,None,365.0245449089998,None,6,1,0.9185493790009787,366.47813623799993,None,366.47813623799993,None,366.47813623799993,None,367.4130996069998,None,1,0.41814358299961896,367.4130996069998,None,24,367.8473177449996,None,120,B,1,2021_May_26_1622,GazeFlow,2020.1.2,59.9240967837217,
3,Block804.xls,B,4,5,47,47,None,congruent,Right,Right,Left,39,38,1,blue,2,5,/home/docky/apps/exp/images/39Bi.jpeg,/home/docky/apps/exp/images/38B.jpeg,0,2,2,2,0,4,4,4,368.84887514599905,None,368.84887514599905,None,1,4.242710046000866,368.84887514599905,None,373.1248515399984,None,373.1248515399984,None,375.6283167319998,None,375.6283167319998,None,1.6346856870004558,377.4315107809998,None,377.4315107809998,None,6,0,0.9354908180011989,379.0524087519989,None,379.0524087519989,None,379.0524087519989,None,380.0042341899989,None,1,0.46735957600139955,380.0042341899989,None,22,380.4879797419999,None,120,B,1,2021_May_26_1622,GazeFlow,2020.1.2,59.9240967837217,
3,Block804.xls,B,4,6,90,90,None,congruent,Right,Right,Left,77,72,5,yellow,2,5,/home/docky/apps/exp/images/77Yi.jpeg,/home/docky/apps/exp/images/72Y.jpeg,0,2,2,2,0,5,5,5,381.4900376309997,None,381.4900376309997,None,1,4.091791840999576,381.4900376309997,None,385.615907686999,None,385.615907686999,None,388.1207093129997,None,388.1207093129997,None,1.0169784760000766,389.92249327599893,None,389.92249327599893,None,5,1,0.9514725690005434,390.9255363609991,None,390.9255363609991,None,390.9255363609991,None,391.89365124399956,None,1,0.43515720599862107,391.89365124399956,None,24,392.3448357739999,None,120,B,1,2021_May_26_1622,GazeFlow,2020.1.2,59.9240967837217,
3,Block804.xls,B,4,7,12,12,None,congruent,Left,Left,Right,38,39,1,blue,2,6,/home/docky/apps/exp/images/38B.jpeg,/home/docky/apps/exp/images/39Bi.jpeg,0,2,2,2,0,6,6,6,393.3463069119989,None,393.3463069119989,None,1,5.194708720999188,393.3463069119989,None,398.5743128089998,None,398.5743128089998,None,401.0789514449989,None,401.0789514449989,None,1.0669876510000904,402.88112972199997,None,402.88112972199997,None,6,1,0.934767730999738,403.93425587399906,None,403.93425587399906,None,403.93425587399906,None,404.88556060500014,None,1,0.43506986200009123,404.88556060500014,None,26,405.33664731499994,None,120,B,1,2021_May_26_1622,GazeFlow,2020.1.2,59.9240967837217,
3,Block804.xls,B,4,8,20,20,None,congruent,Left,Left,Right,76,79,3,blue,2,6,/home/docky/apps/exp/images/76Bi.jpeg,/home/docky/apps/exp/images/79B.jpeg,0,2,2,2,0,7,7,7,406.3386274629993,None,406.3386274629993,None,1,3.9746125700003176,406.3386274629993,None,410.3450054219993,None,410.3450054219993,None,412.8523335519985,None,412.8523335519985,None,1.1839169499999116,414.64818826400005,None,414.64818826400005,None,6,1,0.9012932810001075,415.82399463,None,415.82399463,None,415.82399463,None,416.7418162009999,None,1,0.4014849340001092,416.7418162009999,None,28,417.1597500150001,None,120,B,1,2021_May_26_1622,GazeFlow,2020.1.2,59.9240967837217,
3,Block804.xls,B,,,,,,,,,,,,,,,,,,0,2,2,2,,,,,,,,,,,,,,,,,,,,,,,,,,,,,,,,,,,,,,,,,,,,120,B,1,2021_May_26_1622,GazeFlow,2020.1.2,59.9240967837217,
4,Block814.xls,B,14,1,99,3,None,incongruent,Right,Left,Right,65,66,1,blue,2,6,/home/docky/apps/exp/images/35Yi.jpeg,/home/docky/apps/exp/images/66B.jpeg,0,3,3,3,0,0,0,0,436.2643458989987,None,436.2643458989987,None,1,6.622129433999362,436.2643458989987,None,442.9137587839996,None,442.9137587839996,None,445.4301980129985,None,445.4301980129985,None,1.0162888830000156,447.2340107979999,None,447.2340107979999,None,6,1,0.9179331079994881,448.2368824899986,None,448.2368824899986,None,448.2368824899986,None,449.1716746459988,None,1,0.4180183600001328,449.1716746459988,None,30,449.6060917049999,None,120,B,1,2021_May_26_1622,GazeFlow,2020.1.2,59.9240967837217,
4,Block814.xls,B,14,2,34,34,None,congruent,Right,Right,Left,66,65,1,blue,2,5,/home/docky/apps/exp/images/66B.jpeg,/home/docky/apps/exp/images/35Yi.jpeg,0,3,3,3,0,1,1,1,450.6074229119986,None,450.6074229119986,None,1,4.259841125000094,450.6074229119986,None,454.9002775829995,None,454.9002775829995,None,457.4033199810001,None,457.4033199810001,None,1.0002069710008072,459.2060646769987,None,459.2060646769987,None,5,1,0.9849067049999576,460.19350358099837,None,460.19350358099837,None,460.19350358099837,None,461.19492740199894,None,1,0.40149308599939104,461.19492740199894,None,32,461.6128599019994,None,120,B,1,2021_May_26_1622,GazeFlow,2020.1.2,59.9240967837217,
4,Block814.xls,B,14,3,91,91,None,congruent,Right,Right,Left,77,72,5,yellow,2,5,/home/docky/apps/exp/images/77Yi.jpeg,/home/docky/apps/exp/images/72Y.jpeg,0,3,3,3,0,2,2,2,462.61436887299897,None,462.61436887299897,None,1,4.2088158869992185,462.61436887299897,None,466.85645684099836,None,466.85645684099836,None,469.3598266270001,None,469.3598266270001,None,0.9835730850008986,471.16305307699986,None,471.16305307699986,None,5,1,0.9013012049999816,472.13347741799953,None,472.13347741799953,None,472.13347741799953,None,473.05123265600014,None,1,0.35062190999997256,473.05123265600014,None,34,473.4188725339991,None,120,B,1,2021_May_26_1622,GazeFlow,2020.1.2,59.9240967837217,
4,Block814.xls,B,14,4,68,68,None,congruent,Left,Left,Right,72,77,5,yellow,2,6,/home/docky/apps/exp/images/72Yi.jpeg,/home/docky/apps/exp/images/77Y.jpeg,0,3,3,3,0,3,3,3,474.4205782509998,None,474.4205782509998,None,1,3.7752430439995806,474.4205782509998,None,478.22904983399894,None,478.22904983399894,None,480.7338415139984,None,480.7338415139984,None,1.0170611220000865,482.5360609199997,None,482.5360609199997,None,6,1,0.984539400000358,483.53893599899857,None,483.53893599899857,None,483.53893599899857,None,484.54048369299926,None,1,0.350882262999221,484.54048369299926,None,36,484.90811326199946,None,120,B,1,2021_May_26_1622,GazeFlow,2020.1.2,59.9240967837217,
4,Block814.xls,B,14,5,66,66,None,congruent,Left,Left,Right,69,76,7,yellow,2,6,/home/docky/apps/exp/images/69Yi.jpeg,/home/docky/apps/exp/images/76Y.jpeg,0,3,3,3,0,4,4,4,485.90966182599914,None,485.90966182599914,None,1,3.8080061420005222,485.90966182599914,None,489.7512512889989,None,489.7512512889989,None,492.2542835409986,None,492.2542835409986,None,1.1337412020002375,494.05970774399975,None,494.05970774399975,None,6,1,1.0852429419992404,495.17807059000006,None,495.17807059000006,None,495.17807059000006,None,496.2799726759986,None,1,0.35141857499911566,496.2799726759986,None,38,496.6475539919993,None,120,B,1,2021_May_26_1622,GazeFlow,2020.1.2,59.9240967837217,
4,Block814.xls,B,14,6,115,19,None,incongruent,Left,Right,Left,80,79,1,yellow,2,5,/home/docky/apps/exp/images/80Yi.jpeg,/home/docky/apps/exp/images/79Y.jpeg,0,3,3,3,0,5,5,5,497.6490631429988,None,497.6490631429988,None,1,3.9252940639998997,497.6490631429988,None,501.605637957,None,501.605637957,None,504.11068818999956,None,504.11068818999956,None,1.5511860730002809,505.91389557,None,505.91389557,None,5,1,0.9855948959993839,507.4520697709995,None,507.4520697709995,None,507.4520697709995,None,508.45382030699875,None,1,0.5339093589991535,508.45382030699875,None,40,509.0043251649986,None,120,B,1,2021_May_26_1622,GazeFlow,2020.1.2,59.9240967837217,
4,Block814.xls,B,14,7,9,9,None,congruent,Left,Left,Right,65,66,1,blue,2,6,/home/docky/apps/exp/images/35Yi.jpeg,/home/docky/apps/exp/images/66B.jpeg,0,3,3,3,0,6,6,6,510.0066491919988,None,510.0066491919988,None,1,4.242006247999598,510.0066491919988,None,514.2805709549993,None,514.2805709549993,None,516.7857094999999,None,516.7857094999999,None,1.6010540280003625,518.5888760609996,None,518.5888760609996,None,5,0,0.9857546940002067,520.1766853729987,None,520.1766853729987,None,520.1766853729987,None,521.17840368,None,1,0.40040417299860565,521.17840368,None,38,521.5953022599988,None,120,B,1,2021_May_26_1622,GazeFlow,2020.1.2,59.9240967837217,
4,Block814.xls,B,14,8,14,14,None,congruent,Left,Left,Right,38,39,1,blue,2,6,/home/docky/apps/exp/images/38Bi.jpeg,/home/docky/apps/exp/images/39B.jpeg,0,3,3,3,0,7,7,7,522.5975273579988,None,522.5975273579988,None,1,3.9423174240000662,522.5975273579988,None,526.5729827509986,None,526.5729827509986,None,529.0757675869991,None,529.0757675869991,None,0.9669239699996979,530.8792685459994,None,530.8792685459994,None,6,1,1.0352967569997418,531.8325201419993,None,531.8325201419993,None,531.8325201419993,None,532.8838200720002,None,1,0.3349761240006046,532.8838200720002,None,40,533.2352101259985,None,120,B,1,2021_May_26_1622,GazeFlow,2020.1.2,59.9240967837217,
4,Block814.xls,B,,,,,,,,,,,,,,,,,,0,3,3,3,,,,,,,,,,,,,,,,,,,,,,,,,,,,,,,,,,,,,,,,,,,,120,B,1,2021_May_26_1622,GazeFlow,2020.1.2,59.9240967837217,
5,Block812.xls,B,12,1,18,18,None,congruent,Left,Left,Right,73,76,3,blue,2,6,/home/docky/apps/exp/images/73B.jpeg,/home/docky/apps/exp/images/76Bi.jpeg,0,4,4,4,0,0,0,0,554.4784526289986,None,554.4784526289986,None,1,5.58205390600051,554.4784526289986,None,560.0734603410001,None,560.0734603410001,None,562.5929259249988,None,562.5929259249988,None,1.0497492859994964,564.3951658509995,None,564.3951658509995,None,6,1,1.0348556129993085,565.43110514,None,565.43110514,None,565.43110514,None,566.4827371189986,None,1,0.35126039600072545,566.4827371189986,None,42,566.850468916,None,120,B,1,2021_May_26_1622,GazeFlow,2020.1.2,59.9240967837217,
5,Block812.xls,B,12,2,3,3,None,congruent,Left,Left,Right,16,19,3,blue,2,6,/home/docky/apps/exp/images/16Bi.jpeg,/home/docky/apps/exp/images/19B.jpeg,0,4,4,4,0,1,1,1,567.85220243,None,567.85220243,None,1,3.975432703999104,567.85220243,None,571.860949939999,None,571.860949939999,None,574.3638407029994,None,574.3638407029994,None,0.86662602800061,576.167298291999,None,576.167298291999,None,6,1,1.0182350449995283,577.0204651259992,None,577.0204651259992,None,577.0204651259992,None,578.0551387099986,None,1,0.30038353800046025,578.0551387099986,None,44,578.372095576,None,120,B,1,2021_May_26_1622,GazeFlow,2020.1.2,59.9240967837217,
5,Block812.xls,B,12,3,56,56,None,congruent,Left,Left,Right,62,65,3,yellow,2,6,/home/docky/apps/exp/images/38Bi.jpeg,/home/docky/apps/exp/images/35B.jpeg,0,4,4,4,0,2,2,2,579.3743950119988,None,579.3743950119988,None,1,4.560345838999638,579.3743950119988,None,583.9692726529993,None,583.9692726529993,None,586.4724154529995,None,586.4724154529995,None,0.9498791819987673,588.2757411969997,None,588.2757411969997,None,6,1,3.5228716359997634,589.2107806289987,None,589.2107806289987,None,589.2107806289987,None,592.7504537589994,None,1,0.7358056930006569,592.7504537589994,None,46,593.502190457999,None,120,B,1,2021_May_26_1622,GazeFlow,2020.1.2,59.9240967837217,
5,Block812.xls,B,12,4,11,11,None,congruent,Left,Left,Right,38,39,1,blue,2,6,/home/docky/apps/exp/images/38B.jpeg,/home/docky/apps/exp/images/39Bi.jpeg,0,4,4,4,0,3,3,3,594.5042467489984,None,594.5042467489984,None,1,4.092035645000578,594.5042467489984,None,598.6294698289985,None,598.6294698289985,None,601.1377989579996,None,601.1377989579996,None,0.9498807889995078,602.9380940589999,None,602.9380940589999,None,6,1,1.0848884819988598,603.8725506369992,None,603.8725506369992,None,603.8725506369992,None,604.9742092289998,None,1,0.3673088599989569,604.9742092289998,None,48,605.3581829229988,None,120,B,1,2021_May_26_1622,GazeFlow,2020.1.2,59.9240967837217,
5,Block812.xls,B,12,5,116,20,None,incongruent,Left,Right,Left,35,33,2,yellow,2,5,/home/docky/apps/exp/images/35Yi.jpeg,/home/docky/apps/exp/images/33Y.jpeg,0,4,4,4,0,4,4,4,606.3600256829995,None,606.3600256829995,None,1,4.610817695000151,606.3600256829995,None,611.003813456,None,611.003813456,None,613.5070591049989,None,613.5070591049989,None,2.7041945019991545,615.3104237349999,None,615.3104237349999,None,5,1,1.937419645000773,618.0158494939988,None,618.0158494939988,None,618.0158494939988,None,619.9699578069994,None,1,0.46791363500051375,619.9699578069994,None,50,620.4541845929998,None,120,B,1,2021_May_26_1622,GazeFlow,2020.1.2,59.9240967837217,
5,Block812.xls,B,12,6,40,40,None,congruent,Right,Right,Left,79,76,3,blue,2,5,/home/docky/apps/exp/images/79Bi.jpeg,/home/docky/apps/exp/images/76B.jpeg,0,4,4,4,0,5,5,5,621.4565944679998,None,621.4565944679998,None,1,5.16039587799969,621.4565944679998,None,626.6501210079987,None,626.6501210079987,None,629.1539341299995,None,629.1539341299995,None,1.0838185560005513,630.9572182539996,None,630.9572182539996,None,5,1,1.0181272720001289,632.0273041639994,None,632.0273041639994,None,632.0273041639994,None,633.0618726369994,None,1,0.40162848199906875,633.0618726369994,None,52,633.4799633969997,None,120,B,1,2021_May_26_1622,GazeFlow,2020.1.2,59.9240967837217,
5,Block812.xls,B,12,7,76,76,None,congruent,Right,Right,Left,39,38,1,yellow,2,5,/home/docky/apps/exp/images/39Yi.jpeg,/home/docky/apps/exp/images/38Y.jpeg,0,4,4,4,0,6,6,6,634.481437082999,None,634.481437082999,None,1,4.258999558998767,634.481437082999,None,638.7741499229996,None,638.7741499229996,None,641.2830472159985,None,641.2830472159985,None,0.9835770839999896,643.0810364629997,None,643.0810364629997,None,6,0,1.0017967330004467,644.0505595719987,None,644.0505595719987,None,644.0505595719987,None,645.0687687649988,None,1,0.40127630599999975,645.0687687649988,None,50,645.4865597129992,None,120,B,1,2021_May_26_1622,GazeFlow,2020.1.2,59.9240967837217,
5,Block812.xls,B,12,8,77,77,None,congruent,Right,Right,Left,39,38,1,yellow,2,5,/home/docky/apps/exp/images/39Y.jpeg,/home/docky/apps/exp/images/38Yi.jpeg,0,4,4,4,0,7,7,7,646.4881488279989,None,646.4881488279989,None,1,4.342412259000412,646.4881488279989,None,650.8628997549986,None,650.8628997549986,None,653.3673153979998,None,653.3673153979998,None,1.1337522989997524,655.1704682229993,None,655.1704682229993,None,6,0,1.0016960939992714,656.2909273259993,None,656.2909273259993,None,656.2909273259993,None,657.3092748719992,None,1,0.5348956690013438,657.3092748719992,None,48,657.860426412999,None,120,B,1,2021_May_26_1622,GazeFlow,2020.1.2,59.9240967837217,
5,Block812.xls,B,,,,,,,,,,,,,,,,,,0,4,4,4,,,,,,,,,,,,,,,,,,,,,,,,,,,,,,,,,,,,,,,,,,,,120,B,1,2021_May_26_1622,GazeFlow,2020.1.2,59.9240967837217,
6,Block803.xls,B,3,1,84,84,None,congruent,Right,Right,Left,75,69,6,yellow,2,5,/home/docky/apps/exp/images/76Yi.jpeg,/home/docky/apps/exp/images/69Y.jpeg,0,5,5,5,0,0,0,0,677.5677837359999,None,677.5677837359999,None,1,4.895804776000659,677.5677837359999,None,682.4911607779995,None,682.4911607779995,None,685.013724598999,None,685.013724598999,None,0.9160150309999153,686.8114011399994,None,686.8114011399994,None,5,1,0.9513831490003213,687.7187491619989,None,687.7187491619989,None,687.7187491619989,None,688.6869675039998,None,1,0.40126352199877147,688.6869675039998,None,50,689.1047158689998,None,120,B,1,2021_May_26_1622,GazeFlow,2020.1.2,59.9240967837217,
6,Block803.xls,B,3,2,82,82,None,congruent,Right,Right,Left,66,65,1,yellow,2,5,/home/docky/apps/exp/images/66Y.jpeg,/home/docky/apps/exp/images/35Bi.jpeg,0,5,5,5,0,1,1,1,690.106067282999,None,690.106067282999,None,1,3.7919785439989937,690.106067282999,None,693.9314008369984,None,693.9314008369984,None,696.4363493789988,None,696.4363493789988,None,0.8667053090011905,698.2373213409992,None,698.2373213409992,None,5,1,0.9852249340001435,699.0907968709998,None,699.0907968709998,None,699.0907968709998,None,700.0923492809998,None,1,0.4006274309995206,700.0923492809998,None,52,700.5096921669992,None,120,B,1,2021_May_26_1622,GazeFlow,2020.1.2,59.9240967837217,
6,Block803.xls,B,3,3,80,80,None,congruent,Right,Right,Left,66,65,1,yellow,2,5,/home/docky/apps/exp/images/66Yi.jpeg,/home/docky/apps/exp/images/35B.jpeg,0,5,5,5,0,2,2,2,701.5115430289989,None,701.5115430289989,None,1,3.8753345509994688,701.5115430289989,None,705.4203871259997,None,705.4203871259997,None,707.9234847939988,None,707.9234847939988,None,1.016957910000201,709.7216506269997,None,709.7216506269997,None,5,1,1.0348090610004874,710.7302020629995,None,710.7302020629995,None,710.7302020629995,None,711.7816475499985,None,1,0.40142529900003865,711.7816475499985,None,54,712.1995325069984,None,120,B,1,2021_May_26_1622,GazeFlow,2020.1.2,59.9240967837217,
6,Block803.xls,B,3,4,79,79,None,congruent,Right,Right,Left,66,65,1,yellow,2,5,/home/docky/apps/exp/images/66Y.jpeg,/home/docky/apps/exp/images/35Bi.jpeg,0,5,5,5,0,3,3,3,713.2012704999997,None,713.2012704999997,None,1,3.841153254999881,713.2012704999997,None,717.0759938439987,None,717.0759938439987,None,719.579326617999,None,719.579326617999,None,1.3508380729999772,721.3829926559993,None,721.3829926559993,None,6,0,1.1356519710006978,722.7200836189986,None,722.7200836189986,None,722.7200836189986,None,723.8722627279985,None,1,0.4009469929987972,723.8722627279985,None,52,724.2896717329986,None,120,B,1,2021_May_26_1622,GazeFlow,2020.1.2,59.9240967837217,
6,Block803.xls,B,3,5,92,92,None,congruent,Right,Right,Left,77,72,5,yellow,2,5,/home/docky/apps/exp/images/77Y.jpeg,/home/docky/apps/exp/images/72Yi.jpeg,0,5,5,5,0,4,4,4,725.2910647289991,None,725.2910647289991,None,1,3.891780240999651,725.2910647289991,None,729.2148740459997,None,729.2148740459997,None,731.7199514579988,None,731.7199514579988,None,1.2172022230006405,733.5230409549986,None,733.5230409549986,None,5,1,0.9511867649998749,734.7267495589986,None,734.7267495589986,None,734.7267495589986,None,735.6946502069986,None,1,0.35142196499873535,735.6946502069986,None,54,736.0625337989986,None,120,B,1,2021_May_26_1622,GazeFlow,2020.1.2,59.9240967837217,
6,Block803.xls,B,3,6,106,10,None,incongruent,Left,Right,Left,79,76,3,blue,2,5,/home/docky/apps/exp/images/79Bi.jpeg,/home/docky/apps/exp/images/76B.jpeg,0,5,5,5,0,5,5,5,737.0639739809994,None,737.0639739809994,None,1,3.9583953069995914,737.0639739809994,None,741.0562892389989,None,741.0562892389989,None,743.5593130139987,None,743.5593130139987,None,1.0669328029998724,745.3624622799998,None,745.3624622799998,None,5,1,0.9679114909995405,746.4160574149992,None,746.4160574149992,None,746.4160574149992,None,747.4003816889999,None,1,0.43531048099976033,747.4003816889999,None,56,747.8521028719988,None,120,B,1,2021_May_26_1622,GazeFlow,2020.1.2,59.9240967837217,
6,Block803.xls,B,3,7,25,25,None,congruent,Right,Right,Left,19,16,3,blue,2,5,/home/docky/apps/exp/images/19Bi.jpeg,/home/docky/apps/exp/images/16B.jpeg,0,5,5,5,0,6,6,6,748.8534971099998,None,748.8534971099998,None,1,4.34308364699973,748.8534971099998,None,753.2297225459988,None,753.2297225459988,None,755.7345230949995,None,755.7345230949995,None,0.9000038729991502,757.5381022099991,None,757.5381022099991,None,5,1,0.9847342800003389,758.422703930999,None,758.422703930999,None,758.422703930999,None,759.4241110409985,None,1,0.3671617050003988,759.4241110409985,None,58,759.8084205639989,None,120,B,1,2021_May_26_1622,GazeFlow,2020.1.2,59.9240967837217,
6,Block803.xls,B,3,8,46,46,None,congruent,Right,Right,Left,39,38,1,blue,2,5,/home/docky/apps/exp/images/39B.jpeg,/home/docky/apps/exp/images/38Bi.jpeg,0,5,5,5,0,7,7,7,760.8100539529987,None,760.8100539529987,None,1,4.225671862001036,760.8100539529987,None,765.0718279529992,None,765.0718279529992,None,767.571962218999,None,767.571962218999,None,1.734975499999564,769.3750038769995,None,769.3750038769995,None,5,1,1.1523231600003783,771.0973100899992,None,771.0973100899992,None,771.0973100899992,None,772.2660891939995,None,1,0.38392433099943446,772.2660891939995,None,60,772.6666397569988,None,120,B,1,2021_May_26_1622,GazeFlow,2020.1.2,59.9240967837217,
6,Block803.xls,B,,,,,,,,,,,,,,,,,,0,5,5,5,,,,,,,,,,,,,,,,,,,,,,,,,,,,,,,,,,,,,,,,,,,,120,B,1,2021_May_26_1622,GazeFlow,2020.1.2,59.9240967837217,
7,Block810.xls,B,10,1,119,23,None,incongruent,Left,Right,Left,76,69,7,yellow,2,5,/home/docky/apps/exp/images/76Yi.jpeg,/home/docky/apps/exp/images/69Y.jpeg,0,6,6,6,0,0,0,0,795.0618853029991,None,795.0618853029991,None,1,5.335248117999072,795.0618853029991,None,800.419632662999,None,800.419632662999,None,802.9412758749986,None,802.9412758749986,None,0.8659961899993505,804.7407005679997,None,804.7407005679997,None,5,1,0.9849944779998623,805.597507945,None,805.597507945,None,805.597507945,None,806.5991676909998,None,1,0.38413414699971327,806.5991676909998,None,62,806.9998117710002,None,120,B,1,2021_May_26_1622,GazeFlow,2020.1.2,59.9240967837217,
7,Block810.xls,B,10,2,43,43,None,congruent,Right,Right,Left,83,80,3,blue,2,5,/home/docky/apps/exp/images/83B.jpeg,/home/docky/apps/exp/images/80Bi.jpeg,0,6,6,6,0,1,1,1,808.001727592,None,808.001727592,None,1,3.8750319259997923,808.001727592,None,811.9083240199998,None,811.9083240199998,None,814.4135352129997,None,814.4135352129997,None,0.9502281999994011,816.2166747349984,None,816.2166747349984,None,5,1,1.0681999849985004,817.1535239389996,None,817.1535239389996,None,817.1535239389996,None,818.2382798069993,None,1,0.351431130000492,818.2382798069993,None,64,818.6060685529992,None,120,B,1,2021_May_26_1622,GazeFlow,2020.1.2,59.9240967837217,
7,Block810.xls,B,10,3,53,53,None,congruent,Left,Left,Right,65,66,1,yellow,2,6,/home/docky/apps/exp/images/35Bi.jpeg,/home/docky/apps/exp/images/66Y.jpeg,0,6,6,6,0,2,2,2,819.6077798329989,None,819.6077798329989,None,1,3.924921154999538,819.6077798329989,None,823.5664411199996,None,823.5664411199996,None,826.0696591219985,None,826.0696591219985,None,0.8495841570002085,827.872856811,None,827.872856811,None,6,1,1.0520794320000277,828.7089552130001,None,828.7089552130001,None,828.7089552130001,None,829.7774251279989,None,1,0.33399629300038214,829.7774251279989,None,66,830.1278719209986,None,120,B,1,2021_May_26_1622,GazeFlow,2020.1.2,59.9240967837217,
7,Block810.xls,B,10,4,74,74,None,congruent,Right,Right,Left,35,33,2,yellow,2,5,/home/docky/apps/exp/images/35Y.jpeg,/home/docky/apps/exp/images/33Yi.jpeg,0,6,6,6,0,3,3,3,831.1301022979987,None,831.1301022979987,None,1,4.109339581000313,831.1301022979987,None,835.2726137109985,None,835.2726137109985,None,837.7751367429992,None,837.7751367429992,None,1.0336355939998612,839.578491029999,None,839.578491029999,None,5,1,0.9347822500003531,840.5988791149994,None,840.5988791149994,None,840.5988791149994,None,841.5502334499997,None,1,0.38475086700054817,841.5502334499997,None,68,841.9514759279991,None,120,B,1,2021_May_26_1622,GazeFlow,2020.1.2,59.9240967837217,
7,Block810.xls,B,10,5,21,21,None,congruent,Left,Left,Right,76,79,3,blue,2,6,/home/docky/apps/exp/images/76B.jpeg,/home/docky/apps/exp/images/79Bi.jpeg,0,6,6,6,0,4,4,4,842.953171580999,None,842.953171580999,None,1,3.7578167900010158,842.953171580999,None,846.7446645999989,None,846.7446645999989,None,849.2483120359993,None,849.2483120359993,None,0.9665854790000594,851.0517518349989,None,851.0517518349989,None,6,1,1.00155957700008,852.0043087220001,None,852.0043087220001,None,852.0043087220001,None,853.022411382999,None,1,0.33388182499948016,853.022411382999,None,70,853.3729432829987,None,120,B,1,2021_May_26_1622,GazeFlow,2020.1.2,59.9240967837217,
7,Block810.xls,B,10,6,85,85,None,congruent,Right,Right,Left,75,69,6,yellow,2,5,/home/docky/apps/exp/images/76Y.jpeg,/home/docky/apps/exp/images/69Yi.jpeg,0,6,6,6,0,5,5,5,854.3753276899988,None,854.3753276899988,None,1,3.5746729710008367,854.3753276899988,None,857.9831522899985,None,857.9831522899985,None,860.4863389809998,None,860.4863389809998,None,0.9669509289997222,862.2898971899995,None,862.2898971899995,None,5,1,1.0180634370008192,863.2431407299991,None,863.2431407299991,None,863.2431407299991,None,864.2777996079985,None,1,0.3683531530004984,864.2777996079985,None,72,864.6621743649994,None,120,B,1,2021_May_26_1622,GazeFlow,2020.1.2,59.9240967837217,
7,Block810.xls,B,10,7,49,49,None,congruent,Left,Left,Right,33,35,2,yellow,2,6,/home/docky/apps/exp/images/33Yi.jpeg,/home/docky/apps/exp/images/35Y.jpeg,0,6,6,6,0,6,6,6,865.6636972779997,None,865.6636972779997,None,1,4.125975811999524,865.6636972779997,None,869.8227920519985,None,869.8227920519985,None,872.3259162149989,None,872.3259162149989,None,0.8497476350003126,874.1293138769997,None,874.1293138769997,None,6,1,1.0348728000008123,874.9659041119994,None,874.9659041119994,None,874.9659041119994,None,876.0173068039985,None,1,0.3672712949992274,876.0173068039985,None,74,876.4013943399987,None,120,B,1,2021_May_26_1622,GazeFlow,2020.1.2,59.9240967837217,
7,Block810.xls,B,10,8,63,63,None,congruent,Left,Left,Right,38,39,1,yellow,2,6,/home/docky/apps/exp/images/38Y.jpeg,/home/docky/apps/exp/images/39Yi.jpeg,0,6,6,6,0,7,7,7,877.4034577179991,None,877.4034577179991,None,1,4.242165183000907,877.4034577179991,None,881.679183971999,None,881.679183971999,None,884.1819653069997,None,884.1819653069997,None,0.8998064480001631,885.9855569329993,None,885.9855569329993,None,6,1,1.0016991599986795,886.8722361639993,None,886.8722361639993,None,886.8722361639993,None,887.8902915359995,None,1,0.33414752800126735,887.8902915359995,None,76,888.2408614219985,None,120,B,1,2021_May_26_1622,GazeFlow,2020.1.2,59.9240967837217,
7,Block810.xls,B,,,,,,,,,,,,,,,,,,0,6,6,6,,,,,,,,,,,,,,,,,,,,,,,,,,,,,,,,,,,,,,,,,,,,120,B,1,2021_May_26_1622,GazeFlow,2020.1.2,59.9240967837217,
8,Block801.xls,B,1,1,1,1,None,congruent,Left,Left,Right,16,19,3,blue,2,6,/home/docky/apps/exp/images/16Bi.jpeg,/home/docky/apps/exp/images/19B.jpeg,0,7,7,7,0,0,0,0,932.1451980000002,None,932.1451980000002,None,1,4.9128803799994785,932.1451980000002,None,937.088978972999,None,937.088978972999,None,939.6083339779998,None,939.6083339779998,None,0.8659582939999382,941.412013616,None,941.412013616,None,6,1,1.034742792000543,942.263138151,None,942.263138151,None,942.263138151,None,943.3144099879992,None,1,0.3678634730003978,943.3144099879992,None,78,943.6985714729999,None,120,B,1,2021_May_26_1622,GazeFlow,2020.1.2,59.9240967837217,
8,Block801.xls,B,1,2,105,9,None,incongruent,Left,Right,Left,79,73,6,blue,2,5,/home/docky/apps/exp/images/79B.jpeg,/home/docky/apps/exp/images/73Bi.jpeg,0,7,7,7,0,1,1,1,944.7005907489984,None,944.7005907489984,None,1,3.9250165359990206,944.7005907489984,None,948.6594062269996,None,948.6594062269996,None,951.1622361989994,None,951.1622361989994,None,1.0512627829994017,952.9672537839997,None,952.9672537839997,None,5,1,1.0020485040004132,954.0025523439999,None,954.0025523439999,None,954.0025523439999,None,955.0206112129999,None,1,0.40171837200068694,955.0206112129999,None,80,955.4384629019987,None,120,B,1,2021_May_26_1622,GazeFlow,2020.1.2,59.9240967837217,
8,Block801.xls,B,1,3,62,62,None,congruent,Left,Left,Right,38,39,1,yellow,2,6,/home/docky/apps/exp/images/38Y.jpeg,/home/docky/apps/exp/images/39Yi.jpeg,0,7,7,7,0,2,2,2,956.4399168629989,None,956.4399168629989,None,1,4.009110639000937,956.4399168629989,None,960.4823093159994,None,960.4823093159994,None,962.9854232859998,None,962.9854232859998,None,0.9166349150000315,964.7836393189991,None,964.7836393189991,None,6,1,1.10171484500097,965.6918584239993,None,965.6918584239993,None,965.6918584239993,None,966.8102554519992,None,1,0.36789558099917485,966.8102554519992,None,82,967.1947043879991,None,120,B,1,2021_May_26_1622,GazeFlow,2020.1.2,59.9240967837217,
8,Block801.xls,B,1,4,38,38,None,congruent,Right,Right,Left,79,73,6,blue,2,5,/home/docky/apps/exp/images/79B.jpeg,/home/docky/apps/exp/images/73Bi.jpeg,0,7,7,7,0,3,3,3,968.1964105609986,None,968.1964105609986,None,1,4.058378407999044,968.1964105609986,None,972.2855954229999,None,972.2855954229999,None,974.7912156409984,None,974.7912156409984,None,0.9836798859996634,976.5952113200001,None,976.5952113200001,None,5,1,1.018404639999062,977.5651584999996,None,977.5651584999996,None,977.5651584999996,None,978.5997193479998,None,1,0.3848088859995187,978.5997193479998,None,84,979.0009715109991,None,120,B,1,2021_May_26_1622,GazeFlow,2020.1.2,59.9240967837217,
8,Block801.xls,B,1,5,6,6,None,congruent,Left,Left,Right,35,38,3,blue,2,6,/home/docky/apps/exp/images/35Bi.jpeg,/home/docky/apps/exp/images/38B.jpeg,0,7,7,7,0,4,4,4,980.002447326,None,980.002447326,None,1,4.77732462899985,980.002447326,None,984.8127573169986,None,984.8127573169986,None,987.3155469309986,None,987.3155469309986,None,1.0502324650005903,989.1192473759984,None,989.1192473759984,None,6,1,1.001707276000161,990.1560473809986,None,990.1560473809986,None,990.1560473809986,None,991.1741697849993,None,1,0.3679790040005173,991.1741697849993,None,86,991.5586821279994,None,120,B,1,2021_May_26_1622,GazeFlow,2020.1.2,59.9240967837217,
8,Block801.xls,B,1,6,51,51,None,congruent,Left,Left,Right,33,35,2,yellow,2,6,/home/docky/apps/exp/images/33Yi.jpeg,/home/docky/apps/exp/images/35Y.jpeg,0,7,7,7,0,5,5,5,992.5604074980001,None,992.5604074980001,None,1,4.342253486000118,992.5604074980001,None,996.9398975819986,None,996.9398975819986,None,999.4441520249984,None,999.4441520249984,None,0.8165488200011168,1001.2416341689986,None,1001.2416341689986,None,6,1,1.0346967799996492,1002.0458895920001,None,1002.0458895920001,None,1002.0458895920001,None,1003.0973019469984,None,1,0.3677494290004688,1003.0973019469984,None,88,1003.4814033359999,None,120,B,1,2021_May_26_1622,GazeFlow,2020.1.2,59.9240967837217,
8,Block801.xls,B,1,7,73,73,None,congruent,Right,Right,Left,35,33,2,yellow,2,5,/home/docky/apps/exp/images/35Yi.jpeg,/home/docky/apps/exp/images/33Y.jpeg,0,7,7,7,0,6,6,6,1004.4833467729986,None,1004.4833467729986,None,1,4.125953335000304,1004.4833467729986,None,1008.6424586180001,None,1008.6424586180001,None,1011.147089963999,None,1011.147089963999,None,0.8658282899996266,1012.9492373149988,None,1012.9492373149988,None,5,1,0.9845964960004494,1013.8021276769996,None,1013.8021276769996,None,1013.8021276769996,None,1014.8035326019999,None,1,0.38395259999924747,1014.8035326019999,None,90,1015.2045845510002,None,120,B,1,2021_May_26_1622,GazeFlow,2020.1.2,59.9240967837217,
8,Block801.xls,B,1,8,96,96,None,congruent,Right,Right,Left,80,79,1,yellow,2,5,/home/docky/apps/exp/images/80Yi.jpeg,/home/docky/apps/exp/images/79Y.jpeg,0,7,7,7,0,7,7,7,1016.2061670169987,None,1016.2061670169987,None,1,4.592938030000369,1016.2061670169987,None,1020.8327816579986,None,1020.8327816579986,None,1023.3354875289988,None,1023.3354875289988,None,1.0503770590003114,1025.1389658459993,None,1025.1389658459993,None,5,1,1.0685784079996665,1026.1758399029986,None,1026.1758399029986,None,1026.1758399029986,None,1027.2607127489991,None,1,0.3682881919994543,1027.2607127489991,None,92,1027.6454420789996,None,120,B,1,2021_May_26_1622,GazeFlow,2020.1.2,59.9240967837217,
8,Block801.xls,B,,,,,,,,,,,,,,,,,,0,7,7,7,,,,,,,,,,,,,,,,,,,,,,,,,,,,,,,,,,,,,,,,,,,,120,B,1,2021_May_26_1622,GazeFlow,2020.1.2,59.9240967837217,
9,Block802.xls,B,2,1,30,30,None,congruent,Right,Right,Left,38,35,3,blue,2,5,/home/docky/apps/exp/images/38B.jpeg,/home/docky/apps/exp/images/35Bi.jpeg,0,8,8,8,0,0,0,0,1045.8643405029998,None,1045.8643405029998,None,1,4.881528355999762,1045.8643405029998,None,1050.7716938349986,None,1050.7716938349986,None,1053.296087671999,None,1053.296087671999,None,1.4337101300006907,1055.0992534959987,None,1055.0992534959987,None,5,1,1.1193170719998307,1056.5182861619996,None,1056.5182861619996,None,1056.5182861619996,None,1057.6534227949996,None,1,0.4510511989992665,1057.6534227949996,None,94,1058.1208700789994,None,120,B,1,2021_May_26_1622,GazeFlow,2020.1.2,59.9240967837217,
9,Block802.xls,B,2,2,5,5,None,congruent,Left,Left,Right,35,38,3,blue,2,6,/home/docky/apps/exp/images/35B.jpeg,/home/docky/apps/exp/images/38Bi.jpeg,0,8,8,8,0,1,1,1,1059.1227567839996,None,1059.1227567839996,None,1,4.376285614998778,1059.1227567839996,None,1063.5323759959992,None,1063.5323759959992,None,1066.0349368919997,None,1066.0349368919997,None,0.8834973970006104,1067.8365281709994,None,1067.8365281709994,None,6,1,1.0014604129992222,1068.7086284319994,None,1068.7086284319994,None,1068.7086284319994,None,1069.7267140669992,None,1,0.3677141349999147,1069.7267140669992,None,96,1070.1107395169984,None,120,B,1,2021_May_26_1622,GazeFlow,2020.1.2,59.9240967837217,
9,Block802.xls,B,2,3,103,7,None,incongruent,Left,Right,Left,19,16,3,blue,2,5,/home/docky/apps/exp/images/19Bi.jpeg,/home/docky/apps/exp/images/16B.jpeg,0,8,8,8,0,2,2,2,1071.1128273939994,None,1071.1128273939994,None,1,3.9750219819998165,1071.1128273939994,None,1075.1217557619984,None,1075.1217557619984,None,1077.6262421430001,None,1077.6262421430001,None,0.9003971229994931,1079.42828491,None,1079.42828491,None,5,1,1.001673385999311,1080.3144980729994,None,1080.3144980729994,None,1080.3144980729994,None,1081.332403945,None,1,0.3509257700006856,1081.332403945,None,98,1081.700258044999,None,120,B,1,2021_May_26_1622,GazeFlow,2020.1.2,59.9240967837217,
9,Block802.xls,B,2,4,35,35,None,congruent,Right,Right,Left,66,65,1,blue,2,5,/home/docky/apps/exp/images/66B.jpeg,/home/docky/apps/exp/images/35Yi.jpeg,0,8,8,8,0,3,3,3,1082.7019672779988,None,1082.7019672779988,None,1,4.00842263100094,1082.7019672779988,None,1086.7500021309988,None,1086.7500021309988,None,1089.249117199999,None,1089.249117199999,None,1.0003541209989635,1091.0509172469992,None,1091.0509172469992,None,5,1,1.0019324200002302,1092.0372036709996,None,1092.0372036709996,None,1092.0372036709996,None,1093.0555383449991,None,1,0.4179659619985614,1093.0555383449991,None,100,1093.4900613739992,None,120,B,1,2021_May_26_1622,GazeFlow,2020.1.2,59.9240967837217,
9,Block802.xls,B,2,5,42,42,None,congruent,Right,Right,Left,83,80,3,blue,2,5,/home/docky/apps/exp/images/83Bi.jpeg,/home/docky/apps/exp/images/80B.jpeg,0,8,8,8,0,4,4,4,1094.4915674069998,None,1094.4915674069998,None,1,3.9756194700003107,1094.4915674069998,None,1098.500302499,None,1098.500302499,None,1101.0051806339998,None,1101.0051806339998,None,0.9997958679996373,1102.801687997,None,1102.801687997,None,5,1,0.9516032960000302,1103.793310183999,None,1103.793310183999,None,1103.793310183999,None,1104.761380762,None,1,0.3511677949991281,1104.761380762,None,102,1105.1293613279995,None,120,B,1,2021_May_26_1622,GazeFlow,2020.1.2,59.9240967837217,
9,Block802.xls,B,2,6,104,8,None,incongruent,Left,Right,Left,38,35,3,blue,2,5,/home/docky/apps/exp/images/38B.jpeg,/home/docky/apps/exp/images/35Bi.jpeg,0,8,8,8,0,5,5,5,1106.1307656699992,None,1106.1307656699992,None,1,3.774874048998754,1106.1307656699992,None,1109.9393852199992,None,1109.9393852199992,None,1112.442269751,None,1112.442269751,None,1.2008107590008876,1114.244640854,None,1114.244640854,None,5,1,1.5700533419985732,1115.432777730999,None,1115.432777730999,None,1115.432777730999,None,1117.0191578209997,None,1,0.450271484998666,1117.0191578209997,None,104,1117.4861435519997,None,120,B,1,2021_May_26_1622,GazeFlow,2020.1.2,59.9240967837217,
9,Block802.xls,B,2,7,22,22,None,congruent,Left,Left,Right,80,83,3,blue,2,6,/home/docky/apps/exp/images/80Bi.jpeg,/home/docky/apps/exp/images/83B.jpeg,0,8,8,8,0,6,6,6,1118.4881861459999,None,1118.4881861459999,None,1,5.328125187999831,1118.4881861459999,None,1123.849483734999,None,1123.849483734999,None,1126.352699617999,None,1126.352699617999,None,1.0667567289983708,1128.1557344659996,None,1128.1557344659996,None,6,1,1.0680185569999594,1129.2096488949992,None,1129.2096488949992,None,1129.2096488949992,None,1130.2944408989988,None,1,0.33483030600109487,1130.2944408989988,None,106,1130.6454300309997,None,120,B,1,2021_May_26_1622,GazeFlow,2020.1.2,59.9240967837217,
9,Block802.xls,B,2,8,54,54,None,congruent,Left,Left,Right,65,66,1,yellow,2,6,/home/docky/apps/exp/images/35Bi.jpeg,/home/docky/apps/exp/images/66Y.jpeg,0,8,8,8,0,7,7,7,1131.6471257499998,None,1131.6471257499998,None,1,3.858645959000569,1131.6471257499998,None,1135.5390077339998,None,1135.5390077339998,None,1138.0437388179998,None,1138.0437388179998,None,0.8503625859993917,1139.8429848529995,None,1139.8429848529995,None,5,0,0.9850617060001241,1140.6817969149997,None,1140.6817969149997,None,1140.6817969149997,None,1141.6831978579994,None,1,0.3675404800014803,1141.6831978579994,None,104,1142.0673423119988,None,120,B,1,2021_May_26_1622,GazeFlow,2020.1.2,59.9240967837217,
9,Block802.xls,B,,,,,,,,,,,,,,,,,,0,8,8,8,,,,,,,,,,,,,,,,,,,,,,,,,,,,,,,,,,,,,,,,,,,,120,B,1,2021_May_26_1622,GazeFlow,2020.1.2,59.9240967837217,
10,Block813.xls,B,13,1,70,70,None,congruent,Left,Left,Right,79,82,3,yellow,2,6,/home/docky/apps/exp/images/79Yi.jpeg,/home/docky/apps/exp/images/80Y.jpeg,0,9,9,9,0,0,0,0,1163.2278846239988,None,1163.2278846239988,None,1,4.496690875999775,1163.2278846239988,None,1167.7510768749999,None,1167.7510768749999,None,1170.2713108909993,None,1170.2713108909993,None,0.982883814998786,1172.0766305819998,None,1172.0766305819998,None,5,0,1.302060691999941,1173.0446717549985,None,1173.0446717549985,None,1173.0446717549985,None,1174.3632133759984,None,1,0.4348811560012109,1174.3632133759984,None,102,1174.814595672,None,120,B,1,2021_May_26_1622,GazeFlow,2020.1.2,59.9240967837217,
10,Block813.xls,B,13,2,60,60,None,congruent,Left,Left,Right,38,39,1,yellow,2,6,/home/docky/apps/exp/images/38Yi.jpeg,/home/docky/apps/exp/images/39Y.jpeg,0,9,9,9,0,1,1,1,1175.8161144739988,None,1175.8161144739988,None,1,4.075281696999809,1175.8161144739988,None,1179.9249355449992,None,1179.9249355449992,None,1182.4279496769996,None,1182.4279496769996,None,0.8664600969987077,1184.231145615,None,1184.231145615,None,6,1,0.8847953530002997,1185.0847229599985,None,1185.0847229599985,None,1185.0847229599985,None,1185.9857629239996,None,1,0.3342214949989284,1185.9857629239996,None,104,1186.3367329409994,None,120,B,1,2021_May_26_1622,GazeFlow,2020.1.2,59.9240967837217,
10,Block813.xls,B,13,3,81,81,None,congruent,Right,Right,Left,66,65,1,yellow,2,5,/home/docky/apps/exp/images/66Y.jpeg,/home/docky/apps/exp/images/35Bi.jpeg,0,9,9,9,0,2,2,2,1187.3386339219996,None,1187.3386339219996,None,1,3.658042482999008,1187.3386339219996,None,1191.0320432949993,None,1191.0320432949993,None,1193.5349929779986,None,1193.5349929779986,None,0.7829412369992497,1195.3367161369988,None,1195.3367161369988,None,5,1,1.0181015689995547,1196.1061979829992,None,1196.1061979829992,None,1196.1061979829992,None,1197.140632867,None,1,0.3175133469994762,1197.140632867,None,106,1197.474753684999,None,120,B,1,2021_May_26_1622,GazeFlow,2020.1.2,59.9240967837217,
10,Block813.xls,B,13,4,110,14,None,incongruent,Right,Left,Right,65,66,1,yellow,2,6,/home/docky/apps/exp/images/35B.jpeg,/home/docky/apps/exp/images/66Yi.jpeg,0,9,9,9,0,3,3,3,1198.4771415729992,None,1198.4771415729992,None,1,3.8248115829992457,1198.4771415729992,None,1202.3354242639998,None,1202.3354242639998,None,1204.840848632999,None,1204.840848632999,None,0.8496675259993935,1206.6361883909995,None,1206.6361883909995,None,6,1,1.03483586099901,1207.4781173499996,None,1207.4781173499996,None,1207.4781173499996,None,1208.5297005510001,None,1,0.317343228000027,1208.5297005510001,None,108,1208.8641063689993,None,120,B,1,2021_May_26_1622,GazeFlow,2020.1.2,59.9240967837217,
10,Block813.xls,B,13,5,17,17,None,congruent,Left,Left,Right,73,76,3,blue,2,6,/home/docky/apps/exp/images/73Bi.jpeg,/home/docky/apps/exp/images/76B.jpeg,0,9,9,9,0,4,4,4,1209.8655408239993,None,1209.8655408239993,None,1,4.242294186000436,1209.8655408239993,None,1214.1415601139997,None,1214.1415601139997,None,1216.6448569019994,None,1216.6448569019994,None,0.8663259479999397,1218.4480770049995,None,1218.4480770049995,None,6,1,0.9682182359993021,1219.3009729179994,None,1219.3009729179994,None,1219.3009729179994,None,1220.2858975109993,None,1,0.36728485799903865,1220.2858975109993,None,110,1220.6698250929985,None,120,B,1,2021_May_26_1622,GazeFlow,2020.1.2,59.9240967837217,
10,Block813.xls,B,13,6,111,15,None,incongruent,Right,Left,Right,62,65,3,yellow,2,6,/home/docky/apps/exp/images/38B.jpeg,/home/docky/apps/exp/images/35Bi.jpeg,0,9,9,9,0,5,5,5,1221.672051862999,None,1221.672051862999,None,1,3.6914634029999434,1221.672051862999,None,1225.3968769169987,None,1225.3968769169987,None,1227.8998143629997,None,1227.8998143629997,None,0.8329322330009745,1229.6982672719987,None,1229.6982672719987,None,6,1,1.0183236909997504,1230.5228147419984,None,1230.5228147419984,None,1230.5228147419984,None,1231.557687856999,None,1,0.30114510000021255,1231.557687856999,None,112,1231.8749082309987,None,120,B,1,2021_May_26_1622,GazeFlow,2020.1.2,59.9240967837217,
10,Block813.xls,B,13,7,55,55,None,congruent,Left,Left,Right,65,66,1,yellow,2,6,/home/docky/apps/exp/images/35B.jpeg,/home/docky/apps/exp/images/66Yi.jpeg,0,9,9,9,0,6,6,6,1232.8769714189984,None,1232.8769714189984,None,1,3.6577698590008367,1232.8769714189984,None,1236.5669153789986,None,1236.5669153789986,None,1239.0717328350001,None,1239.0717328350001,None,0.9667629209998267,1240.8748535589984,None,1240.8748535589984,None,6,1,0.9345816629993351,1241.8282518899996,None,1241.8282518899996,None,1241.8282518899996,None,1242.7793867089986,None,1,0.317565432000265,1242.7793867089986,None,114,1243.1134640889995,None,120,B,1,2021_May_26_1622,GazeFlow,2020.1.2,59.9240967837217,
10,Block813.xls,B,13,8,26,26,None,congruent,Right,Right,Left,19,16,3,blue,2,5,/home/docky/apps/exp/images/19B.jpeg,/home/docky/apps/exp/images/16Bi.jpeg,0,9,9,9,0,7,7,7,1244.1156533309986,None,1244.1156533309986,None,1,4.024711443000342,1244.1156533309986,None,1248.172734804999,None,1248.172734804999,None,1250.6771557339998,None,1250.6771557339998,None,0.7831795260008221,1252.4814139659993,None,1252.4814139659993,None,5,1,0.9177691379991302,1253.2504911729993,None,1253.2504911729993,None,1253.2504911729993,None,1254.1848585119988,None,1,0.3844764569985273,1254.1848585119988,None,116,1254.5855716369988,None,120,B,1,2021_May_26_1622,GazeFlow,2020.1.2,59.9240967837217,
10,Block813.xls,B,,,,,,,,,,,,,,,,,,0,9,9,9,,,,,,,,,,,,,,,,,,,,,,,,,,,,,,,,,,,,,,,,,,,,120,B,1,2021_May_26_1622,GazeFlow,2020.1.2,59.9240967837217,
11,Block806.xls,B,6,1,10,10,None,congruent,Left,Left,Right,65,66,1,blue,2,6,/home/docky/apps/exp/images/35Y.jpeg,/home/docky/apps/exp/images/66Bi.jpeg,0,10,10,10,0,0,0,0,1276.680742613,None,1276.680742613,None,1,4.498301473999163,1276.680742613,None,1281.2027824999986,None,1281.2027824999986,None,1283.726714651999,None,1283.726714651999,None,0.7989267850007309,1285.5287086159988,None,1285.5287086159988,None,6,1,1.0177745630007848,1286.31467591,None,1286.31467591,None,1286.31467591,None,1287.3493252489989,None,1,0.3673369640000601,1287.3493252489989,None,118,1287.7336711429998,None,120,B,1,2021_May_26_1622,GazeFlow,2020.1.2,59.9240967837217,
11,Block806.xls,B,6,2,89,89,None,congruent,Right,Right,Left,76,69,7,yellow,2,5,/home/docky/apps/exp/images/76Yi.jpeg,/home/docky/apps/exp/images/69Y.jpeg,0,10,10,10,0,1,1,1,1288.7353490819987,None,1288.7353490819987,None,1,4.376501503000327,1288.7353490819987,None,1293.1451583859998,None,1293.1451583859998,None,1295.6484292320001,None,1295.6484292320001,None,0.8160743610005738,1297.4517848779997,None,1297.4517848779997,None,5,1,1.001225379999596,1298.2543461159985,None,1298.2543461159985,None,1298.2543461159985,None,1299.2724432309988,None,1,0.35095434399954684,1299.2724432309988,None,120,1299.639908527999,None,120,B,1,2021_May_26_1622,GazeFlow,2020.1.2,59.9240967837217,
11,Block806.xls,B,6,3,88,88,None,congruent,Right,Right,Left,76,69,7,yellow,2,5,/home/docky/apps/exp/images/76Y.jpeg,/home/docky/apps/exp/images/69Yi.jpeg,0,10,10,10,0,2,2,2,1300.6419442139995,None,1300.6419442139995,None,1,3.858546411000134,1300.6419442139995,None,1304.5339116169998,None,1304.5339116169998,None,1307.0372243519996,None,1307.0372243519996,None,0.8163772220013925,1308.8384469059984,None,1308.8384469059984,None,5,1,0.9178951929989125,1309.643344737,None,1309.643344737,None,1309.643344737,None,1310.5777591649985,None,1,0.33430515700092656,1310.5777591649985,None,122,1310.928617010999,None,120,B,1,2021_May_26_1622,GazeFlow,2020.1.2,59.9240967837217,
11,Block806.xls,B,6,4,109,13,None,incongruent,Right,Left,Right,33,35,2,yellow,2,6,/home/docky/apps/exp/images/33Yi.jpeg,/home/docky/apps/exp/images/35Y.jpeg,0,10,10,10,0,3,3,3,1311.9303218679997,None,1311.9303218679997,None,1,3.8422187699998176,1311.9303218679997,None,1315.8057431079997,None,1315.8057431079997,None,1318.308655421999,None,1318.308655421999,None,0.8836330070007534,1320.1121576770001,None,1320.1121576770001,None,6,1,0.9514548129991454,1320.981950260999,None,1320.981950260999,None,1320.981950260999,None,1321.9498406289986,None,1,0.3007850409994717,1321.9498406289986,None,124,1322.2670916529987,None,120,B,1,2021_May_26_1622,GazeFlow,2020.1.2,59.9240967837217,
11,Block806.xls,B,6,5,37,37,None,congruent,Right,Right,Left,79,73,6,blue,2,5,/home/docky/apps/exp/images/79Bi.jpeg,/home/docky/apps/exp/images/73B.jpeg,0,10,10,10,0,4,4,4,1323.2691990799995,None,1323.2691990799995,None,1,3.908209989998795,1323.2691990799995,None,1327.2111286929994,None,1327.2111286929994,None,1329.7137762169987,None,1329.7137762169987,None,0.7663694509992638,1331.5171666239985,None,1331.5171666239985,None,5,1,0.9182068690006417,1332.2705719019996,None,1332.2705719019996,None,1332.2705719019996,None,1333.2048150619994,None,1,0.33517869200113637,1333.2048150619994,None,126,1333.5556965569995,None,120,B,1,2021_May_26_1622,GazeFlow,2020.1.2,59.9240967837217,
11,Block806.xls,B,6,6,108,12,None,incongruent,Left,Right,Left,39,38,1,blue,2,5,/home/docky/apps/exp/images/39Bi.jpeg,/home/docky/apps/exp/images/38B.jpeg,0,10,10,10,0,5,5,5,1334.5575901679986,None,1334.5575901679986,None,1,3.959022779999941,1334.5575901679986,None,1338.5506701529994,None,1338.5506701529994,None,1341.0531023939984,None,1341.0531023939984,None,0.7831554980002693,1342.856275242999,None,1342.856275242999,None,6,0,0.8677575120000256,1343.6259375109985,None,1343.6259375109985,None,1343.6259375109985,None,1344.5103247389998,None,1,0.33417619799911336,1344.5103247389998,None,124,1344.8610255039985,None,120,B,1,2021_May_26_1622,GazeFlow,2020.1.2,59.9240967837217,
11,Block806.xls,B,6,7,52,52,None,congruent,Left,Left,Right,65,66,1,yellow,2,6,/home/docky/apps/exp/images/35B.jpeg,/home/docky/apps/exp/images/66Yi.jpeg,0,10,10,10,0,6,6,6,1345.8629762069995,None,1345.8629762069995,None,1,4.208914516999357,1345.8629762069995,None,1350.105681354,None,1350.105681354,None,1352.6106256349995,None,1352.6106256349995,None,0.8331351100005122,1354.412116824,None,1354.412116824,None,5,0,1.469064642000376,1355.2319337099998,None,1355.2319337099998,None,1355.2319337099998,None,1356.7172527599996,None,1,0.41830350999953225,1356.7172527599996,None,122,1357.1520360779996,None,120,B,1,2021_May_26_1622,GazeFlow,2020.1.2,59.9240967837217,
11,Block806.xls,B,6,8,75,75,None,congruent,Right,Right,Left,35,33,2,yellow,2,5,/home/docky/apps/exp/images/35Yi.jpeg,/home/docky/apps/exp/images/33Y.jpeg,0,10,10,10,0,7,7,7,1358.1533214809988,None,1358.1533214809988,None,1,5.027360452999346,1358.1533214809988,None,1363.214546928999,None,1363.214546928999,None,1365.7192207729986,None,1365.7192207729986,None,1.467630139000903,1367.5208531539993,None,1367.5208531539993,None,6,0,1.0524758129995462,1368.9752521239989,None,1368.9752521239989,None,1368.9752521239989,None,1370.0437895409996,None,1,0.33457119400009105,1370.0437895409996,None,120,1370.3943989079999,None,120,B,1,2021_May_26_1622,GazeFlow,2020.1.2,59.9240967837217,
11,Block806.xls,B,,,,,,,,,,,,,,,,,,0,10,10,10,,,,,,,,,,,,,,,,,,,,,,,,,,,,,,,,,,,,,,,,,,,,120,B,1,2021_May_26_1622,GazeFlow,2020.1.2,59.9240967837217,
12,Block811.xls,B,11,1,86,86,None,congruent,Right,Right,Left,75,69,6,yellow,2,5,/home/docky/apps/exp/images/76Y.jpeg,/home/docky/apps/exp/images/69Yi.jpeg,0,11,11,11,0,0,0,0,1393.5073778549995,None,1393.5073778549995,None,1,5.264537366998411,1393.5073778549995,None,1398.8026469779998,None,1398.8026469779998,None,1401.3219940279996,None,1401.3219940279996,None,0.8657829860003403,1403.125319633,None,1403.125319633,None,5,1,1.0347259979989758,1403.9764883669995,None,1403.9764883669995,None,1403.9764883669995,None,1405.0278770059995,None,1,0.3513162409999495,1405.0278770059995,None,122,1405.3956659389987,None,120,B,1,2021_May_26_1622,GazeFlow,2020.1.2,59.9240967837217,
12,Block811.xls,B,11,2,83,83,None,congruent,Right,Right,Left,75,69,6,yellow,2,5,/home/docky/apps/exp/images/76Yi.jpeg,/home/docky/apps/exp/images/69Y.jpeg,0,11,11,11,0,1,1,1,1406.397381416,None,1406.397381416,None,1,3.6743960919993697,1406.397381416,None,1410.1055071299998,None,1410.1055071299998,None,1412.6087702679997,None,1412.6087702679997,None,0.7667088830003195,1414.4120196179992,None,1414.4120196179992,None,5,1,0.9513259659997857,1415.1648742919988,None,1415.1648742919988,None,1415.1648742919988,None,1416.1329238849994,None,1,0.3675707889997284,1416.1329238849994,None,124,1416.516623387999,None,120,B,1,2021_May_26_1622,GazeFlow,2020.1.2,59.9240967837217,
12,Block811.xls,B,11,3,28,28,None,congruent,Right,Right,Left,38,35,3,blue,2,5,/home/docky/apps/exp/images/38Bi.jpeg,/home/docky/apps/exp/images/35B.jpeg,0,11,11,11,0,2,2,2,1417.518850094999,None,1417.518850094999,None,1,3.8752179149996664,1417.518850094999,None,1421.4275955229987,None,1421.4275955229987,None,1423.9305131559995,None,1423.9305131559995,None,0.9001085260006221,1425.7283202259987,None,1425.7283202259987,None,5,1,0.9846538159999909,1426.6205249719987,None,1426.6205249719987,None,1426.6205249719987,None,1427.621634576999,None,1,0.3849133489984524,1427.621634576999,None,126,1428.0228449789993,None,120,B,1,2021_May_26_1622,GazeFlow,2020.1.2,59.9240967837217,
12,Block811.xls,B,11,4,58,58,None,congruent,Left,Left,Right,62,65,3,yellow,2,6,/home/docky/apps/exp/images/38B.jpeg,/home/docky/apps/exp/images/35Bi.jpeg,0,11,11,11,0,3,3,3,1429.0244213400001,None,1429.0244213400001,None,1,4.025098097999944,1429.0244213400001,None,1433.0816630689988,None,1433.0816630689988,None,1435.591008035999,None,1435.591008035999,None,0.8001541630001157,1437.3891881529998,None,1437.3891881529998,None,6,1,1.0180629210008192,1438.1761779499993,None,1438.1761779499993,None,1438.1761779499993,None,1439.2110465360001,None,1,0.30075197699989076,1439.2110465360001,None,128,1439.5283139559997,None,120,B,1,2021_May_26_1622,GazeFlow,2020.1.2,59.9240967837217,
12,Block811.xls,B,11,5,32,32,None,congruent,Right,Right,Left,66,65,1,blue,2,5,/home/docky/apps/exp/images/66Bi.jpeg,/home/docky/apps/exp/images/35Y.jpeg,0,11,11,11,0,4,4,4,1440.5300774669995,None,1440.5300774669995,None,1,3.824984549000874,1440.5300774669995,None,1444.3890954069993,None,1444.3890954069993,None,1446.891243479,None,1446.891243479,None,1.7682365450000361,1448.6899307259991,None,1448.6899307259991,None,6,0,0.9351146789995255,1450.4501455709997,None,1450.4501455709997,None,1450.4501455709997,None,1451.401694361999,None,1,0.36701249799989455,1451.401694361999,None,126,1451.7853934629984,None,120,B,1,2021_May_26_1622,GazeFlow,2020.1.2,59.9240967837217,
12,Block811.xls,B,11,6,67,67,None,congruent,Left,Left,Right,72,77,5,yellow,2,6,/home/docky/apps/exp/images/72Y.jpeg,/home/docky/apps/exp/images/77Yi.jpeg,0,11,11,11,0,5,5,5,1452.7873631619987,None,1452.7873631619987,None,1,4.208881941998698,1452.7873631619987,None,1457.029971656999,None,1457.029971656999,None,1459.5331185429986,None,1459.5331185429986,None,0.7831512369994016,1461.3362863989987,None,1461.3362863989987,None,6,1,1.0015784130009706,1462.1060171059999,None,1462.1060171059999,None,1462.1060171059999,None,1463.1240956659985,None,1,0.35067923099995824,1463.1240956659985,None,128,1463.4914129219997,None,120,B,1,2021_May_26_1622,GazeFlow,2020.1.2,59.9240967837217,
12,Block811.xls,B,11,7,120,24,None,incongruent,Left,Right,Left,77,72,5,yellow,2,5,/home/docky/apps/exp/images/77Y.jpeg,/home/docky/apps/exp/images/72Yi.jpeg,0,11,11,11,0,6,6,6,1464.4934489319985,None,1464.4934489319985,None,1,3.8413991079996777,1464.4934489319985,None,1468.3685754059989,None,1468.3685754059989,None,1470.87204276,None,1470.87204276,None,0.8997280539988424,1472.6692090010001,None,1472.6692090010001,None,5,1,0.984735798998372,1473.5615215529997,None,1473.5615215529997,None,1473.5615215529997,None,1474.5629540659993,None,1,0.3338872630010883,1474.5629540659993,None,130,1474.9138083339985,None,120,B,1,2021_May_26_1622,GazeFlow,2020.1.2,59.9240967837217,
12,Block811.xls,B,11,8,57,57,None,congruent,Left,Left,Right,62,65,3,yellow,2,6,/home/docky/apps/exp/images/38Bi.jpeg,/home/docky/apps/exp/images/35B.jpeg,0,11,11,11,0,7,7,7,1475.9155341879996,None,1475.9155341879996,None,1,5.394872958999258,1475.9155341879996,None,1481.3439555469995,None,1481.3439555469995,None,1483.8469441769994,None,1483.8469441769994,None,0.8499242539983243,1485.6447550199991,None,1485.6447550199991,None,6,1,1.017914407999342,1486.4866971679985,None,1486.4866971679985,None,1486.4866971679985,None,1487.5214752949996,None,1,0.3006134650004242,1487.5214752949996,None,132,1487.8387895329997,None,120,B,1,2021_May_26_1622,GazeFlow,2020.1.2,59.9240967837217,
12,Block811.xls,B,,,,,,,,,,,,,,,,,,0,11,11,11,,,,,,,,,,,,,,,,,,,,,,,,,,,,,,,,,,,,,,,,,,,,120,B,1,2021_May_26_1622,GazeFlow,2020.1.2,59.9240967837217,
13,Block808.xls,B,8,1,118,22,None,incongruent,Left,Right,Left,75,69,6,yellow,2,5,/home/docky/apps/exp/images/76Y.jpeg,/home/docky/apps/exp/images/69Yi.jpeg,0,12,12,12,0,0,0,0,1512.4883652199987,None,1512.4883652199987,None,1,5.602752291999423,1512.4883652199987,None,1518.120086813,None,1518.120086813,None,1520.6369117159993,None,1520.6369117159993,None,0.8994420439994428,1522.4389416239992,None,1522.4389416239992,None,5,1,0.9844160030006606,1523.325104509,None,1523.325104509,None,1523.325104509,None,1524.3263005889985,None,1,0.3673351500001445,1524.3263005889985,None,134,1524.710270091,None,120,B,1,2021_May_26_1622,GazeFlow,2020.1.2,59.9240967837217,
13,Block808.xls,B,8,2,7,7,None,congruent,Left,Left,Right,65,66,1,blue,2,6,/home/docky/apps/exp/images/35Yi.jpeg,/home/docky/apps/exp/images/66B.jpeg,0,12,12,12,0,1,1,1,1525.7120941509984,None,1525.7120941509984,None,1,4.092727114999434,1525.7120941509984,None,1529.8381715629985,None,1529.8381715629985,None,1532.341429525999,None,1532.341429525999,None,0.8000478180001664,1534.1443218109998,None,1534.1443218109998,None,6,1,0.9344062839991238,1534.9310493459998,None,1534.9310493459998,None,1534.9310493459998,None,1535.8820551549998,None,1,0.35076693700102624,1535.8820551549998,None,136,1536.2493922489994,None,120,B,1,2021_May_26_1622,GazeFlow,2020.1.2,59.9240967837217,
13,Block808.xls,B,8,3,112,16,None,incongruent,Right,Left,Right,69,76,7,yellow,2,6,/home/docky/apps/exp/images/69Yi.jpeg,/home/docky/apps/exp/images/76Y.jpeg,0,12,12,12,0,2,2,2,1537.2511946089999,None,1537.2511946089999,None,1,4.459597008999481,1537.2511946089999,None,1541.7445718620002,None,1541.7445718620002,None,1544.2472016069987,None,1544.2472016069987,None,0.7997097039988148,1546.0503056259986,None,1546.0503056259986,None,6,1,0.9844517609999457,1546.8373867869996,None,1546.8373867869996,None,1546.8373867869996,None,1547.8385604809991,None,1,0.28421255300054327,1547.8385604809991,None,138,1548.1390926489985,None,120,B,1,2021_May_26_1622,GazeFlow,2020.1.2,59.9240967837217,
13,Block808.xls,B,8,4,97,1,None,incongruent,Right,Left,Right,16,19,3,blue,2,6,/home/docky/apps/exp/images/16Bi.jpeg,/home/docky/apps/exp/images/19B.jpeg,0,12,12,12,0,3,3,3,1549.14128892,None,1549.14128892,None,1,4.392418809000446,1549.14128892,None,1553.5675958079992,None,1553.5675958079992,None,1556.072444816,None,1556.072444816,None,0.7998980169995775,1557.873859424999,None,1557.873859424999,None,6,1,0.9513134920016455,1558.660253734999,None,1558.660253734999,None,1558.660253734999,None,1559.628181607999,None,1,0.3177278760012996,1559.628181607999,None,140,1559.9620559779996,None,120,B,1,2021_May_26_1622,GazeFlow,2020.1.2,59.9240967837217,
13,Block808.xls,B,8,5,24,24,None,congruent,Left,Left,Right,80,83,3,blue,2,6,/home/docky/apps/exp/images/80Bi.jpeg,/home/docky/apps/exp/images/83B.jpeg,0,12,12,12,0,4,4,4,1560.9640268699986,None,1560.9640268699986,None,1,3.991864790999898,1560.9640268699986,None,1564.9897022939986,None,1564.9897022939986,None,1567.492705831999,None,1567.492705831999,None,0.7832355319987983,1569.2962951769987,None,1569.2962951769987,None,6,1,0.9011161899998115,1570.065728489999,None,1570.065728489999,None,1570.065728489999,None,1570.9838224359992,None,1,0.28387020400077745,1570.9838224359992,None,142,1571.2843084259985,None,120,B,1,2021_May_26_1622,GazeFlow,2020.1.2,59.9240967837217,
13,Block808.xls,B,8,6,13,13,None,congruent,Left,Left,Right,38,39,1,blue,2,6,/home/docky/apps/exp/images/38Bi.jpeg,/home/docky/apps/exp/images/39B.jpeg,0,12,12,12,0,5,5,5,1572.2863381789994,None,1572.2863381789994,None,1,3.7911214100004145,1572.2863381789994,None,1576.109677384,None,1576.109677384,None,1578.6207701369985,None,1578.6207701369985,None,0.8166188909999619,1580.4180295289989,None,1580.4180295289989,None,6,1,0.9682681920003233,1581.2207613219998,None,1581.2207613219998,None,1581.2207613219998,None,1582.2055323369987,None,1,0.3338890300001367,1582.2055323369987,None,144,1582.5558876750001,None,120,B,1,2021_May_26_1622,GazeFlow,2020.1.2,59.9240967837217,
13,Block808.xls,B,8,7,8,8,None,congruent,Left,Left,Right,65,66,1,blue,2,6,/home/docky/apps/exp/images/35Y.jpeg,/home/docky/apps/exp/images/66Bi.jpeg,0,12,12,12,0,6,6,6,1583.558151498999,None,1583.558151498999,None,1,4.342762054000559,1583.558151498999,None,1587.9342236079992,None,1587.9342236079992,None,1590.4371268729992,None,1590.4371268729992,None,0.8498207120010193,1592.2404109989984,None,1592.2404109989984,None,6,1,1.0516236600014963,1593.0769601819993,None,1593.0769601819993,None,1593.0769601819993,None,1594.1453094139997,None,1,0.30053364200102806,1594.1453094139997,None,146,1594.4626073909985,None,120,B,1,2021_May_26_1622,GazeFlow,2020.1.2,59.9240967837217,
13,Block808.xls,B,8,8,31,31,None,congruent,Right,Right,Left,66,65,1,blue,2,5,/home/docky/apps/exp/images/66B.jpeg,/home/docky/apps/exp/images/35Yi.jpeg,0,12,12,12,0,7,7,7,1595.4644997689993,None,1595.4644997689993,None,1,3.97499166399939,1595.4644997689993,None,1599.4732722569988,None,1599.4732722569988,None,1601.976545333,None,1601.976545333,None,0.8330831969997234,1603.774807496,None,1603.774807496,None,6,0,1.0014487150001514,1604.5993522659992,None,1604.5993522659992,None,1604.5993522659992,None,1605.6176043209998,None,1,0.35076173699962965,1605.6176043209998,None,144,1605.9848056779992,None,120,B,1,2021_May_26_1622,GazeFlow,2020.1.2,59.9240967837217,
13,Block808.xls,B,,,,,,,,,,,,,,,,,,0,12,12,12,,,,,,,,,,,,,,,,,,,,,,,,,,,,,,,,,,,,,,,,,,,,120,B,1,2021_May_26_1622,GazeFlow,2020.1.2,59.9240967837217,
14,Block815.xls,B,15,1,65,65,None,congruent,Left,Left,Right,69,76,7,yellow,2,6,/home/docky/apps/exp/images/69Yi.jpeg,/home/docky/apps/exp/images/76Y.jpeg,0,13,13,13,0,0,0,0,1628.5959758640001,None,1628.5959758640001,None,1,4.701788749998741,1628.5959758640001,None,1633.3242802219993,None,1633.3242802219993,None,1635.8449116049997,None,1635.8449116049997,None,0.8323013560002437,1637.640739335,None,1637.640739335,None,6,1,0.9015266690003045,1638.4649979999995,None,1638.4649979999995,None,1638.4649979999995,None,1639.3832322339986,None,1,0.3003289770003903,1639.3832322339986,None,146,1639.700053270999,None,120,B,1,2021_May_26_1622,GazeFlow,2020.1.2,59.9240967837217,
14,Block815.xls,B,15,2,102,6,None,incongruent,Right,Left,Right,80,83,3,blue,2,6,/home/docky/apps/exp/images/80B.jpeg,/home/docky/apps/exp/images/83Bi.jpeg,0,13,13,13,0,1,1,1,1640.7022080919996,None,1640.7022080919996,None,1,3.6245191149992024,1640.7022080919996,None,1644.360282922,None,1644.360282922,None,1646.8632945599984,None,1646.8632945599984,None,0.7665269750013977,1648.6612774569985,None,1648.6612774569985,None,6,1,0.9345817240009637,1649.419744936,None,1649.419744936,None,1649.419744936,None,1650.371099050999,None,1,0.28426340499936487,1650.371099050999,None,148,1650.671387082999,None,120,B,1,2021_May_26_1622,GazeFlow,2020.1.2,59.9240967837217,
14,Block815.xls,B,15,3,33,33,None,congruent,Right,Right,Left,66,65,1,blue,2,5,/home/docky/apps/exp/images/66Bi.jpeg,/home/docky/apps/exp/images/35Y.jpeg,0,13,13,13,0,2,2,2,1651.6736406029995,None,1651.6736406029995,None,1,3.741303949998837,1651.6736406029995,None,1655.4486702879985,None,1655.4486702879985,None,1657.9535398389999,None,1657.9535398389999,None,0.8164647350004088,1659.7500585039998,None,1659.7500585039998,None,5,1,0.9512809099996957,1660.5582732969997,None,1660.5582732969997,None,1660.5582732969997,None,1661.5261725649998,None,1,0.3007713970000623,1661.5261725649998,None,150,1661.8435382899988,None,120,B,1,2021_May_26_1622,GazeFlow,2020.1.2,59.9240967837217,
14,Block815.xls,B,15,4,72,72,None,congruent,Left,Left,Right,79,82,3,yellow,2,6,/home/docky/apps/exp/images/79Yi.jpeg,/home/docky/apps/exp/images/80Y.jpeg,0,13,13,13,0,3,3,3,1662.845391286999,None,1662.845391286999,None,1,3.5079003459995874,1662.845391286999,None,1666.3867120179984,None,1666.3867120179984,None,1668.889762417999,None,1668.889762417999,None,0.8330453700000362,1670.6888245699993,None,1670.6888245699993,None,5,0,1.2184063599997899,1671.5127217549998,None,1671.5127217549998,None,1671.5127217549998,None,1672.7477633569997,None,1,0.3511330889996316,1672.7477633569997,None,148,1673.1152067929997,None,120,B,1,2021_May_26_1622,GazeFlow,2020.1.2,59.9240967837217,
14,Block815.xls,B,15,5,100,4,None,incongruent,Right,Left,Right,73,76,3,blue,2,6,/home/docky/apps/exp/images/73B.jpeg,/home/docky/apps/exp/images/76Bi.jpeg,0,13,13,13,0,4,4,4,1674.1171213489997,None,1674.1171213489997,None,1,4.0089690089989745,1674.1171213489997,None,1678.1593773299992,None,1678.1593773299992,None,1680.6644052499996,None,1680.6644052499996,None,0.8165495709999959,1682.4662968909997,None,1682.4662968909997,None,6,1,0.9846493889999692,1683.2689165149986,None,1683.2689165149986,None,1683.2689165149986,None,1684.2702076799997,None,1,0.3007382879986835,1684.2702076799997,None,150,1684.5874196599998,None,120,B,1,2021_May_26_1622,GazeFlow,2020.1.2,59.9240967837217,
14,Block815.xls,B,15,6,45,45,None,congruent,Right,Right,Left,39,38,1,blue,2,5,/home/docky/apps/exp/images/39B.jpeg,/home/docky/apps/exp/images/38Bi.jpeg,0,13,13,13,0,5,5,5,1685.589641515,None,1685.589641515,None,1,4.0587645069990685,1685.589641515,None,1689.6819649640001,None,1689.6819649640001,None,1692.18521032,None,1692.18521032,None,0.8164734380006848,1693.988718438999,None,1693.988718438999,None,6,0,0.8842488280006364,1694.791225502,None,1694.791225502,None,1694.791225502,None,1695.6925381719993,None,1,0.30046415499964496,1695.6925381719993,None,148,1696.0095959089995,None,120,B,1,2021_May_26_1622,GazeFlow,2020.1.2,59.9240967837217,
14,Block815.xls,B,15,7,98,2,None,incongruent,Right,Left,Right,35,38,3,blue,2,6,/home/docky/apps/exp/images/35Bi.jpeg,/home/docky/apps/exp/images/38B.jpeg,0,13,13,13,0,6,6,6,1697.011649524,None,1697.011649524,None,1,3.9922743769984663,1697.011649524,None,1701.0372697249986,None,1701.0372697249986,None,1703.5402177569995,None,1703.5402177569995,None,0.8329342739998538,1705.343162403,None,1705.343162403,None,6,1,0.9010681309991924,1706.1633801209991,None,1706.1633801209991,None,1706.1633801209991,None,1707.0813821169995,None,1,0.2670343910012889,1707.0813821169995,None,150,1707.3649520729996,None,120,B,1,2021_May_26_1622,GazeFlow,2020.1.2,59.9240967837217,
14,Block815.xls,B,15,8,59,59,None,congruent,Left,Left,Right,38,39,1,yellow,2,6,/home/docky/apps/exp/images/38Yi.jpeg,/home/docky/apps/exp/images/39Y.jpeg,0,13,13,13,0,7,7,7,1708.3672841939988,None,1708.3672841939988,None,1,4.242091102998529,1708.3672841939988,None,1712.6431094700001,None,1712.6431094700001,None,1715.1480175769993,None,1715.1480175769993,None,0.9170251960003952,1716.9487215569989,None,1716.9487215569989,None,6,1,0.9179753579992393,1717.8526309989993,None,1717.8526309989993,None,1717.8526309989993,None,1718.7873987599996,None,1,0.26701936700010265,1718.7873987599996,None,152,1719.071031157,None,120,B,1,2021_May_26_1622,GazeFlow,2020.1.2,59.9240967837217,
14,Block815.xls,B,,,,,,,,,,,,,,,,,,0,13,13,13,,,,,,,,,,,,,,,,,,,,,,,,,,,,,,,,,,,,,,,,,,,,120,B,1,2021_May_26_1622,GazeFlow,2020.1.2,59.9240967837217,
15,Block807.xls,B,7,1,71,71,None,congruent,Left,Left,Right,79,82,3,yellow,2,6,/home/docky/apps/exp/images/79Y.jpeg,/home/docky/apps/exp/images/80Yi.jpeg,0,14,14,14,0,0,0,0,1738.6604833749989,None,1738.6604833749989,None,1,4.551400870999714,1738.6604833749989,None,1743.2384195939994,None,1743.2384195939994,None,1745.7575356449997,None,1745.7575356449997,None,0.7823680290002812,1747.560739474,None,1747.560739474,None,6,1,0.9680584369998542,1748.3285599809988,None,1748.3285599809988,None,1748.3285599809988,None,1749.3135340699992,None,1,0.26688984599968535,1749.3135340699992,None,154,1749.5973433049985,None,120,B,1,2021_May_26_1622,GazeFlow,2020.1.2,59.9240967837217,
15,Block807.xls,B,7,2,44,44,None,congruent,Right,Right,Left,83,80,3,blue,2,5,/home/docky/apps/exp/images/83Bi.jpeg,/home/docky/apps/exp/images/80B.jpeg,0,14,14,14,0,1,1,1,1750.5991744129988,None,1750.5991744129988,None,1,3.925582805999511,1750.5991744129988,None,1754.5588993889996,None,1754.5588993889996,None,1757.0627307839986,None,1757.0627307839986,None,0.7494448770012241,1758.8644493020001,None,1758.8644493020001,None,5,1,0.9011870650010678,1759.6004025069997,None,1759.6004025069997,None,1759.6004025069997,None,1760.5181864649985,None,1,0.3677017400004843,1760.5181864649985,None,156,1760.9024661819985,None,120,B,1,2021_May_26_1622,GazeFlow,2020.1.2,59.9240967837217,
15,Block807.xls,B,7,3,48,48,None,congruent,Right,Right,Left,39,38,1,blue,2,5,/home/docky/apps/exp/images/39Bi.jpeg,/home/docky/apps/exp/images/38B.jpeg,0,14,14,14,0,2,2,2,1761.904413802,None,1761.904413802,None,1,4.026819433998753,1761.904413802,None,1765.9644461829994,None,1765.9644461829994,None,1768.4662830050002,None,1768.4662830050002,None,1.0835058949996892,1770.269268524,None,1770.269268524,None,5,1,1.4691852849991847,1771.3400008529989,None,1771.3400008529989,None,1771.3400008529989,None,1772.8254485839989,None,1,0.3183265459992981,1772.8254485839989,None,158,1773.1601371589986,None,120,B,1,2021_May_26_1622,GazeFlow,2020.1.2,59.9240967837217,
15,Block807.xls,B,7,4,113,17,None,incongruent,Right,Left,Right,72,77,5,yellow,2,6,/home/docky/apps/exp/images/72Yi.jpeg,/home/docky/apps/exp/images/77Y.jpeg,0,14,14,14,0,3,3,3,1774.1615072919994,None,1774.1615072919994,None,1,4.025530083999911,1774.1615072919994,None,1778.2216244329993,None,1778.2216244329993,None,1780.725384649999,None,1780.725384649999,None,0.8663136420000228,1782.527579657999,None,1782.527579657999,None,6,1,0.901618387999406,1783.3798926700001,None,1783.3798926700001,None,1783.3798926700001,None,1784.2977991989992,None,1,0.2838694719994237,1784.2977991989992,None,160,1784.5984800389997,None,120,B,1,2021_May_26_1622,GazeFlow,2020.1.2,59.9240967837217,
15,Block807.xls,B,7,5,69,69,None,congruent,Left,Left,Right,72,77,5,yellow,2,6,/home/docky/apps/exp/images/72Y.jpeg,/home/docky/apps/exp/images/77Yi.jpeg,0,14,14,14,0,4,4,4,1785.600471742,None,1785.600471742,None,1,4.125726362999558,1785.600471742,None,1789.764077374999,None,1789.764077374999,None,1792.2624375589985,None,1792.2624375589985,None,0.8835334819996206,1794.065721294999,None,1794.065721294999,None,6,1,0.9352151570001297,1794.9355791990001,None,1794.9355791990001,None,1794.9355791990001,None,1795.8869557959988,None,1,0.28405957399991166,1795.8869557959988,None,162,1796.1877049349987,None,120,B,1,2021_May_26_1622,GazeFlow,2020.1.2,59.9240967837217,
15,Block807.xls,B,7,6,39,39,None,congruent,Right,Right,Left,79,76,3,blue,2,5,/home/docky/apps/exp/images/79B.jpeg,/home/docky/apps/exp/images/76Bi.jpeg,0,14,14,14,0,5,5,5,1797.189655746999,None,1797.189655746999,None,1,3.441080921000321,1797.189655746999,None,1800.664093981999,None,1800.664093981999,None,1803.1669749149987,None,1803.1669749149987,None,0.7831103959997563,1804.9703873609997,None,1804.9703873609997,None,5,1,0.9182375880009204,1805.7397483429995,None,1805.7397483429995,None,1805.7397483429995,None,1806.674610872,None,1,0.3172611110003345,1806.674610872,None,164,1807.008449097999,None,120,B,1,2021_May_26_1622,GazeFlow,2020.1.2,59.9240967837217,
15,Block807.xls,B,7,7,50,50,None,congruent,Left,Left,Right,33,35,2,yellow,2,6,/home/docky/apps/exp/images/33Y.jpeg,/home/docky/apps/exp/images/35Yi.jpeg,0,14,14,14,0,6,6,6,1808.0106918319998,None,1808.0106918319998,None,1,4.877876356998968,1808.0106918319998,None,1812.9209830689997,None,1812.9209830689997,None,1815.4239132739986,None,1815.4239132739986,None,0.799846163001348,1817.229301760999,None,1817.229301760999,None,6,1,0.884641513999668,1818.0139388520001,None,1818.0139388520001,None,1818.0139388520001,None,1818.9149576799991,None,1,0.31749174099968513,1818.9149576799991,None,166,1819.2489603729991,None,120,B,1,2021_May_26_1622,GazeFlow,2020.1.2,59.9240967837217,
15,Block807.xls,B,7,8,19,19,None,congruent,Left,Left,Right,76,79,3,blue,2,6,/home/docky/apps/exp/images/76B.jpeg,/home/docky/apps/exp/images/79Bi.jpeg,0,14,14,14,0,7,7,7,1820.2509068849995,None,1820.2509068849995,None,1,3.8753992450001533,1820.2509068849995,None,1824.159619877999,None,1824.159619877999,None,1826.6629143849987,None,1826.6629143849987,None,0.8831891569989239,1828.466097818,None,1828.466097818,None,6,1,0.9846046999991813,1829.3357388329987,None,1829.3357388329987,None,1829.3357388329987,None,1830.337233954,None,1,0.30080689399983385,1830.337233954,None,168,1830.6544968819999,None,120,B,1,2021_May_26_1622,GazeFlow,2020.1.2,59.9240967837217,
15,Block807.xls,B,,,,,,,,,,,,,,,,,,0,14,14,14,,,,,,,,,,,,,,,,,,,,,,,,,,,,,,,,,,,,,,,,,,,,120,B,1,2021_May_26_1622,GazeFlow,2020.1.2,59.9240967837217,
