Nblock,condsFile,grouping,Block,TrialBlock,N,trialN,trialCond,gazeCon,gazedirR,corrBinR,corrBinP,valLBY,valRBY,diff,colorCube,feedbacktext,corrAns,imageL,imageR,SelBlocks.thisRepN,SelBlocks.thisTrialN,SelBlocks.thisN,SelBlocks.thisIndex,Trials.thisRepN,Trials.thisTrialN,Trials.thisN,Trials.thisIndex,waitCube.started,waitCube.stopped,text_3.started,text_3.stopped,StartKeyPress.keys,StartKeyPress.rt,StartKeyPress.started,StartKeyPress.stopped,StimL.started,StimL.stopped,StimR.started,StimR.stopped,imageStim2L.started,imageStim2L.stopped,imageStim2R.started,imageStim2R.stopped,RTkeyRelease,imageStim3L.started,imageStim3L.stopped,imageStim3R.started,imageStim3R.stopped,dropResp.keys,dropResp.corr,dropResp.rt,dropResp.started,dropResp.stopped,imageStim5L.started,imageStim5L.stopped,imageStim5R.started,imageStim5R.stopped,text_2.started,text_2.stopped,ReturnSpace.keys,ReturnSpace.rt,ReturnSpace.started,ReturnSpace.stopped,totalpoints,textFeedback.started,textFeedback.stopped,participant,group,session,date,expName,psychopyVersion,frameRate,
1,Block502.xls,A,2,1,93,33,22,incongruent,Left,Right,Left,38,35,3,blue,2,5,/home/docky/apps/exp/images/38B.jpeg,/home/docky/apps/exp/images/35Bi.jpeg,0,0,0,0,0,0,0,0,54.63467795299948,None,54.63467795299948,None,1,6.704109754999081,54.63467795299948,None,61.36850060800134,None,61.36850060800134,None,63.88697593100005,None,63.88697593100005,None,1.4168693449973944,65.69025527299891,None,65.69025527299891,None,5,1,1.0187296820004121,67.08982258900141,None,67.08982258900141,None,67.08982258900141,None,68.12507399400056,None,1,0.8348979279980995,68.12507399400056,None,2,68.97627387299872,None,121,A,1,2021_May_26_1754,GazeFlow,2020.1.2,59.87197073533088,
1,Block502.xls,A,2,2,42,42,12,congruent,Right,Right,Left,83,80,3,blue,2,5,/home/docky/apps/exp/images/83Bi.jpeg,/home/docky/apps/exp/images/80B.jpeg,0,0,0,0,0,1,1,1,69.97857225899861,None,69.97857225899861,None,1,5.945260246000544,69.97857225899861,None,75.9577140879992,None,75.9577140879992,None,78.46673318200192,None,78.46673318200192,None,2.0520877679991827,80.26476490400091,None,80.26476490400091,None,5,1,1.0181435459999193,82.30278834300043,None,82.30278834300043,None,82.30278834300043,None,83.33740345100159,None,1,1.069120413998462,83.33740345100159,None,4,84.42290658300044,None,121,A,1,2021_May_26_1754,GazeFlow,2020.1.2,59.87197073533088,
1,Block502.xls,A,2,3,9,9,11,congruent,Left,Left,Right,38,39,1,blue,2,6,/home/docky/apps/exp/images/38Bi.jpeg,/home/docky/apps/exp/images/39B.jpeg,0,0,0,0,0,2,2,2,85.42537102099959,None,85.42537102099959,None,1,6.479901113001688,85.42537102099959,None,91.93872782499966,None,91.93872782499966,None,94.44318588600072,None,94.44318588600072,None,1.2506564610011992,96.24569589800012,None,96.24569589800012,None,6,1,1.051445954999508,97.48227783599941,None,97.48227783599941,None,97.48227783599941,None,98.5503807310015,None,1,0.718306377002591,98.5503807310015,None,6,99.28518964700197,None,121,A,1,2021_May_26_1754,GazeFlow,2020.1.2,59.87197073533088,
1,Block502.xls,A,2,4,23,23,11,congruent,Left,Left,Right,38,39,1,yellow,2,6,/home/docky/apps/exp/images/38Yi.jpeg,/home/docky/apps/exp/images/39Y.jpeg,0,0,0,0,0,3,3,3,100.28722200700213,None,100.28722200700213,None,1,5.8119412579981145,100.28722200700213,None,106.13290181800039,None,106.13290181800039,None,108.63765962099933,None,108.63765962099933,None,1.5676149810024071,110.43455204899874,None,110.43455204899874,None,6,1,1.01860664799824,111.99384248800197,None,111.99384248800197,None,111.99384248800197,None,113.02898504599943,None,1,0.8847607930001686,113.02898504599943,None,8,113.93014559700168,None,121,A,1,2021_May_26_1754,GazeFlow,2020.1.2,59.87197073533088,
1,Block502.xls,A,2,5,57,57,12,congruent,Right,Right,Left,77,72,5,yellow,2,5,/home/docky/apps/exp/images/77Y.jpeg,/home/docky/apps/exp/images/72Yi.jpeg,0,0,0,0,0,4,4,4,114.9322022660017,None,114.9322022660017,None,1,5.712332192000758,114.9322022660017,None,120.6778450189995,None,120.6778450189995,None,123.18584962300156,None,123.18584962300156,None,1.7683684490002634,124.98385124999913,None,124.98385124999913,None,5,1,0.9352541810003459,126.73914349999905,None,126.73914349999905,None,126.73914349999905,None,127.69080396099889,None,1,0.7844275440002093,127.69080396099889,None,10,128.492123455002,None,121,A,1,2021_May_26_1754,GazeFlow,2020.1.2,59.87197073533088,
1,Block502.xls,A,2,6,118,58,22,incongruent,Left,Right,Left,80,79,1,yellow,2,5,/home/docky/apps/exp/images/80Yi.jpeg,/home/docky/apps/exp/images/79Y.jpeg,0,0,0,0,0,5,5,5,129.49394912099888,None,129.49394912099888,None,1,5.861987988999317,129.49394912099888,None,135.389586401001,None,135.389586401001,None,137.8947124039987,None,137.8947124039987,None,1.5678628670029866,139.69790703699982,None,139.69790703699982,None,6,0,1.0353424999993877,141.25068159399962,None,141.25068159399962,None,141.25068159399962,None,142.30196987100135,None,1,0.7852295340017008,142.30196987100135,None,8,143.10365344800084,None,121,A,1,2021_May_26_1754,GazeFlow,2020.1.2,59.87197073533088,
1,Block502.xls,A,2,7,101,41,22,incongruent,Left,Right,Left,83,80,3,blue,2,5,/home/docky/apps/exp/images/83Bi.jpeg,/home/docky/apps/exp/images/80B.jpeg,0,0,0,0,0,6,6,6,144.1060974819993,None,144.1060974819993,None,1,5.126733738001349,144.1060974819993,None,149.2670726059987,None,149.2670726059987,None,151.76906831700035,None,151.76906831700035,None,1.3010499100018933,153.57325639000192,None,153.57325639000192,None,5,1,1.0014173050003592,154.86049753000043,None,154.86049753000043,None,154.86049753000043,None,155.8786119139986,None,1,0.751359361998766,155.8786119139986,None,10,156.64683514599892,None,121,A,1,2021_May_26_1754,GazeFlow,2020.1.2,59.87197073533088,
1,Block502.xls,A,2,8,69,9,21,incongruent,Right,Left,Right,73,76,3,blue,2,6,/home/docky/apps/exp/images/73B.jpeg,/home/docky/apps/exp/images/76Bi.jpeg,0,0,0,0,0,7,7,7,157.64869197100052,None,157.64869197100052,None,1,6.1963341730006505,157.64869197100052,None,163.88228579299903,None,163.88228579299903,None,166.38129986200147,None,166.38129986200147,None,1.3507983679992321,168.186555237,None,168.186555237,None,5,0,1.051877401998354,169.52231795899934,None,169.52231795899934,None,169.52231795899934,None,170.59076764199926,None,1,0.7510574010011624,170.59076764199926,None,8,171.35844532199917,None,121,A,1,2021_May_26_1754,GazeFlow,2020.1.2,59.87197073533088,
1,Block502.xls,A,,,,,,,,,,,,,,,,,,0,0,0,0,,,,,,,,,,,,,,,,,,,,,,,,,,,,,,,,,,,,,,,,,,,,121,A,1,2021_May_26_1754,GazeFlow,2020.1.2,59.87197073533088,
2,Block506.xls,A,6,1,120,60,22,incongruent,Left,Right,Left,80,79,1,yellow,2,5,/home/docky/apps/exp/images/80Yi.jpeg,/home/docky/apps/exp/images/79Y.jpeg,0,1,1,1,0,0,0,0,192.35215487299865,None,192.35215487299865,None,1,7.967480694998812,192.35215487299865,None,200.34380580300058,None,200.34380580300058,None,202.87164438699983,None,202.87164438699983,None,1.2497793590009678,204.65739260700138,None,204.65739260700138,None,6,0,1.0011568519985303,205.89278939499854,None,205.89278939499854,None,205.89278939499854,None,206.91073546500047,None,1,0.7349467219974031,206.91073546500047,None,6,207.66225794799902,None,121,A,1,2021_May_26_1754,GazeFlow,2020.1.2,59.87197073533088,
2,Block506.xls,A,6,2,51,51,12,congruent,Right,Right,Left,66,65,1,yellow,2,5,/home/docky/apps/exp/images/66Y.jpeg,/home/docky/apps/exp/images/35Bi.jpeg,0,1,1,1,0,1,1,1,208.6642568979987,None,208.6642568979987,None,1,6.21338005600046,208.6642568979987,None,214.91021133899994,None,214.91021133899994,None,217.4156188199995,None,217.4156188199995,None,0.4493560549999529,219.21735321300002,None,219.21735321300002,None,5,1,5.116903433001426,219.66271303900066,None,219.66271303900066,None,219.66271303900066,None,224.79601944100068,None,1,2.338429299001291,224.79601944100068,None,8,227.1505718059998,None,121,A,1,2021_May_26_1754,GazeFlow,2020.1.2,59.87197073533088,
2,Block506.xls,A,6,3,119,59,22,incongruent,Left,Right,Left,80,79,1,yellow,2,5,/home/docky/apps/exp/images/80Y.jpeg,/home/docky/apps/exp/images/79Yi.jpeg,0,1,1,1,0,2,2,2,228.15248195599997,None,228.15248195599997,None,1,9.786076329000934,228.15248195599997,None,237.97249069700047,None,237.97249069700047,None,240.47705374499856,None,240.47705374499856,None,4.926282442000229,242.26345891000165,None,242.26345891000165,None,6,0,1.2530277660007414,247.2052458290018,None,247.2052458290018,None,247.2052458290018,None,248.47469067400016,None,1,1.2366255519991682,248.47469067400016,None,6,249.72777517800205,None,121,A,1,2021_May_26_1754,GazeFlow,2020.1.2,59.87197073533088,
2,Block506.xls,A,6,4,28,28,11,congruent,Left,Left,Right,72,77,5,yellow,2,6,/home/docky/apps/exp/images/72Y.jpeg,/home/docky/apps/exp/images/77Yi.jpeg,0,1,1,1,0,3,3,3,250.7297381669996,None,250.7297381669996,None,1,8.216233356000885,250.7297381669996,None,258.97964923700056,None,258.97964923700056,None,261.48264424900117,None,261.48264424900117,None,3.104747777000739,263.2862053329991,None,263.2862053329991,None,6,1,1.1177304730008473,266.39421493600094,None,266.39421493600094,None,266.39421493600094,None,267.5285432829987,None,1,2.7057174690016836,267.5285432829987,None,8,270.2509538529994,None,121,A,1,2021_May_26_1754,GazeFlow,2020.1.2,59.87197073533088,
2,Block506.xls,A,6,5,85,25,21,incongruent,Right,Left,Right,69,75,6,yellow,2,6,/home/docky/apps/exp/images/69Y.jpeg,/home/docky/apps/exp/images/76Yi.jpeg,0,1,1,1,0,4,4,4,271.2529158069992,None,271.2529158069992,None,1,5.912184089997027,271.2529158069992,None,277.2017247110016,None,277.2017247110016,None,279.70159520200104,None,279.70159520200104,None,2.5370077610023145,281.5032221469992,None,281.5032221469992,None,6,1,1.1177699619984196,284.0450909499996,None,284.0450909499996,None,284.0450909499996,None,285.1799140479998,None,1,1.0515992319997167,285.1799140479998,None,10,286.24829758800115,None,121,A,1,2021_May_26_1754,GazeFlow,2020.1.2,59.87197073533088,
2,Block506.xls,A,6,6,71,11,21,incongruent,Right,Left,Right,76,79,3,blue,2,6,/home/docky/apps/exp/images/76B.jpeg,/home/docky/apps/exp/images/79Bi.jpeg,0,1,1,1,0,5,5,5,287.25072793300205,None,287.25072793300205,None,1,6.629532880000625,287.25072793300205,None,293.9138764740019,None,293.9138764740019,None,296.4176225560004,None,296.4176225560004,None,1.5676769349993265,298.2210309760012,None,298.2210309760012,None,5,0,0.9846780650004803,299.77524434800216,None,299.77524434800216,None,299.77524434800216,None,300.77635427600035,None,1,1.0858529840006668,300.77635427600035,None,8,301.8788689649991,None,121,A,1,2021_May_26_1754,GazeFlow,2020.1.2,59.87197073533088,
2,Block506.xls,A,6,7,56,56,12,congruent,Right,Right,Left,76,69,7,yellow,2,5,/home/docky/apps/exp/images/76Yi.jpeg,/home/docky/apps/exp/images/69Y.jpeg,0,1,1,1,0,6,6,6,302.8809819269991,None,302.8809819269991,None,1,6.914264381000976,302.8809819269991,None,309.82872350400066,None,309.82872350400066,None,312.3318730889987,None,312.3318730889987,None,1.9180887199981953,314.1367907560016,None,314.1367907560016,None,5,1,1.135108737002156,316.03991708600006,None,316.03991708600006,None,316.03991708600006,None,317.1916111390019,None,1,1.5703970130016387,317.1916111390019,None,10,318.7785180610008,None,121,A,1,2021_May_26_1754,GazeFlow,2020.1.2,59.87197073533088,
2,Block506.xls,A,6,8,33,33,12,congruent,Right,Right,Left,38,35,3,blue,2,5,/home/docky/apps/exp/images/38B.jpeg,/home/docky/apps/exp/images/35Bi.jpeg,0,1,1,1,0,7,7,7,319.7804849819986,None,319.7804849819986,None,1,7.898704506998911,319.7804849819986,None,327.71321214099953,None,327.71321214099953,None,330.2182223230011,None,330.2182223230011,None,1.6014199050005118,332.0214214869993,None,332.0214214869993,None,5,1,1.2028988329984713,333.6074748220017,None,333.6074748220017,None,333.6074748220017,None,334.82623075599986,None,1,0.7679080179987068,334.82623075599986,None,12,335.61106902499887,None,121,A,1,2021_May_26_1754,GazeFlow,2020.1.2,59.87197073533088,
2,Block506.xls,A,,,,,,,,,,,,,,,,,,0,1,1,1,,,,,,,,,,,,,,,,,,,,,,,,,,,,,,,,,,,,,,,,,,,,121,A,1,2021_May_26_1754,GazeFlow,2020.1.2,59.87197073533088,
3,Block505.xls,A,5,1,1,1,11,congruent,Left,Left,Right,16,19,3,blue,2,6,/home/docky/apps/exp/images/16Bi.jpeg,/home/docky/apps/exp/images/19B.jpeg,0,2,2,2,0,0,0,0,357.9385295510001,None,357.9385295510001,None,1,5.582905709998158,357.9385295510001,None,363.5522320589989,None,363.5522320589989,None,366.06890142500197,None,366.06890142500197,None,1.800932826998178,367.8730802470018,None,367.8730802470018,None,6,1,1.0692586749973998,369.66089296599966,None,369.66089296599966,None,369.66089296599966,None,370.7461411789991,None,1,1.1183858190015599,370.7461411789991,None,14,371.881702212002,None,121,A,1,2021_May_26_1754,GazeFlow,2020.1.2,59.87197073533088,
3,Block505.xls,A,5,2,10,10,11,congruent,Left,Left,Right,73,76,3,blue,2,6,/home/docky/apps/exp/images/73B.jpeg,/home/docky/apps/exp/images/76Bi.jpeg,0,2,2,2,0,1,1,1,372.88365576100114,None,372.88365576100114,None,1,5.845314492999023,372.88365576100114,None,378.7623758619993,None,378.7623758619993,None,381.2673636170002,None,381.2673636170002,None,1.9520227749999322,383.0706585070002,None,383.0706585070002,None,5,0,0.9847017149986641,385.00744960000156,None,385.00744960000156,None,385.00744960000156,None,386.00854882099884,None,1,1.5366304819981451,386.00854882099884,None,12,387.5618811919994,None,121,A,1,2021_May_26_1754,GazeFlow,2020.1.2,59.87197073533088,
3,Block505.xls,A,5,3,95,35,22,incongruent,Left,Right,Left,66,65,1,blue,2,5,/home/docky/apps/exp/images/66B.jpeg,/home/docky/apps/exp/images/35Yi.jpeg,0,2,2,2,0,2,2,2,388.5642929220012,None,388.5642929220012,None,1,5.978820907999761,388.5642929220012,None,394.57885610800076,None,394.57885610800076,None,397.07993891799924,None,397.07993891799924,None,1.9687679739981832,398.88318297799924,None,398.88318297799924,None,5,1,1.1014892020029947,400.83804391100057,None,400.83804391100057,None,400.83804391100057,None,401.95623665400126,None,1,1.0018430550007906,401.95623665400126,None,14,402.97488359600175,None,121,A,1,2021_May_26_1754,GazeFlow,2020.1.2,59.87197073533088,
3,Block505.xls,A,5,4,46,46,12,congruent,Right,Right,Left,35,33,2,yellow,2,5,/home/docky/apps/exp/images/35Yi.jpeg,/home/docky/apps/exp/images/33Y.jpeg,0,2,2,2,0,3,3,3,403.97739845600154,None,403.97739845600154,None,1,5.494681692001905,403.97739845600154,None,409.5053716729999,None,409.5053716729999,None,412.01006691899966,None,412.01006691899966,None,3.071443946002546,413.8124125249997,None,413.8124125249997,None,5,1,0.9508021830006328,416.8864196960021,None,416.8864196960021,None,416.8864196960021,None,417.853869726001,None,1,1.152748556000006,417.853869726001,None,16,419.0232212260016,None,121,A,1,2021_May_26_1754,GazeFlow,2020.1.2,59.87197073533088,
3,Block505.xls,A,5,5,78,18,21,incongruent,Right,Left,Right,65,66,1,yellow,2,6,/home/docky/apps/exp/images/35Bi.jpeg,/home/docky/apps/exp/images/66Y.jpeg,0,2,2,2,0,4,4,4,420.02516651399856,None,420.02516651399856,None,1,6.162300468000467,420.02516651399856,None,426.22138733300017,None,426.22138733300017,None,428.7246865119996,None,428.7246865119996,None,2.503313913999591,430.5298318940004,None,430.5298318940004,None,6,1,1.1361149639997166,433.0327501399988,None,433.0327501399988,None,433.0327501399988,None,434.1857227729997,None,1,0.7013602759980131,434.1857227729997,None,18,434.9039382859992,None,121,A,1,2021_May_26_1754,GazeFlow,2020.1.2,59.87197073533088,
3,Block505.xls,A,5,6,43,43,12,congruent,Right,Right,Left,83,80,3,blue,2,5,/home/docky/apps/exp/images/83B.jpeg,/home/docky/apps/exp/images/80Bi.jpeg,0,2,2,2,0,5,5,5,435.9059777770017,None,435.9059777770017,None,1,5.277231716001552,435.9059777770017,None,441.21700000000055,None,441.21700000000055,None,443.7216361050014,None,443.7216361050014,None,1.8684205479985394,445.5219487510003,None,445.5219487510003,None,5,1,1.0848562539977138,447.3784498210007,None,447.3784498210007,None,447.3784498210007,None,448.48014703399895,None,1,0.9186072739976225,448.48014703399895,None,20,449.41517630399903,None,121,A,1,2021_May_26_1754,GazeFlow,2020.1.2,59.87197073533088,
3,Block505.xls,A,5,7,44,44,12,congruent,Right,Right,Left,39,38,1,blue,2,5,/home/docky/apps/exp/images/39Bi.jpeg,/home/docky/apps/exp/images/38B.jpeg,0,2,2,2,0,6,6,6,450.41765124800077,None,450.41765124800077,None,1,6.646454904002894,450.41765124800077,None,457.0978106570001,None,457.0978106570001,None,459.60283903800155,None,459.60283903800155,None,2.2191721910021442,461.39944900000046,None,461.39944900000046,None,6,0,1.3192425109991746,463.610007416999,None,463.610007416999,None,463.610007416999,None,464.94549659100085,None,1,0.7347532410021813,464.94549659100085,None,18,465.69685827099966,None,121,A,1,2021_May_26_1754,GazeFlow,2020.1.2,59.87197073533088,
3,Block505.xls,A,5,8,116,56,22,incongruent,Left,Right,Left,77,72,5,yellow,2,5,/home/docky/apps/exp/images/77Y.jpeg,/home/docky/apps/exp/images/72Y.jpeg,0,2,2,2,0,7,7,7,466.69922903300176,None,466.69922903300176,None,1,5.560888848998729,466.69922903300176,None,472.2938369879994,None,472.2938369879994,None,474.79864106899913,None,474.79864106899913,None,1.9187681609982974,476.6024741500005,None,476.6024741500005,None,5,1,1.0347145710002223,478.50557175799986,None,478.50557175799986,None,478.50557175799986,None,479.5572264799994,None,1,0.7178851930002565,479.5572264799994,None,20,480.2918483040012,None,121,A,1,2021_May_26_1754,GazeFlow,2020.1.2,59.87197073533088,
3,Block505.xls,A,,,,,,,,,,,,,,,,,,0,2,2,2,,,,,,,,,,,,,,,,,,,,,,,,,,,,,,,,,,,,,,,,,,,,121,A,1,2021_May_26_1754,GazeFlow,2020.1.2,59.87197073533088,
4,Block509.xls,A,9,1,34,34,12,congruent,Right,Right,Left,38,35,3,blue,2,5,/home/docky/apps/exp/images/38Bi.jpeg,/home/docky/apps/exp/images/35B.jpeg,0,3,3,3,0,0,0,0,502.7049508230011,None,502.7049508230011,None,1,5.749515728002734,502.7049508230011,None,508.48109833700073,None,508.48109833700073,None,511.00080154900206,None,511.00080154900206,None,1.550625845000468,512.806267123,None,512.806267123,None,5,1,1.0354098559982958,514.3419640950015,None,514.3419640950015,None,514.3419640950015,None,515.3933519970014,None,1,0.8849452399990696,515.3933519970014,None,22,516.2956047760017,None,121,A,1,2021_May_26_1754,GazeFlow,2020.1.2,59.87197073533088,
4,Block509.xls,A,9,2,7,7,11,congruent,Left,Left,Right,65,66,1,blue,2,6,/home/docky/apps/exp/images/35Yi.jpeg,/home/docky/apps/exp/images/66B.jpeg,0,3,3,3,0,1,1,1,517.2973312550021,None,517.2973312550021,None,1,5.845007941999938,517.2973312550021,None,523.1763871139992,None,523.1763871139992,None,525.6796171800015,None,525.6796171800015,None,1.4508362269989448,527.4773286160016,None,527.4773286160016,None,6,1,1.1188497749972157,528.9200090230006,None,528.9200090230006,None,528.9200090230006,None,530.055541124002,None,1,0.6844111860009434,530.055541124002,None,24,530.7567461969993,None,121,A,1,2021_May_26_1754,GazeFlow,2020.1.2,59.87197073533088,
4,Block509.xls,A,9,3,74,14,21,incongruent,Right,Left,Right,80,83,3,blue,2,6,/home/docky/apps/exp/images/80B.jpeg,/home/docky/apps/exp/images/83Bi.jpeg,0,3,3,3,0,2,2,2,531.7583160600007,None,531.7583160600007,None,1,4.910298152000905,531.7583160600007,None,536.7026505829999,None,536.7026505829999,None,539.2053597129998,None,539.2053597129998,None,1.434478990999196,541.0087880280007,None,541.0087880280007,None,5,0,1.0353977419981675,542.4296990670009,None,542.4296990670009,None,542.4296990670009,None,543.4816681010016,None,1,0.7009871840018604,543.4816681010016,None,22,544.1994729329999,None,121,A,1,2021_May_26_1754,GazeFlow,2020.1.2,59.87197073533088,
4,Block509.xls,A,9,4,19,19,11,congruent,Left,Left,Right,65,66,1,yellow,2,6,/home/docky/apps/exp/images/35Bi.jpeg,/home/docky/apps/exp/images/66Y.jpeg,0,3,3,3,0,3,3,3,545.2013083679994,None,545.2013083679994,None,1,6.212704388999555,545.2013083679994,None,551.4478917640008,None,551.4478917640008,None,553.9523732950001,None,553.9523732950001,None,1.8015862520005612,555.7563578520021,None,555.7563578520021,None,6,1,1.1851158630015561,557.5425394810009,None,557.5425394810009,None,557.5425394810009,None,558.7441239830005,None,1,0.651365744000941,558.7441239830005,None,24,559.4121697289993,None,121,A,1,2021_May_26_1754,GazeFlow,2020.1.2,59.87197073533088,
4,Block509.xls,A,9,5,60,60,12,congruent,Right,Right,Left,80,79,1,yellow,2,5,/home/docky/apps/exp/images/80Yi.jpeg,/home/docky/apps/exp/images/79Y.jpeg,0,3,3,3,0,4,4,4,560.4144760970012,None,560.4144760970012,None,1,5.126997057999688,560.4144760970012,None,565.575246411001,None,565.575246411001,None,568.0801778880013,None,568.0801778880013,None,2.085528326999338,569.8833300869992,None,569.8833300869992,None,6,0,1.3019124560014461,571.9539200079998,None,571.9539200079998,None,571.9539200079998,None,573.2723293929994,None,1,0.635037148000265,573.2723293929994,None,22,573.9238417090019,None,121,A,1,2021_May_26_1754,GazeFlow,2020.1.2,59.87197073533088,
4,Block509.xls,A,9,6,83,23,21,incongruent,Right,Left,Right,38,39,1,yellow,2,6,/home/docky/apps/exp/images/38Yi.jpeg,/home/docky/apps/exp/images/39Y.jpeg,0,3,3,3,0,5,5,5,574.9260616610009,None,574.9260616610009,None,1,6.279224646001239,574.9260616610009,None,581.2371899190002,None,581.2371899190002,None,583.7423402519998,None,583.7423402519998,None,2.5701950319999014,585.5459256270005,None,585.5459256270005,None,5,0,1.118065350001416,588.1191302629995,None,588.1191302629995,None,588.1191302629995,None,589.2533356089989,None,1,0.9689617119984177,589.2533356089989,None,20,590.2388205800016,None,121,A,1,2021_May_26_1754,GazeFlow,2020.1.2,59.87197073533088,
4,Block509.xls,A,9,7,4,4,11,congruent,Left,Left,Right,35,38,3,blue,2,6,/home/docky/apps/exp/images/35B.jpeg,/home/docky/apps/exp/images/38Bi.jpeg,0,3,3,3,0,6,6,6,591.2411463979988,None,591.2411463979988,None,1,6.79679517600016,591.2411463979988,None,598.0715186449997,None,598.0715186449997,None,600.5763435139997,None,600.5763435139997,None,2.2860285749993636,602.3726698150022,None,602.3726698150022,None,6,1,1.05135318399698,604.6506048680021,None,604.6506048680021,None,604.6506048680021,None,605.7186585599993,None,1,0.701722534999135,605.7186585599993,None,22,606.4374218060002,None,121,A,1,2021_May_26_1754,GazeFlow,2020.1.2,59.87197073533088,
4,Block509.xls,A,9,8,24,24,11,congruent,Left,Left,Right,38,39,1,yellow,2,6,/home/docky/apps/exp/images/38Y.jpeg,/home/docky/apps/exp/images/39Yi.jpeg,0,3,3,3,0,7,7,7,607.4392199229987,None,607.4392199229987,None,1,5.1439922979989205,607.4392199229987,None,612.620371205001,None,612.620371205001,None,615.1199602220004,None,615.1199602220004,None,1.3340448849994573,616.9248974940019,None,616.9248974940019,None,6,1,1.0186508300030255,618.243609049001,None,618.243609049001,None,618.243609049001,None,619.2788070880015,None,1,0.7179628669982776,619.2788070880015,None,24,620.0131996499986,None,121,A,1,2021_May_26_1754,GazeFlow,2020.1.2,59.87197073533088,
4,Block509.xls,A,,,,,,,,,,,,,,,,,,0,3,3,3,,,,,,,,,,,,,,,,,,,,,,,,,,,,,,,,,,,,,,,,,,,,121,A,1,2021_May_26_1754,GazeFlow,2020.1.2,59.87197073533088,
5,Block504.xls,A,4,1,11,11,11,congruent,Left,Left,Right,73,76,3,blue,2,6,/home/docky/apps/exp/images/73Bi.jpeg,/home/docky/apps/exp/images/76B.jpeg,0,4,4,4,0,0,0,0,642.4914903050012,None,642.4914903050012,None,1,5.316422081999917,642.4914903050012,None,647.8380694129992,None,647.8380694129992,None,650.3564932789996,None,650.3564932789996,None,1.3166654619999463,652.1583268950017,None,652.1583268950017,None,6,1,1.1025498659982986,653.4620512660003,None,653.4620512660003,None,653.4620512660003,None,654.5807091390016,None,1,0.9012939290005306,654.5807091390016,None,26,655.498522730999,None,121,A,1,2021_May_26_1754,GazeFlow,2020.1.2,59.87197073533088,
5,Block504.xls,A,4,2,87,27,21,incongruent,Right,Left,Right,72,77,5,yellow,2,6,/home/docky/apps/exp/images/72Y.jpeg,/home/docky/apps/exp/images/77Yi.jpeg,0,4,4,4,0,1,1,1,656.5014656659987,None,656.5014656659987,None,1,5.694774581999809,656.5014656659987,None,662.2296913159989,None,662.2296913159989,None,664.7320452320018,None,664.7320452320018,None,1.3340406850002182,666.535176616002,None,666.535176616002,None,6,1,1.1192111630007275,667.8567358869986,None,667.8567358869986,None,667.8567358869986,None,668.992057047999,None,1,0.7343136539966508,668.992057047999,None,28,669.7431223490021,None,121,A,1,2021_May_26_1754,GazeFlow,2020.1.2,59.87197073533088,
5,Block504.xls,A,4,3,48,48,12,congruent,Right,Right,Left,39,38,1,yellow,2,5,/home/docky/apps/exp/images/39Yi.jpeg,/home/docky/apps/exp/images/38Y.jpeg,0,4,4,4,0,2,2,2,670.7450852549991,None,670.7450852549991,None,1,5.6955562609982735,670.7450852549991,None,676.4738939220006,None,676.4738939220006,None,678.9769542710019,None,678.9769542710019,None,2.0854392900000676,680.7801962119993,None,680.7801962119993,None,5,1,1.0182081120001385,682.8524865379986,None,682.8524865379986,None,682.8524865379986,None,683.8869778440021,None,1,0.868814564000786,683.8869778440021,None,30,684.7721500560001,None,121,A,1,2021_May_26_1754,GazeFlow,2020.1.2,59.87197073533088,
5,Block504.xls,A,4,4,38,38,12,congruent,Right,Right,Left,79,73,6,blue,2,5,/home/docky/apps/exp/images/79B.jpeg,/home/docky/apps/exp/images/73Bi.jpeg,0,4,4,4,0,3,3,3,685.774699886002,None,685.774699886002,None,1,6.780048198001168,685.774699886002,None,692.5901250009993,None,692.5901250009993,None,695.0911309879993,None,695.0911309879993,None,1.8015631679991202,696.8955672449993,None,696.8955672449993,None,5,1,1.0854788849974284,698.6833109950021,None,698.6833109950021,None,698.6833109950021,None,699.7852598270001,None,1,0.8510629100019287,699.7852598270001,None,32,700.6532101480007,None,121,A,1,2021_May_26_1754,GazeFlow,2020.1.2,59.87197073533088,
5,Block504.xls,A,4,5,2,2,11,congruent,Left,Left,Right,16,19,3,blue,2,6,/home/docky/apps/exp/images/16B.jpeg,/home/docky/apps/exp/images/19Bi.jpeg,0,4,4,4,0,4,4,4,701.6555906409994,None,701.6555906409994,None,1,7.4478832019995025,701.6555906409994,None,709.1374142130007,None,709.1374142130007,None,711.6404039769986,None,711.6404039769986,None,1.8686979909980437,713.4392161479991,None,713.4392161479991,None,6,1,1.2353335770021658,715.2987265519987,None,715.2987265519987,None,715.2987265519987,None,716.5505181350018,None,1,0.7351926119990821,716.5505181350018,None,34,717.3025779000018,None,121,A,1,2021_May_26_1754,GazeFlow,2020.1.2,59.87197073533088,
5,Block504.xls,A,4,6,73,13,21,incongruent,Right,Left,Right,80,83,3,blue,2,6,/home/docky/apps/exp/images/80Bi.jpeg,/home/docky/apps/exp/images/83B.jpeg,0,4,4,4,0,5,5,5,718.3043645180005,None,718.3043645180005,None,1,5.494189925000683,718.3043645180005,None,723.8325216789999,None,723.8325216789999,None,726.3374222509992,None,726.3374222509992,None,1.5011655909984256,728.1409918560021,None,728.1409918560021,None,6,1,1.2524307780004165,729.6266111030018,None,729.6266111030018,None,729.6266111030018,None,730.8956495210005,None,1,0.9850367750004807,730.8956495210005,None,36,731.897034419002,None,121,A,1,2021_May_26_1754,GazeFlow,2020.1.2,59.87197073533088,
5,Block504.xls,A,4,7,63,3,21,incongruent,Right,Left,Right,35,38,3,blue,2,6,/home/docky/apps/exp/images/35B.jpeg,/home/docky/apps/exp/images/38Bi.jpeg,0,4,4,4,0,6,6,6,732.8996518720014,None,732.8996518720014,None,1,5.377207277000707,732.8996518720014,None,738.3107624680015,None,738.3107624680015,None,740.81670725,None,740.81670725,None,1.5014904489980836,742.6169387590016,None,742.6169387590016,None,6,1,1.1858243549977487,744.1050408840019,None,744.1050408840019,None,744.1050408840019,None,745.3068807179989,None,1,1.0351558289985405,745.3068807179989,None,38,746.3582697490019,None,121,A,1,2021_May_26_1754,GazeFlow,2020.1.2,59.87197073533088,
5,Block504.xls,A,4,8,86,26,21,incongruent,Right,Left,Right,72,77,5,yellow,2,6,/home/docky/apps/exp/images/72Yi.jpeg,/home/docky/apps/exp/images/77Y.jpeg,0,4,4,4,0,7,7,7,747.3609056169989,None,747.3609056169989,None,1,5.77825027200015,747.3609056169989,None,753.1730082009999,None,753.1730082009999,None,755.6778221759996,None,755.6778221759996,None,1.4668169750002562,757.4753283760001,None,757.4753283760001,None,6,1,1.1529193940004916,758.933581319001,None,758.933581319001,None,758.933581319001,None,760.1024763189998,None,1,0.7844168920019001,760.1024763189998,None,40,760.9035907260004,None,121,A,1,2021_May_26_1754,GazeFlow,2020.1.2,59.87197073533088,
5,Block504.xls,A,,,,,,,,,,,,,,,,,,0,4,4,4,,,,,,,,,,,,,,,,,,,,,,,,,,,,,,,,,,,,,,,,,,,,121,A,1,2021_May_26_1754,GazeFlow,2020.1.2,59.87197073533088,
6,Block511.xls,A,11,1,15,15,11,congruent,Left,Left,Right,80,83,3,blue,2,6,/home/docky/apps/exp/images/80Bi.jpeg,/home/docky/apps/exp/images/83B.jpeg,0,5,5,5,0,0,0,0,781.6791594950009,None,781.6791594950009,None,1,5.898129599998356,781.6791594950009,None,787.6046404850022,None,787.6046404850022,None,790.1336836920018,None,790.1336836920018,None,1.9011806529997557,791.9316218460008,None,791.9316218460008,None,6,1,1.067983387998538,793.8179831060006,None,793.8179831060006,None,793.8179831060006,None,794.9029262539989,None,1,0.7513911339992774,794.9029262539989,None,42,795.6710756130014,None,121,A,1,2021_May_26_1754,GazeFlow,2020.1.2,59.87197073533088,
6,Block511.xls,A,11,2,105,45,22,incongruent,Left,Right,Left,39,38,1,blue,2,5,/home/docky/apps/exp/images/39Bi.jpeg,/home/docky/apps/exp/images/38B.jpeg,0,5,5,5,0,1,1,1,796.6734168129988,None,796.6734168129988,None,1,5.327743398000166,796.6734168129988,None,802.0352506540003,None,802.0352506540003,None,804.5391489060021,None,804.5391489060021,None,1.3507572570015327,806.3363787109993,None,806.3363787109993,None,6,0,1.0360230559999763,807.6783487690009,None,807.6783487690009,None,807.6783487690009,None,808.7301867669994,None,1,0.7342306009995809,808.7301867669994,None,40,809.4812604299987,None,121,A,1,2021_May_26_1754,GazeFlow,2020.1.2,59.87197073533088,
6,Block511.xls,A,11,3,68,8,21,incongruent,Right,Left,Right,38,39,1,blue,2,6,/home/docky/apps/exp/images/38B.jpeg,/home/docky/apps/exp/images/39Bi.jpeg,0,5,5,5,0,2,2,2,810.4831783619993,None,810.4831783619993,None,1,5.077627244001633,810.4831783619993,None,815.5922464930009,None,815.5922464930009,None,818.0965780139995,None,818.0965780139995,None,1.3346003929982544,819.9005465310001,None,819.9005465310001,None,6,1,1.1025272000006225,821.2212722830009,None,821.2212722830009,None,821.2212722830009,None,822.3398923810018,None,1,0.6843289169992204,822.3398923810018,None,42,823.0409386149986,None,121,A,1,2021_May_26_1754,GazeFlow,2020.1.2,59.87197073533088,
6,Block511.xls,A,11,4,80,20,21,incongruent,Right,Left,Right,62,65,3,yellow,2,6,/home/docky/apps/exp/images/38Bi.jpeg,/home/docky/apps/exp/images/35B.jpeg,0,5,5,5,0,3,3,3,824.0430478140006,None,824.0430478140006,None,1,5.3107216710013745,824.0430478140006,None,829.3873490049991,None,829.3873490049991,None,831.892171522999,None,831.892171522999,None,1.651098667000042,833.6960454159998,None,833.6960454159998,None,6,1,1.0854327790002571,835.3319829140019,None,835.3319829140019,None,835.3319829140019,None,836.4339585990019,None,1,0.9181699210021179,836.4339585990019,None,44,837.3686352639997,None,121,A,1,2021_May_26_1754,GazeFlow,2020.1.2,59.87197073533088,
6,Block511.xls,A,11,5,5,5,11,congruent,Left,Left,Right,65,66,1,blue,2,6,/home/docky/apps/exp/images/35Yi.jpeg,/home/docky/apps/exp/images/66B.jpeg,0,5,5,5,0,4,4,4,838.3710892620002,None,838.3710892620002,None,1,5.561080945000867,838.3710892620002,None,843.9638917730008,None,843.9638917730008,None,846.4709132150019,None,846.4709132150019,None,2.2358702439996705,848.2728396439998,None,848.2728396439998,None,6,1,1.0683906129997922,850.494727223002,None,850.494727223002,None,850.494727223002,None,851.5795001650004,None,1,0.7350343340003747,851.5795001650004,None,46,852.3307687410015,None,121,A,1,2021_May_26_1754,GazeFlow,2020.1.2,59.87197073533088,
6,Block511.xls,A,11,6,18,18,11,congruent,Left,Left,Right,65,66,1,yellow,2,6,/home/docky/apps/exp/images/35B.jpeg,/home/docky/apps/exp/images/66Yi.jpeg,0,5,5,5,0,5,5,5,853.3333689479987,None,853.3333689479987,None,1,5.928487737000978,853.3333689479987,None,859.2956261420004,None,859.2956261420004,None,861.798207795,None,861.798207795,None,1.885167571999773,863.6017786250013,None,863.6017786250013,None,6,1,1.3191354320006212,865.4739374929995,None,865.4739374929995,None,865.4739374929995,None,866.809201819,None,1,0.651314087001083,866.809201819,None,48,867.4773162009988,None,121,A,1,2021_May_26_1754,GazeFlow,2020.1.2,59.87197073533088,
6,Block511.xls,A,11,7,25,25,11,congruent,Left,Left,Right,69,75,6,yellow,2,6,/home/docky/apps/exp/images/69Yi.jpeg,/home/docky/apps/exp/images/76Y.jpeg,0,5,5,5,0,6,6,6,868.4795447450015,None,868.4795447450015,None,1,5.677913559000444,868.4795447450015,None,874.191130526,None,874.191130526,None,876.6939574230018,None,876.6939574230018,None,1.4845217340007366,878.4924691410015,None,878.4924691410015,None,6,1,1.0525295160005044,879.9685465190014,None,879.9685465190014,None,879.9685465190014,None,881.0371941570011,None,1,0.6342936250002822,881.0371941570011,None,50,881.6880177099993,None,121,A,1,2021_May_26_1754,GazeFlow,2020.1.2,59.87197073533088,
6,Block511.xls,A,11,8,3,3,11,congruent,Left,Left,Right,35,38,3,blue,2,6,/home/docky/apps/exp/images/35Bi.jpeg,/home/docky/apps/exp/images/38B.jpeg,0,5,5,5,0,7,7,7,882.689762672002,None,882.689762672002,None,1,5.311188759002107,882.689762672002,None,888.0333146449993,None,888.0333146449993,None,890.5375377720011,None,890.5375377720011,None,1.801692714998353,892.3351748320019,None,892.3351748320019,None,6,1,1.0688329820004583,894.1295708990001,None,894.1295708990001,None,894.1295708990001,None,895.2148959430015,None,1,0.6675202830010676,895.2148959430015,None,52,895.899200879001,None,121,A,1,2021_May_26_1754,GazeFlow,2020.1.2,59.87197073533088,
6,Block511.xls,A,,,,,,,,,,,,,,,,,,0,5,5,5,,,,,,,,,,,,,,,,,,,,,,,,,,,,,,,,,,,,,,,,,,,,121,A,1,2021_May_26_1754,GazeFlow,2020.1.2,59.87197073533088,
7,Block508.xls,A,8,1,13,13,11,congruent,Left,Left,Right,76,79,3,blue,2,6,/home/docky/apps/exp/images/76Bi.jpeg,/home/docky/apps/exp/images/79B.jpeg,0,6,6,6,0,0,0,0,922.9871445079989,None,922.9871445079989,None,1,6.645556293999107,922.9871445079989,None,929.6593997140008,None,929.6593997140008,None,932.1855050429986,None,932.1855050429986,None,1.3671876560001692,933.9742269660019,None,933.9742269660019,None,6,1,1.0847937269973045,935.326123750001,None,935.326123750001,None,935.326123750001,None,936.427815305,None,1,0.5847224520002783,936.427815305,None,54,937.028897346001,None,121,A,1,2021_May_26_1754,GazeFlow,2020.1.2,59.87197073533088,
7,Block508.xls,A,8,2,21,21,11,congruent,Left,Left,Right,62,65,3,yellow,2,6,/home/docky/apps/exp/images/38B.jpeg,/home/docky/apps/exp/images/35Bi.jpeg,0,6,6,6,0,1,1,1,938.0310621790013,None,938.0310621790013,None,1,5.5279093100034515,938.0310621790013,None,943.5927883100012,None,943.5927883100012,None,946.0956895980016,None,946.0956895980016,None,2.5870835640016594,947.8995250389999,None,947.8995250389999,None,6,1,1.1349053720005031,950.4892250390003,None,950.4892250390003,None,950.4892250390003,None,951.6406893860003,None,1,0.7348009460001776,951.6406893860003,None,56,952.392080734,None,121,A,1,2021_May_26_1754,GazeFlow,2020.1.2,59.87197073533088,
7,Block508.xls,A,8,3,99,39,22,incongruent,Left,Right,Left,79,76,3,blue,2,5,/home/docky/apps/exp/images/79Bi.jpeg,/home/docky/apps/exp/images/76B.jpeg,0,6,6,6,0,2,2,2,953.3944766259992,None,953.3944766259992,None,1,6.312505885998689,953.3944766259992,None,959.740713520001,None,959.740713520001,None,962.2442270159991,None,962.2442270159991,None,2.168971128998237,964.0493334950006,None,964.0493334950006,None,5,1,1.0351243730001443,966.2026299780009,None,966.2026299780009,None,966.2026299780009,None,967.2543244240005,None,1,0.7013427579986455,967.2543244240005,None,58,967.972336412,None,121,A,1,2021_May_26_1754,GazeFlow,2020.1.2,59.87197073533088,
7,Block508.xls,A,8,4,37,37,12,congruent,Right,Right,Left,66,65,1,blue,2,5,/home/docky/apps/exp/images/66Bi.jpeg,/home/docky/apps/exp/images/35Y.jpeg,0,6,6,6,0,3,3,3,968.9748678420001,None,968.9748678420001,None,1,5.728292666997731,968.9748678420001,None,974.7364404770015,None,974.7364404770015,None,977.2414398469991,None,977.2414398469991,None,1.5682338219994563,979.0423684599991,None,979.0423684599991,None,5,1,1.0014553119981429,980.5974190849993,None,980.5974190849993,None,980.5974190849993,None,981.615565594002,None,1,0.7516030780025176,981.615565594002,None,60,982.3836194100004,None,121,A,1,2021_May_26_1754,GazeFlow,2020.1.2,59.87197073533088,
7,Block508.xls,A,8,5,82,22,21,incongruent,Right,Left,Right,38,39,1,yellow,2,6,/home/docky/apps/exp/images/38Y.jpeg,/home/docky/apps/exp/images/39Yi.jpeg,0,6,6,6,0,4,4,4,983.3861439909997,None,983.3861439909997,None,1,6.630134653998539,983.3861439909997,None,990.0496953350012,None,990.0496953350012,None,992.5551247410003,None,992.5551247410003,None,1.4175949550008227,994.350543503002,None,994.350543503002,None,6,1,1.1020800240003155,995.760212625999,None,995.760212625999,None,995.760212625999,None,996.8788666979999,None,1,0.7848229170012928,996.8788666979999,None,62,997.6799146420017,None,121,A,1,2021_May_26_1754,GazeFlow,2020.1.2,59.87197073533088,
7,Block508.xls,A,8,6,104,44,22,incongruent,Left,Right,Left,39,38,1,blue,2,5,/home/docky/apps/exp/images/39B.jpeg,/home/docky/apps/exp/images/38Bi.jpeg,0,6,6,6,0,5,5,5,998.6824439720003,None,998.6824439720003,None,1,6.412740536998172,998.6824439720003,None,1005.1290741779994,None,1005.1290741779994,None,1007.6315527369989,None,1007.6315527369989,None,1.6180715529990266,1009.4297832699995,None,1009.4297832699995,None,5,1,1.1018049960002827,1011.0397970140002,None,1011.0397970140002,None,1011.0397970140002,None,1012.1578267850018,None,1,0.6849937299994053,1012.1578267850018,None,64,1012.8594594380011,None,121,A,1,2021_May_26_1754,GazeFlow,2020.1.2,59.87197073533088,
7,Block508.xls,A,8,7,39,39,12,congruent,Right,Right,Left,79,73,6,blue,2,5,/home/docky/apps/exp/images/79B.jpeg,/home/docky/apps/exp/images/73Bi.jpeg,0,6,6,6,0,6,6,6,1013.8618828629988,None,1013.8618828629988,None,1,6.0453479690004315,1013.8618828629988,None,1019.9408771000017,None,1019.9408771000017,None,1022.4439568220005,None,1022.4439568220005,None,1.517999243002123,1024.2469209810006,None,1024.2469209810006,None,5,1,1.0849404499967932,1025.751751431002,None,1025.751751431002,None,1025.751751431002,None,1026.8534664360013,None,1,0.6680349689995637,1026.8534664360013,None,66,1027.5378906529986,None,121,A,1,2021_May_26_1754,GazeFlow,2020.1.2,59.87197073533088,
7,Block508.xls,A,8,8,36,36,12,congruent,Right,Right,Left,66,65,1,blue,2,5,/home/docky/apps/exp/images/66B.jpeg,/home/docky/apps/exp/images/35Yi.jpeg,0,6,6,6,0,7,7,7,1028.5403472020007,None,1028.5403472020007,None,1,10.78836682399924,1028.5403472020007,None,1039.3648964669992,None,1039.3648964669992,None,1041.8656031589999,None,1041.8656031589999,None,2.5375008169976354,1043.6690624610019,None,1043.6690624610019,None,5,1,1.0512326320022112,1046.2087359239995,None,1046.2087359239995,None,1046.2087359239995,None,1047.276132305,None,1,0.8022774730015954,1047.276132305,None,68,1048.0947810549987,None,121,A,1,2021_May_26_1754,GazeFlow,2020.1.2,59.87197073533088,
7,Block508.xls,A,,,,,,,,,,,,,,,,,,0,6,6,6,,,,,,,,,,,,,,,,,,,,,,,,,,,,,,,,,,,,,,,,,,,,121,A,1,2021_May_26_1754,GazeFlow,2020.1.2,59.87197073533088,
8,Block510.xls,A,10,1,102,42,22,incongruent,Left,Right,Left,83,80,3,blue,2,5,/home/docky/apps/exp/images/83B.jpeg,/home/docky/apps/exp/images/80Bi.jpeg,0,7,7,7,0,0,0,0,1074.4973626749997,None,1074.4973626749997,None,1,7.251463091000915,1074.4973626749997,None,1081.774865812,None,1081.774865812,None,1084.299269301002,None,1084.299269301002,None,1.4004087950015673,1086.1029665409988,None,1086.1029665409988,None,5,1,1.0686267769997357,1087.488456854,None,1087.488456854,None,1087.488456854,None,1088.573635380002,None,1,0.6679242479985987,1088.573635380002,None,70,1089.2574669189999,None,121,A,1,2021_May_26_1754,GazeFlow,2020.1.2,59.87197073533088,
8,Block510.xls,A,10,2,114,54,22,incongruent,Left,Right,Left,76,69,7,yellow,2,5,/home/docky/apps/exp/images/76Yi.jpeg,/home/docky/apps/exp/images/69Y.jpeg,0,7,7,7,0,1,1,1,1090.2600640769997,None,1090.2600640769997,None,1,6.930649865000305,1090.2600640769997,None,1097.224179197001,None,1097.224179197001,None,1099.7270696170017,None,1099.7270696170017,None,1.6345165480015567,1101.530843118002,None,1101.530843118002,None,5,1,1.1023725049999484,1103.1521578909997,None,1103.1521578909997,None,1103.1521578909997,None,1104.2706648290005,None,1,0.9687675980021595,1104.2706648290005,None,72,1105.2553226349992,None,121,A,1,2021_May_26_1754,GazeFlow,2020.1.2,59.87197073533088,
8,Block510.xls,A,10,3,72,12,21,incongruent,Right,Left,Right,76,79,3,blue,2,6,/home/docky/apps/exp/images/76Bi.jpeg,/home/docky/apps/exp/images/79B.jpeg,0,7,7,7,0,2,2,2,1106.2579395719986,None,1106.2579395719986,None,1,6.1963104759997805,1106.2579395719986,None,1112.487547746001,None,1112.487547746001,None,1114.9924804080001,None,1114.9924804080001,None,1.6015662050012907,1116.793314046001,None,1116.793314046001,None,6,1,1.2022769180002797,1118.3818610250019,None,1118.3818610250019,None,1118.3818610250019,None,1119.6005549340007,None,1,0.7340262639991124,1119.6005549340007,None,74,1120.3514791310008,None,121,A,1,2021_May_26_1754,GazeFlow,2020.1.2,59.87197073533088,
8,Block510.xls,A,10,4,112,52,22,incongruent,Left,Right,Left,75,69,6,yellow,2,5,/home/docky/apps/exp/images/76Y.jpeg,/home/docky/apps/exp/images/69Yi.jpeg,0,7,7,7,0,3,3,3,1121.3539121520007,None,1121.3539121520007,None,1,6.4295513599972764,1121.3539121520007,None,1127.8155039400008,None,1127.8155039400008,None,1130.320084785999,None,1130.320084785999,None,1.5512072160017851,1132.1234526010012,None,1132.1234526010012,None,5,1,1.1016574440000113,1133.661373441002,None,1133.661373441002,None,1133.661373441002,None,1134.7795665340018,None,1,0.7182450690015685,1134.7795665340018,None,76,1135.5143275970004,None,121,A,1,2021_May_26_1754,GazeFlow,2020.1.2,59.87197073533088,
8,Block510.xls,A,10,5,17,17,11,congruent,Left,Left,Right,33,35,2,yellow,2,6,/home/docky/apps/exp/images/33Y.jpeg,/home/docky/apps/exp/images/35Yi.jpeg,0,7,7,7,0,4,4,4,1136.516264476002,None,1136.516264476002,None,1,6.596916953996697,1136.516264476002,None,1143.146806847999,None,1143.146806847999,None,1145.6517069360016,None,1145.6517069360016,None,1.534537919997092,1147.4481706939987,None,1147.4481706939987,None,6,1,1.085918684999342,1148.9744147339989,None,1148.9744147339989,None,1148.9744147339989,None,1150.0763979080002,None,1,0.8515855120022024,1150.0763979080002,None,78,1150.944495312,None,121,A,1,2021_May_26_1754,GazeFlow,2020.1.2,59.87197073533088,
8,Block510.xls,A,10,6,31,31,12,congruent,Right,Right,Left,19,16,3,blue,2,5,/home/docky/apps/exp/images/19Bi.jpeg,/home/docky/apps/exp/images/16B.jpeg,0,7,7,7,0,5,5,5,1151.9466500900016,None,1151.9466500900016,None,1,5.9286030209987075,1151.9466500900016,None,1157.91054859,None,1157.91054859,None,1160.4119820960004,None,1160.4119820960004,None,1.5676637920005305,1162.216040260002,None,1162.216040260002,None,5,1,1.0855641349990037,1163.7698111460013,None,1163.7698111460013,None,1163.7698111460013,None,1164.8718768780018,None,1,1.101744122999662,1164.8718768780018,None,80,1165.9901244540015,None,121,A,1,2021_May_26_1754,GazeFlow,2020.1.2,59.87197073533088,
8,Block510.xls,A,10,7,61,1,21,incongruent,Right,Left,Right,16,19,3,blue,2,6,/home/docky/apps/exp/images/16Bi.jpeg,/home/docky/apps/exp/images/19B.jpeg,0,7,7,7,0,6,6,6,1166.9925941580004,None,1166.9925941580004,None,1,6.8970221700001275,1166.9925941580004,None,1173.923508887001,None,1173.923508887001,None,1176.426394004,None,1176.426394004,None,1.9190888680022908,1178.2300767429988,None,1178.2300767429988,None,6,1,1.0519776139990427,1180.1346887580003,None,1180.1346887580003,None,1180.1346887580003,None,1181.2031913850005,None,1,0.7182542289992853,1181.2031913850005,None,82,1181.937909635999,None,121,A,1,2021_May_26_1754,GazeFlow,2020.1.2,59.87197073533088,
8,Block510.xls,A,10,8,94,34,22,incongruent,Left,Right,Left,38,35,3,blue,2,5,/home/docky/apps/exp/images/38Bi.jpeg,/home/docky/apps/exp/images/35B.jpeg,0,7,7,7,0,7,7,7,1182.9402923589987,None,1182.9402923589987,None,1,5.728045084000769,1182.9402923589987,None,1188.7021830949998,None,1188.7021830949998,None,1191.2050447619986,None,1191.2050447619986,None,1.6514597469977161,1193.0088300909993,None,1193.0088300909993,None,5,1,1.1860077130004356,1194.6463943519993,None,1194.6463943519993,None,1194.6463943519993,None,1195.8485564469993,None,1,0.8346740010019857,1195.8485564469993,None,84,1196.699799676,None,121,A,1,2021_May_26_1754,GazeFlow,2020.1.2,59.87197073533088,
8,Block510.xls,A,,,,,,,,,,,,,,,,,,0,7,7,7,,,,,,,,,,,,,,,,,,,,,,,,,,,,,,,,,,,,,,,,,,,,121,A,1,2021_May_26_1754,GazeFlow,2020.1.2,59.87197073533088,
9,Block507.xls,A,7,1,110,50,22,incongruent,Left,Right,Left,66,65,1,yellow,2,5,/home/docky/apps/exp/images/66Y.jpeg,/home/docky/apps/exp/images/35Bi.jpeg,0,8,8,8,0,0,0,0,1217.49370902,None,1217.49370902,None,1,5.850384741002927,1217.49370902,None,1223.3702276330005,None,1223.3702276330005,None,1225.8910249590008,None,1225.8910249590008,None,1.701273315000435,1227.6942146619986,None,1227.6942146619986,None,5,1,1.0854309629976342,1229.3806424489994,None,1229.3806424489994,None,1229.3806424489994,None,1230.4825771659998,None,1,0.7510110750008607,1230.4825771659998,None,86,1231.2502844920018,None,121,A,1,2021_May_26_1754,GazeFlow,2020.1.2,59.87197073533088,
9,Block507.xls,A,7,2,90,30,22,incongruent,Right,Left,Right,16,19,3,blue,2,6,/home/docky/apps/exp/images/16Bi.jpeg,/home/docky/apps/exp/images/19B.jpeg,0,8,8,8,0,1,1,1,1232.2523736479998,None,1232.2523736479998,None,1,7.214644088999194,1232.2523736479998,None,1239.5007152139988,None,1239.5007152139988,None,1242.0039097020017,None,1242.0039097020017,None,1.5845841459995427,1243.8072226709992,None,1243.8072226709992,None,6,1,1.1026866169995628,1245.378276293999,None,1245.378276293999,None,1245.378276293999,None,1246.4970316729996,None,1,0.5840189029986504,1246.4970316729996,None,88,1247.0977773420018,None,121,A,1,2021_May_26_1754,GazeFlow,2020.1.2,59.87197073533088,
9,Block507.xls,A,7,3,16,16,11,congruent,Left,Left,Right,33,35,2,yellow,2,6,/home/docky/apps/exp/images/33Yi.jpeg,/home/docky/apps/exp/images/35Y.jpeg,0,8,8,8,0,2,2,2,1248.0999456930003,None,1248.0999456930003,None,1,5.845128203000058,1248.0999456930003,None,1253.978811590001,None,1253.978811590001,None,1256.4837629579997,None,1256.4837629579997,None,1.9519946580003307,1258.2851074760001,None,1258.2851074760001,None,6,1,1.068436665002082,1260.223955843001,None,1260.223955843001,None,1260.223955843001,None,1261.3086315510009,None,1,0.7851250259991502,1261.3086315510009,None,90,1262.1103143239998,None,121,A,1,2021_May_26_1754,GazeFlow,2020.1.2,59.87197073533088,
9,Block507.xls,A,7,4,117,57,22,incongruent,Left,Right,Left,77,72,5,yellow,2,5,/home/docky/apps/exp/images/77Y.jpeg,/home/docky/apps/exp/images/72Yi.jpeg,0,8,8,8,0,3,3,3,1263.112675463999,None,1263.112675463999,None,1,6.462805365998065,1263.112675463999,None,1269.609150016,None,1269.609150016,None,1272.1120244800004,None,1272.1120244800004,None,2.420046786999592,1273.9150102029998,None,1273.9150102029998,None,5,1,1.0981178990004992,1276.3253766339985,None,1276.3253766339985,None,1276.3253766339985,None,1277.4400762639998,None,1,0.8516767030014307,1277.4400762639998,None,92,1278.3082803959987,None,121,A,1,2021_May_26_1754,GazeFlow,2020.1.2,59.87197073533088,
9,Block507.xls,A,7,5,53,53,12,congruent,Right,Right,Left,75,69,6,yellow,2,5,/home/docky/apps/exp/images/76Yi.jpeg,/home/docky/apps/exp/images/69Y.jpeg,0,8,8,8,0,4,4,4,1279.3107801160004,None,1279.3107801160004,None,1,6.379264661001798,1279.3107801160004,None,1285.7240010620008,None,1285.7240010620008,None,1288.2269438549993,None,1288.2269438549993,None,2.3868433060015377,1290.030163031999,None,1290.030163031999,None,5,1,1.0503881250006089,1292.4037932329993,None,1292.4037932329993,None,1292.4037932329993,None,1293.470988240002,None,1,0.7348988140001893,1293.470988240002,None,94,1294.2225686349993,None,121,A,1,2021_May_26_1754,GazeFlow,2020.1.2,59.87197073533088,
9,Block507.xls,A,7,6,96,36,22,incongruent,Left,Right,Left,66,65,1,blue,2,5,/home/docky/apps/exp/images/66Bi.jpeg,/home/docky/apps/exp/images/35Y.jpeg,0,8,8,8,0,5,5,5,1295.2249951599988,None,1295.2249951599988,None,1,6.613220673003525,1295.2249951599988,None,1301.870416542999,None,1301.870416542999,None,1304.3750476509995,None,1304.3750476509995,None,1.4008909730000596,1306.180271961999,None,1306.180271961999,None,6,0,1.0854973269997572,1307.565834453002,None,1307.565834453002,None,1307.565834453002,None,1308.6677966850002,None,1,0.6339890309973271,1308.6677966850002,None,92,1309.3186137010016,None,121,A,1,2021_May_26_1754,GazeFlow,2020.1.2,59.87197073533088,
9,Block507.xls,A,7,7,58,58,12,congruent,Right,Right,Left,77,72,5,yellow,2,5,/home/docky/apps/exp/images/77Yi.jpeg,/home/docky/apps/exp/images/72Y.jpeg,0,8,8,8,0,6,6,6,1310.3203851610015,None,1310.3203851610015,None,1,7.181467434998922,1310.3203851610015,None,1317.534188927999,None,1317.534188927999,None,1320.0438903850009,None,1320.0438903850009,None,1.8350510540003597,1321.8425205480016,None,1321.8425205480016,None,5,1,1.069185562999337,1323.6638538389998,None,1323.6638538389998,None,1323.6638538389998,None,1324.7489546879988,None,1,0.7512870880018454,1324.7489546879988,None,94,1325.5168095650006,None,121,A,1,2021_May_26_1754,GazeFlow,2020.1.2,59.87197073533088,
9,Block507.xls,A,7,8,41,41,12,congruent,Right,Right,Left,79,76,3,blue,2,5,/home/docky/apps/exp/images/79Bi.jpeg,/home/docky/apps/exp/images/76B.jpeg,0,8,8,8,0,7,7,7,1326.5190654639991,None,1326.5190654639991,None,1,6.0625432660017395,1326.5190654639991,None,1332.6150871470018,None,1332.6150871470018,None,1335.1180849180018,None,1335.1180849180018,None,1.4176974949987198,1336.9214187940015,None,1336.9214187940015,None,5,1,1.0855448479996994,1338.3254814200009,None,1338.3254814200009,None,1338.3254814200009,None,1339.427534368002,None,1,0.6843986220010265,1339.427534368002,None,96,1340.1286735100002,None,121,A,1,2021_May_26_1754,GazeFlow,2020.1.2,59.87197073533088,
9,Block507.xls,A,,,,,,,,,,,,,,,,,,0,8,8,8,,,,,,,,,,,,,,,,,,,,,,,,,,,,,,,,,,,,,,,,,,,,121,A,1,2021_May_26_1754,GazeFlow,2020.1.2,59.87197073533088,
10,Block515.xls,A,15,1,107,47,22,incongruent,Left,Right,Left,35,33,2,yellow,2,5,/home/docky/apps/exp/images/35Yi.jpeg,/home/docky/apps/exp/images/33Y.jpeg,0,9,9,9,0,0,0,0,1360.7197278249987,None,1360.7197278249987,None,1,7.772806385997683,1360.7197278249987,None,1368.521949045,None,1368.521949045,None,1371.0394465319987,None,1371.0394465319987,None,2.001588093000464,1372.8428746479985,None,1372.8428746479985,None,5,1,0.9684818819987413,1374.8297348230008,None,1374.8297348230008,None,1374.8297348230008,None,1375.8143082899987,None,1,0.61814556200261,1375.8143082899987,None,98,1376.4490278140001,None,121,A,1,2021_May_26_1754,GazeFlow,2020.1.2,59.87197073533088,
10,Block515.xls,A,15,2,55,55,12,congruent,Right,Right,Left,76,69,7,yellow,2,5,/home/docky/apps/exp/images/76Yi.jpeg,/home/docky/apps/exp/images/69Y.jpeg,0,9,9,9,0,1,1,1,1377.4506311959994,None,1377.4506311959994,None,1,5.678855359001318,1377.4506311959994,None,1383.1630835649994,None,1383.1630835649994,None,1385.666400686001,None,1385.666400686001,None,2.1022483540000394,1387.4641905919998,None,1387.4641905919998,None,5,1,1.0517118700008723,1389.558268793,None,1389.558268793,None,1389.558268793,None,1390.626376774002,None,1,0.6348497279977892,1390.626376774002,None,100,1391.2775917979998,None,121,A,1,2021_May_26_1754,GazeFlow,2020.1.2,59.87197073533088,
10,Block515.xls,A,15,3,75,15,21,incongruent,Right,Left,Right,33,35,2,yellow,2,6,/home/docky/apps/exp/images/33Yi.jpeg,/home/docky/apps/exp/images/35Y.jpeg,0,9,9,9,0,2,2,2,1392.2801258,None,1392.2801258,None,1,5.945253070000035,1392.2801258,None,1398.2589342559986,None,1398.2589342559986,None,1400.7624038540016,None,1400.7624038540016,None,1.701449740001408,1402.5656530320011,None,1402.5656530320011,None,5,0,1.0853660719985783,1404.2535945689997,None,1404.2535945689997,None,1404.2535945689997,None,1405.3555638100006,None,1,0.6173165449981752,1405.3555638100006,None,98,1405.989868187,None,121,A,1,2021_May_26_1754,GazeFlow,2020.1.2,59.87197073533088,
10,Block515.xls,A,15,4,62,2,21,incongruent,Right,Left,Right,35,38,3,blue,2,6,/home/docky/apps/exp/images/35Bi.jpeg,/home/docky/apps/exp/images/38B.jpeg,0,9,9,9,0,3,3,3,1406.991852121002,None,1406.991852121002,None,1,7.381512129999464,1406.991852121002,None,1414.4073455830003,None,1414.4073455830003,None,1416.9103571759988,None,1416.9103571759988,None,1.401005162999354,1418.7131291320002,None,1418.7131291320002,None,6,1,1.136207473999093,1420.101093666999,None,1420.101093666999,None,1420.101093666999,None,1421.2531444509987,None,1,0.617238852999435,1421.2531444509987,None,100,1421.8872183410022,None,121,A,1,2021_May_26_1754,GazeFlow,2020.1.2,59.87197073533088,
10,Block515.xls,A,15,5,100,40,22,incongruent,Left,Right,Left,79,76,3,blue,2,5,/home/docky/apps/exp/images/79Bi.jpeg,/home/docky/apps/exp/images/76B.jpeg,0,9,9,9,0,4,4,4,1422.8891422849993,None,1422.8891422849993,None,1,6.3134516229984,1422.8891422849993,None,1429.2360293269994,None,1429.2360293269994,None,1431.738797468999,None,1431.738797468999,None,1.6010909420001553,1433.5422530309988,None,1433.5422530309988,None,5,1,1.0023847860029491,1435.1303398160017,None,1435.1303398160017,None,1435.1303398160017,None,1436.1485891679986,None,1,0.784486480999476,1436.1485891679986,None,102,1436.949829723002,None,121,A,1,2021_May_26_1754,GazeFlow,2020.1.2,59.87197073533088,
10,Block515.xls,A,15,6,108,48,22,incongruent,Left,Right,Left,39,38,1,yellow,2,5,/home/docky/apps/exp/images/39Y.jpeg,/home/docky/apps/exp/images/38Yi.jpeg,0,9,9,9,0,5,5,5,1437.9519469650004,None,1437.9519469650004,None,1,6.480038738998701,1437.9519469650004,None,1444.465662953,None,1444.465662953,None,1446.968967519002,None,1446.968967519002,None,1.5515193609971902,1448.7715435419996,None,1448.7715435419996,None,5,1,1.2189846569999645,1450.3097426599998,None,1450.3097426599998,None,1450.3097426599998,None,1451.5452541269988,None,1,0.8178787580000062,1451.5452541269988,None,104,1452.379718889002,None,121,A,1,2021_May_26_1754,GazeFlow,2020.1.2,59.87197073533088,
10,Block515.xls,A,15,7,59,59,12,congruent,Right,Right,Left,80,79,1,yellow,2,5,/home/docky/apps/exp/images/80Y.jpeg,/home/docky/apps/exp/images/79Yi.jpeg,0,9,9,9,0,6,6,6,1453.3820870689997,None,1453.3820870689997,None,1,7.1644259889981186,1453.3820870689997,None,1460.5799716379988,None,1460.5799716379988,None,1463.0830621200002,None,1463.0830621200002,None,2.2024849510016793,1464.8867880750004,None,1464.8867880750004,None,5,1,1.0680537120024383,1467.0756313419988,None,1467.0756313419988,None,1467.0756313419988,None,1468.1603521590005,None,1,0.8016593940010353,1468.1603521590005,None,106,1468.978924952,None,121,A,1,2021_May_26_1754,GazeFlow,2020.1.2,59.87197073533088,
10,Block515.xls,A,15,8,8,8,11,congruent,Left,Left,Right,38,39,1,blue,2,6,/home/docky/apps/exp/images/38B.jpeg,/home/docky/apps/exp/images/39Bi.jpeg,0,9,9,9,0,7,7,7,1469.9811073009987,None,1469.9811073009987,None,1,5.728474276998895,1469.9811073009987,None,1475.7429570169988,None,1475.7429570169988,None,1478.2466536579996,None,1478.2466536579996,None,5.826684364998073,1480.051232998001,None,1480.051232998001,None,6,1,1.2030110060004517,1485.8774840379992,None,1485.8774840379992,None,1485.8774840379992,None,1487.0974389850016,None,1,0.7683834419985942,1487.0974389850016,None,108,1487.8827575329997,None,121,A,1,2021_May_26_1754,GazeFlow,2020.1.2,59.87197073533088,
10,Block515.xls,A,,,,,,,,,,,,,,,,,,0,9,9,9,,,,,,,,,,,,,,,,,,,,,,,,,,,,,,,,,,,,,,,,,,,,121,A,1,2021_May_26_1754,GazeFlow,2020.1.2,59.87197073533088,
11,Block512.xls,A,12,1,30,30,11,congruent,Left,Left,Right,79,82,3,yellow,2,6,/home/docky/apps/exp/images/79Yi.jpeg,/home/docky/apps/exp/images/80Y.jpeg,0,10,10,10,0,0,0,0,1512.4492689040017,None,1512.4492689040017,None,1,7.0019523139999365,1512.4492689040017,None,1519.4773808999998,None,1519.4773808999998,None,1521.9993026400007,None,1521.9993026400007,None,1.7340763889988011,1523.8029850579987,None,1523.8029850579987,None,6,1,1.06911099500212,1525.5224297450004,None,1525.5224297450004,None,1525.5224297450004,None,1526.607737262002,None,1,0.7177363769988006,1526.607737262002,None,110,1527.3422850989991,None,121,A,1,2021_May_26_1754,GazeFlow,2020.1.2,59.87197073533088,
11,Block512.xls,A,12,2,115,55,22,incongruent,Left,Right,Left,76,69,7,yellow,2,5,/home/docky/apps/exp/images/76Yi.jpeg,/home/docky/apps/exp/images/69Y.jpeg,0,10,10,10,0,1,1,1,1528.3440735059994,None,1528.3440735059994,None,1,6.16262842800279,1528.3440735059994,None,1534.5390410629989,None,1534.5390410629989,None,1537.0434683189997,None,1537.0434683189997,None,1.6013469790013914,1538.8469247020003,None,1538.8469247020003,None,5,1,1.169003058999806,1540.4348277850004,None,1540.4348277850004,None,1540.4348277850004,None,1541.6201563270006,None,1,0.9848267779998423,1541.6201563270006,None,112,1542.622024051001,None,121,A,1,2021_May_26_1754,GazeFlow,2020.1.2,59.87197073533088,
11,Block512.xls,A,12,3,66,6,21,incongruent,Right,Left,Right,38,39,1,blue,2,6,/home/docky/apps/exp/images/38B.jpeg,/home/docky/apps/exp/images/39Bi.jpeg,0,10,10,10,0,2,2,2,1543.6238861390011,None,1543.6238861390011,None,1,7.064258395999786,1543.6238861390011,None,1550.722569067002,None,1550.722569067002,None,1553.223798813,None,1553.223798813,None,1.4841351300019596,1555.0279255880014,None,1555.0279255880014,None,6,1,1.1189766180032166,1556.4989670380019,None,1556.4989670380019,None,1556.4989670380019,None,1557.6348025760017,None,1,0.6005603259982308,1557.6348025760017,None,114,1558.252055765999,None,121,A,1,2021_May_26_1754,GazeFlow,2020.1.2,59.87197073533088,
11,Block512.xls,A,12,4,35,35,12,congruent,Right,Right,Left,66,65,1,blue,2,5,/home/docky/apps/exp/images/66B.jpeg,/home/docky/apps/exp/images/35Yi.jpeg,0,10,10,10,0,3,3,3,1559.2540106740016,None,1559.2540106740016,None,1,6.546882842998457,1559.2540106740016,None,1565.8346680110008,None,1565.8346680110008,None,1568.3391867809987,None,1568.3391867809987,None,1.8354373180009134,1570.1414586729989,None,1570.1414586729989,None,5,1,1.10177885399753,1571.9623823360016,None,1571.9623823360016,None,1571.9623823360016,None,1573.0808105100004,None,1,1.0188608030002797,1573.0808105100004,None,116,1574.1162285220016,None,121,A,1,2021_May_26_1754,GazeFlow,2020.1.2,59.87197073533088,
11,Block512.xls,A,12,5,40,40,12,congruent,Right,Right,Left,79,76,3,blue,2,5,/home/docky/apps/exp/images/79Bi.jpeg,/home/docky/apps/exp/images/76B.jpeg,0,10,10,10,0,4,4,4,1575.1186557090004,None,1575.1186557090004,None,1,7.13118463399951,1575.1186557090004,None,1582.2831889020017,None,1582.2831889020017,None,1584.7863880650002,None,1584.7863880650002,None,1.5344742550005321,1586.588677939999,None,1586.588677939999,None,5,1,1.1015477830005693,1588.1107777219986,None,1588.1107777219986,None,1588.1107777219986,None,1589.2293078209987,None,1,0.7678156469992246,1589.2293078209987,None,118,1590.013873382999,None,121,A,1,2021_May_26_1754,GazeFlow,2020.1.2,59.87197073533088,
11,Block512.xls,A,12,6,64,4,21,incongruent,Right,Left,Right,65,66,1,blue,2,6,/home/docky/apps/exp/images/35Yi.jpeg,/home/docky/apps/exp/images/66B.jpeg,0,10,10,10,0,5,5,5,1591.0156647770018,None,1591.0156647770018,None,1,6.730588802998682,1591.0156647770018,None,1597.7797879040008,None,1597.7797879040008,None,1600.285677336,None,1600.285677336,None,2.6704511610005284,1602.0864469830012,None,1602.0864469830012,None,6,1,1.0341907359979814,1604.7602198720015,None,1604.7602198720015,None,1604.7602198720015,None,1605.810983088002,None,1,0.6515398640003696,1605.810983088002,None,120,1606.4790483010001,None,121,A,1,2021_May_26_1754,GazeFlow,2020.1.2,59.87197073533088,
11,Block512.xls,A,12,7,12,12,11,congruent,Left,Left,Right,76,79,3,blue,2,6,/home/docky/apps/exp/images/76B.jpeg,/home/docky/apps/exp/images/79Bi.jpeg,0,10,10,10,0,6,6,6,1607.4815362080008,None,1607.4815362080008,None,1,6.028593946997717,1607.4815362080008,None,1613.5438308189987,None,1613.5438308189987,None,1616.0472333500002,None,1616.0472333500002,None,1.5680437039991375,1617.8503627179998,None,1617.8503627179998,None,6,1,1.0018356930013397,1619.4047632379988,None,1619.4047632379988,None,1619.4047632379988,None,1620.4233074770018,None,1,0.5506506490019092,1620.4233074770018,None,122,1620.9906670400014,None,121,A,1,2021_May_26_1754,GazeFlow,2020.1.2,59.87197073533088,
11,Block512.xls,A,12,8,49,49,12,congruent,Right,Right,Left,39,38,1,yellow,2,5,/home/docky/apps/exp/images/39Y.jpeg,/home/docky/apps/exp/images/38Yi.jpeg,0,10,10,10,0,7,7,7,1621.9924964359998,None,1621.9924964359998,None,1,5.761980969997239,1621.9924964359998,None,1627.7884072260022,None,1627.7884072260022,None,1630.2910053410014,None,1630.2910053410014,None,1.4007195240010333,1632.0951476779992,None,1632.0951476779992,None,5,1,1.0361614909998025,1633.4820517789994,None,1633.4820517789994,None,1633.4820517789994,None,1634.5339996840012,None,1,0.7009624610000174,1634.5339996840012,None,124,1635.2516068879995,None,121,A,1,2021_May_26_1754,GazeFlow,2020.1.2,59.87197073533088,
11,Block512.xls,A,,,,,,,,,,,,,,,,,,0,10,10,10,,,,,,,,,,,,,,,,,,,,,,,,,,,,,,,,,,,,,,,,,,,,121,A,1,2021_May_26_1754,GazeFlow,2020.1.2,59.87197073533088,
12,Block503.xls,A,3,1,22,22,11,congruent,Left,Left,Right,62,65,3,yellow,2,6,/home/docky/apps/exp/images/38Bi.jpeg,/home/docky/apps/exp/images/35B.jpeg,0,11,11,11,0,0,0,0,1664.7777646620016,None,1664.7777646620016,None,1,5.91808118300105,1664.7777646620016,None,1670.7222462829995,None,1670.7222462829995,None,1673.243069917,None,1673.243069917,None,1.500527444997715,1675.0450192600001,None,1675.0450192600001,None,6,1,1.002494273998309,1676.5324260449997,None,1676.5324260449997,None,1676.5324260449997,None,1677.5508552290012,None,1,0.6177183229992806,1677.5508552290012,None,126,1678.1851067440002,None,121,A,1,2021_May_26_1754,GazeFlow,2020.1.2,59.87197073533088,
12,Block503.xls,A,3,2,65,5,21,incongruent,Right,Left,Right,65,66,1,blue,2,6,/home/docky/apps/exp/images/35Y.jpeg,/home/docky/apps/exp/images/66Bi.jpeg,0,11,11,11,0,1,1,1,1679.1872068310004,None,1679.1872068310004,None,1,6.26321101099893,1679.1872068310004,None,1685.483662945,None,1685.483662945,None,1687.9879698590012,None,1687.9879698590012,None,1.5178733979992103,1689.789750633001,None,1689.789750633001,None,6,1,1.0025312599973404,1691.2944499840014,None,1691.2944499840014,None,1691.2944499840014,None,1692.3128593110014,None,1,0.617443587998423,1692.3128593110014,None,128,1692.9472060879998,None,121,A,1,2021_May_26_1754,GazeFlow,2020.1.2,59.87197073533088,
12,Block503.xls,A,3,3,76,16,21,incongruent,Right,Left,Right,33,35,2,yellow,2,6,/home/docky/apps/exp/images/33Y.jpeg,/home/docky/apps/exp/images/35Yi.jpeg,0,11,11,11,0,2,2,2,1693.9489637139995,None,1693.9489637139995,None,1,6.563423163999687,1693.9489637139995,None,1700.544699815,None,1700.544699815,None,1703.0484206639994,None,1703.0484206639994,None,1.3508290839999972,1704.8528468990007,None,1704.8528468990007,None,6,1,1.1527163529972313,1706.190010401002,None,1706.190010401002,None,1706.190010401002,None,1707.3588237490003,None,1,1.3020854759997746,1707.3588237490003,None,130,1708.677588415001,None,121,A,1,2021_May_26_1754,GazeFlow,2020.1.2,59.87197073533088,
12,Block503.xls,A,3,4,29,29,11,congruent,Left,Left,Right,79,82,3,yellow,2,6,/home/docky/apps/exp/images/79Y.jpeg,/home/docky/apps/exp/images/80Yi.jpeg,0,11,11,11,0,3,3,3,1709.6798177240016,None,1709.6798177240016,None,1,5.778267041998333,1709.6798177240016,None,1715.4934970040013,None,1715.4934970040013,None,1717.9951917149992,None,1717.9951917149992,None,1.4840908309997758,1719.8004971840019,None,1719.8004971840019,None,5,0,1.0519693499991263,1721.2693967689993,None,1721.2693967689993,None,1721.2693967689993,None,1722.3377762759992,None,1,0.7343642979976721,1722.3377762759992,None,128,1723.0890473370018,None,121,A,1,2021_May_26_1754,GazeFlow,2020.1.2,59.87197073533088,
12,Block503.xls,A,3,5,103,43,22,incongruent,Left,Right,Left,39,38,1,blue,2,5,/home/docky/apps/exp/images/39Bi.jpeg,/home/docky/apps/exp/images/38B.jpeg,0,11,11,11,0,4,4,4,1724.090788046,None,1724.090788046,None,1,6.084723256000871,1724.090788046,None,1730.2045812260003,None,1730.2045812260003,None,1732.7239557370012,None,1732.7239557370012,None,1.4010037070002,1734.527507955001,None,1734.527507955001,None,5,1,1.0688874459992803,1735.9143422999987,None,1735.9143422999987,None,1735.9143422999987,None,1736.9995759859994,None,1,0.7845642270003736,1736.9995759859994,None,130,1737.8007658009992,None,121,A,1,2021_May_26_1754,GazeFlow,2020.1.2,59.87197073533088,
12,Block503.xls,A,3,6,47,47,12,congruent,Right,Right,Left,35,33,2,yellow,2,5,/home/docky/apps/exp/images/35Yi.jpeg,/home/docky/apps/exp/images/33Y.jpeg,0,11,11,11,0,5,5,5,1738.8028031600006,None,1738.8028031600006,None,1,8.099999731002754,1738.8028031600006,None,1746.9363391389998,None,1746.9363391389998,None,1749.438894791001,None,1749.438894791001,None,1.91837535599916,1751.242474486,None,1751.242474486,None,5,1,1.0178126999999222,1753.1479970100008,None,1753.1479970100008,None,1753.1479970100008,None,1754.182288324002,None,1,0.6850619670003653,1754.182288324002,None,132,1754.8838197990008,None,121,A,1,2021_May_26_1754,GazeFlow,2020.1.2,59.87197073533088,
12,Block503.xls,A,3,7,20,20,11,congruent,Left,Left,Right,65,66,1,yellow,2,6,/home/docky/apps/exp/images/35Bi.jpeg,/home/docky/apps/exp/images/66Y.jpeg,0,11,11,11,0,6,6,6,1755.8863566010004,None,1755.8863566010004,None,1,6.329699321002408,1755.8863566010004,None,1762.2497257329997,None,1762.2497257329997,None,1764.7525952750002,None,1764.7525952750002,None,1.584634263002954,1766.5556383219991,None,1766.5556383219991,None,6,1,1.0856011249998119,1768.127065083001,None,1768.127065083001,None,1768.127065083001,None,1769.228799302,None,1,0.6173720529986895,1769.228799302,None,134,1769.8630801709987,None,121,A,1,2021_May_26_1754,GazeFlow,2020.1.2,59.87197073533088,
12,Block503.xls,A,3,8,27,27,11,congruent,Left,Left,Right,72,77,5,yellow,2,6,/home/docky/apps/exp/images/72Yi.jpeg,/home/docky/apps/exp/images/77Y.jpeg,0,11,11,11,0,7,7,7,1770.8651141970004,None,1770.8651141970004,None,1,4.893936888998724,1770.8651141970004,None,1775.7930411439993,None,1775.7930411439993,None,1778.2969017229989,None,1778.2969017229989,None,1.6182246179996582,1780.0989218579998,None,1780.0989218579998,None,6,1,1.0019353360003151,1781.7031505980012,None,1781.7031505980012,None,1781.7031505980012,None,1782.7213121980021,None,1,0.5844490889976441,1782.7213121980021,None,136,1783.3224564990014,None,121,A,1,2021_May_26_1754,GazeFlow,2020.1.2,59.87197073533088,
12,Block503.xls,A,,,,,,,,,,,,,,,,,,0,11,11,11,,,,,,,,,,,,,,,,,,,,,,,,,,,,,,,,,,,,,,,,,,,,121,A,1,2021_May_26_1754,GazeFlow,2020.1.2,59.87197073533088,
13,Block501.xls,A,1,1,54,54,12,congruent,Right,Right,Left,75,69,6,yellow,2,5,/home/docky/apps/exp/images/76Y.jpeg,/home/docky/apps/exp/images/69Yi.jpeg,0,12,12,12,0,0,0,0,1804.8834271010019,None,1804.8834271010019,None,1,5.53334484700099,1804.8834271010019,None,1810.4482251810005,None,1810.4482251810005,None,1812.9645694749997,None,1812.9645694749997,None,1.6507155779981986,1814.7667317160012,None,1814.7667317160012,None,6,0,1.0855030860002444,1816.4041183959998,None,1816.4041183959998,None,1816.4041183959998,None,1817.5059805130004,None,1,0.6009898609991069,1817.5059805130004,None,134,1818.1234987390017,None,121,A,1,2021_May_26_1754,GazeFlow,2020.1.2,59.87197073533088,
13,Block501.xls,A,1,2,70,10,21,incongruent,Right,Left,Right,73,76,3,blue,2,6,/home/docky/apps/exp/images/73Bi.jpeg,/home/docky/apps/exp/images/76B.jpeg,0,12,12,12,0,1,1,1,1819.1258868530022,None,1819.1258868530022,None,1,5.761385852998501,1819.1258868530022,None,1824.9210984499987,None,1824.9210984499987,None,1827.4237133019997,None,1827.4237133019997,None,1.6348483449983178,1829.2277007970006,None,1829.2277007970006,None,5,0,1.0525779859999602,1830.8487335550017,None,1830.8487335550017,None,1830.8487335550017,None,1831.917352714001,None,1,0.7677622880000854,1831.917352714001,None,132,1832.7019450020016,None,121,A,1,2021_May_26_1754,GazeFlow,2020.1.2,59.87197073533088,
13,Block501.xls,A,1,3,84,24,21,incongruent,Right,Left,Right,69,76,7,yellow,2,6,/home/docky/apps/exp/images/69Yi.jpeg,/home/docky/apps/exp/images/76Y.jpeg,0,12,12,12,0,2,2,2,1833.7041669419996,None,1833.7041669419996,None,1,6.563493150002614,1833.7041669419996,None,1840.3011191639998,None,1840.3011191639998,None,1842.804118903001,None,1842.804118903001,None,1.4009457559986913,1844.6069666090007,None,1844.6069666090007,None,6,1,1.1349708919988188,1845.9948829659988,None,1845.9948829659988,None,1845.9948829659988,None,1847.1463040109993,None,1,0.584936192000896,1847.1463040109993,None,134,1847.7477879020007,None,121,A,1,2021_May_26_1754,GazeFlow,2020.1.2,59.87197073533088,
13,Block501.xls,A,1,4,26,26,11,congruent,Left,Left,Right,69,75,6,yellow,2,6,/home/docky/apps/exp/images/69Y.jpeg,/home/docky/apps/exp/images/76Yi.jpeg,0,12,12,12,0,3,3,3,1848.7495091460005,None,1848.7495091460005,None,1,6.730388043000858,1848.7495091460005,None,1855.4964601819993,None,1855.4964601819993,None,1858.0014619030007,None,1858.0014619030007,None,1.9366902389992902,1859.805079889,None,1859.805079889,None,6,1,1.10185208799885,1861.7421739890015,None,1861.7421739890015,None,1861.7421739890015,None,1862.8602902940002,None,1,0.634901262998028,1862.8602902940002,None,136,1863.5115502090011,None,121,A,1,2021_May_26_1754,GazeFlow,2020.1.2,59.87197073533088,
13,Block501.xls,A,1,5,97,37,22,incongruent,Left,Right,Left,79,73,6,blue,2,5,/home/docky/apps/exp/images/79B.jpeg,/home/docky/apps/exp/images/73Bi.jpeg,0,12,12,12,0,4,4,4,1864.5136884780004,None,1864.5136884780004,None,1,5.929387784999562,1864.5136884780004,None,1870.4615921309996,None,1870.4615921309996,None,1872.9809968709997,None,1872.9809968709997,None,1.6510842479983694,1874.7822855310005,None,1874.7822855310005,None,5,1,1.0014974999976403,1876.4206884269988,None,1876.4206884269988,None,1876.4206884269988,None,1877.4383474179995,None,1,0.6519203280004149,1877.4383474179995,None,138,1878.106523950999,None,121,A,1,2021_May_26_1754,GazeFlow,2020.1.2,59.87197073533088,
13,Block501.xls,A,1,6,98,38,22,incongruent,Left,Right,Left,79,73,6,blue,2,5,/home/docky/apps/exp/images/79B.jpeg,/home/docky/apps/exp/images/73Bi.jpeg,0,12,12,12,0,5,5,5,1879.1086706019996,None,1879.1086706019996,None,1,7.28183345999787,1879.1086706019996,None,1886.4239958020007,None,1886.4239958020007,None,1888.9286989639986,None,1888.9286989639986,None,2.0688814660024946,1890.7307541970004,None,1890.7307541970004,None,5,1,1.0516889569989871,1892.7857735069992,None,1892.7857735069992,None,1892.7857735069992,None,1893.8537708090007,None,1,0.7516137579987117,1893.8537708090007,None,140,1894.6221766890012,None,121,A,1,2021_May_26_1754,GazeFlow,2020.1.2,59.87197073533088,
13,Block501.xls,A,1,7,77,17,21,incongruent,Right,Left,Right,65,66,1,yellow,2,6,/home/docky/apps/exp/images/35B.jpeg,/home/docky/apps/exp/images/66Yi.jpeg,0,12,12,12,0,6,6,6,1895.6240308289998,None,1895.6240308289998,None,1,6.846941752999555,1895.6240308289998,None,1902.4877909700008,None,1902.4877909700008,None,1904.9928646160006,None,1904.9928646160006,None,1.8516836390008393,1906.8116419910002,None,1906.8116419910002,None,6,1,1.2519374170005904,1908.6497084360017,None,1908.6497084360017,None,1908.6497084360017,None,1909.9185518199993,None,1,0.634596961997886,1909.9185518199993,None,142,1910.569614799002,None,121,A,1,2021_May_26_1754,GazeFlow,2020.1.2,59.87197073533088,
13,Block501.xls,A,1,8,50,50,12,congruent,Right,Right,Left,66,65,1,yellow,2,5,/home/docky/apps/exp/images/66Y.jpeg,/home/docky/apps/exp/images/35Bi.jpeg,0,12,12,12,0,7,7,7,1911.5721076830014,None,1911.5721076830014,None,1,5.794759463002265,1911.5721076830014,None,1917.400814782999,None,1917.400814782999,None,1919.90532292,None,1919.90532292,None,1.5846958019974409,1921.7064592700008,None,1921.7064592700008,None,5,1,1.1022817220000434,1923.2783251799992,None,1923.2783251799992,None,1923.2783251799992,None,1924.3969429589997,None,1,0.717789129997982,1924.3969429589997,None,144,1925.131383756001,None,121,A,1,2021_May_26_1754,GazeFlow,2020.1.2,59.87197073533088,
13,Block501.xls,A,,,,,,,,,,,,,,,,,,0,12,12,12,,,,,,,,,,,,,,,,,,,,,,,,,,,,,,,,,,,,,,,,,,,,121,A,1,2021_May_26_1754,GazeFlow,2020.1.2,59.87197073533088,
14,Block513.xls,A,13,1,32,32,12,congruent,Right,Right,Left,19,16,3,blue,2,5,/home/docky/apps/exp/images/19B.jpeg,/home/docky/apps/exp/images/16Bi.jpeg,0,13,13,13,0,0,0,0,1945.8081687740014,None,1945.8081687740014,None,1,8.45435681699746,1945.8081687740014,None,1954.289112448001,None,1954.289112448001,None,1956.8103409680007,None,1956.8103409680007,None,2.4862402600010682,1958.6139780670019,None,1958.6139780670019,None,5,1,0.9510346179995395,1961.1019442770012,None,1961.1019442770012,None,1961.1019442770012,None,1962.0697500690003,None,1,0.6182353599979251,1962.0697500690003,None,146,1962.7042390610004,None,121,A,1,2021_May_26_1754,GazeFlow,2020.1.2,59.87197073533088,
14,Block513.xls,A,13,2,81,21,21,incongruent,Right,Left,Right,38,39,1,yellow,2,6,/home/docky/apps/exp/images/38Yi.jpeg,/home/docky/apps/exp/images/39Y.jpeg,0,13,13,13,0,1,1,1,1963.7066261850014,None,1963.7066261850014,None,1,8.634229619998223,1963.7066261850014,None,1972.3742882330007,None,1972.3742882330007,None,1974.8769017100021,None,1974.8769017100021,None,1.3511942609984544,1976.6820351860006,None,1976.6820351860006,None,6,1,0.9851361679975525,1978.018061720999,None,1978.018061720999,None,1978.018061720999,None,1979.0197503240015,None,1,0.5513937680007075,1979.0197503240015,None,148,1979.5880993680003,None,121,A,1,2021_May_26_1754,GazeFlow,2020.1.2,59.87197073533088,
14,Block513.xls,A,13,3,92,32,22,incongruent,Left,Right,Left,19,16,3,blue,2,5,/home/docky/apps/exp/images/19B.jpeg,/home/docky/apps/exp/images/16Bi.jpeg,0,13,13,13,0,2,2,2,1980.5890879809995,None,1980.5890879809995,None,1,5.411538375999953,1980.5890879809995,None,1986.0335335130003,None,1986.0335335130003,None,1988.5387468020017,None,1988.5387468020017,None,1.4344228349982586,1990.3350113410015,None,1990.3350113410015,None,6,0,0.9520087359996978,1991.761176095999,None,1991.761176095999,None,1991.761176095999,None,1992.7297837750011,None,1,0.6007510619965615,1992.7297837750011,None,146,1993.3469370950006,None,121,A,1,2021_May_26_1754,GazeFlow,2020.1.2,59.87197073533088,
14,Block513.xls,A,13,4,6,6,11,congruent,Left,Left,Right,65,66,1,blue,2,6,/home/docky/apps/exp/images/35Y.jpeg,/home/docky/apps/exp/images/66Bi.jpeg,0,13,13,13,0,3,3,3,1994.3490245460016,None,1994.3490245460016,None,1,4.94406697100203,1994.3490245460016,None,1999.3263378720003,None,1999.3263378720003,None,2001.829494640002,None,2001.829494640002,None,1.3842942689989286,2003.6320747770005,None,2003.6320747770005,None,5,0,0.9676760609982011,2005.003757958999,None,2005.003757958999,None,2005.003757958999,None,2005.9882736180007,None,1,0.5347321609988285,2005.9882736180007,None,144,2006.539379894999,None,121,A,1,2021_May_26_1754,GazeFlow,2020.1.2,59.87197073533088,
14,Block513.xls,A,13,5,67,7,21,incongruent,Right,Left,Right,38,39,1,blue,2,6,/home/docky/apps/exp/images/38Bi.jpeg,/home/docky/apps/exp/images/39B.jpeg,0,13,13,13,0,4,4,4,2007.5415812640022,None,2007.5415812640022,None,1,6.012197284999274,2007.5415812640022,None,2013.5875221240021,None,2013.5875221240021,None,2016.0897342729986,None,2016.0897342729986,None,1.551343719002034,2017.8936827370017,None,2017.8936827370017,None,6,1,1.0184753770008683,2019.4318211579994,None,2019.4318211579994,None,2019.4318211579994,None,2020.4664581450015,None,1,0.5510462319980434,2020.4664581450015,None,146,2021.0342927839993,None,121,A,1,2021_May_26_1754,GazeFlow,2020.1.2,59.87197073533088,
14,Block513.xls,A,13,6,111,51,22,incongruent,Left,Right,Left,66,65,1,yellow,2,5,/home/docky/apps/exp/images/66Yi.jpeg,/home/docky/apps/exp/images/35B.jpeg,0,13,13,13,0,5,5,5,2022.0361752460012,None,2022.0361752460012,None,1,6.246201925998321,2022.0361752460012,None,2028.3158293349989,None,2028.3158293349989,None,2030.8196530800014,None,2030.8196530800014,None,1.8186216430003697,2032.6229170260012,None,2032.6229170260012,None,5,1,1.0352303879990359,2034.4275523610013,None,2034.4275523610013,None,2034.4275523610013,None,2035.479443614,None,1,0.6175756800003,2035.479443614,None,148,2036.1135202709993,None,121,A,1,2021_May_26_1754,GazeFlow,2020.1.2,59.87197073533088,
14,Block513.xls,A,13,7,88,28,21,incongruent,Right,Left,Right,79,82,3,yellow,2,6,/home/docky/apps/exp/images/79Y.jpeg,/home/docky/apps/exp/images/80Yi.jpeg,0,13,13,13,0,6,6,6,2037.115391790001,None,2037.115391790001,None,1,6.112657727000624,2037.115391790001,None,2043.2614853919986,None,2043.2614853919986,None,2045.765255827002,None,2045.765255827002,None,2.3367025229999854,2047.568390348999,None,2047.568390348999,None,5,0,1.0178353030023573,2049.891269234002,None,2049.891269234002,None,2049.891269234002,None,2050.925401511002,None,1,0.8016571459993429,2050.925401511002,None,146,2051.7440191339992,None,121,A,1,2021_May_26_1754,GazeFlow,2020.1.2,59.87197073533088,
14,Block513.xls,A,13,8,14,14,11,congruent,Left,Left,Right,80,83,3,blue,2,6,/home/docky/apps/exp/images/80B.jpeg,/home/docky/apps/exp/images/83Bi.jpeg,0,13,13,13,0,7,7,7,2052.746184538999,None,2052.746184538999,None,1,6.412920226001006,2052.746184538999,None,2059.191133094002,None,2059.191133094002,None,2061.695075658001,None,2061.695075658001,None,1.651262166997185,2063.4939616289994,None,2063.4939616289994,None,6,1,1.0685921080003027,2065.1372003629986,None,2065.1372003629986,None,2065.1372003629986,None,2066.2224140590006,None,1,0.6511985229990387,2066.2224140590006,None,148,2066.890104311002,None,121,A,1,2021_May_26_1754,GazeFlow,2020.1.2,59.87197073533088,
14,Block513.xls,A,,,,,,,,,,,,,,,,,,0,13,13,13,,,,,,,,,,,,,,,,,,,,,,,,,,,,,,,,,,,,,,,,,,,,121,A,1,2021_May_26_1754,GazeFlow,2020.1.2,59.87197073533088,
15,Block514.xls,A,14,1,113,53,22,incongruent,Left,Right,Left,75,69,6,yellow,2,5,/home/docky/apps/exp/images/76Y.jpeg,/home/docky/apps/exp/images/69Yi.jpeg,0,14,14,14,0,0,0,0,2087.030427599999,None,2087.030427599999,None,1,5.001152846001787,2087.030427599999,None,2092.0528748920005,None,2092.0528748920005,None,2094.578051085002,None,2094.578051085002,None,1.4170956699999806,2096.3746390660017,None,2096.3746390660017,None,5,1,1.0685402650015021,2097.7841042889995,None,2097.7841042889995,None,2097.7841042889995,None,2098.869106434002,None,1,0.6010626850002154,2098.869106434002,None,150,2099.486384242002,None,121,A,1,2021_May_26_1754,GazeFlow,2020.1.2,59.87197073533088,
15,Block514.xls,A,14,2,45,45,12,congruent,Right,Right,Left,39,38,1,blue,2,5,/home/docky/apps/exp/images/39B.jpeg,/home/docky/apps/exp/images/38Bi.jpeg,0,14,14,14,0,1,1,1,2100.489005216001,None,2100.489005216001,None,1,5.661453036998864,2100.489005216001,None,2106.1840516640004,None,2106.1840516640004,None,2108.688911366,None,2108.688911366,None,1.5510477319985512,2110.485830403999,None,2110.485830403999,None,5,1,1.018267161998665,2112.028215823,None,2112.028215823,None,2112.028215823,None,2113.062670465999,None,1,0.568245662998379,2113.062670465999,None,152,2113.647123994,None,121,A,1,2021_May_26_1754,GazeFlow,2020.1.2,59.87197073533088,
15,Block514.xls,A,14,3,52,52,12,congruent,Right,Right,Left,75,69,6,yellow,2,5,/home/docky/apps/exp/images/76Y.jpeg,/home/docky/apps/exp/images/69Yi.jpeg,0,14,14,14,0,2,2,2,2114.649579035002,None,2114.649579035002,None,1,5.795062593002513,2114.649579035002,None,2120.4805985890016,None,2120.4805985890016,None,2122.9809661120016,None,2122.9809661120016,None,1.4843369919981342,2124.7843561439986,None,2124.7843561439986,None,5,1,0.9687160739995306,2126.2557343340013,None,2126.2557343340013,None,2126.2557343340013,None,2127.240979910999,None,1,0.6176227670002845,2127.240979910999,None,154,2127.8751229100017,None,121,A,1,2021_May_26_1754,GazeFlow,2020.1.2,59.87197073533088,
15,Block514.xls,A,14,4,106,46,22,incongruent,Left,Right,Left,35,33,2,yellow,2,5,/home/docky/apps/exp/images/35Yi.jpeg,/home/docky/apps/exp/images/33Y.jpeg,0,14,14,14,0,3,3,3,2128.8770746830014,None,2128.8770746830014,None,1,6.379659180998715,2128.8770746830014,None,2135.290677533001,None,2135.290677533001,None,2137.797004955999,None,2137.797004955999,None,1.567969727999298,2139.598912786001,None,2139.598912786001,None,5,1,1.0683713879989227,2141.1513424020013,None,2141.1513424020013,None,2141.1513424020013,None,2142.236163641999,None,1,0.6679789099980553,2142.236163641999,None,156,2142.9212066500004,None,121,A,1,2021_May_26_1754,GazeFlow,2020.1.2,59.87197073533088,
15,Block514.xls,A,14,5,109,49,22,incongruent,Left,Right,Left,39,38,1,yellow,2,5,/home/docky/apps/exp/images/39Yi.jpeg,/home/docky/apps/exp/images/38Y.jpeg,0,14,14,14,0,4,4,4,2143.923155799999,None,2143.923155799999,None,1,6.446301005998976,2143.923155799999,None,2150.4032537659987,None,2150.4032537659987,None,2152.906320779999,None,2152.906320779999,None,1.5510469010005181,2154.709828578001,None,2154.709828578001,None,5,1,1.1522145130002173,2156.2474692020005,None,2156.2474692020005,None,2156.2474692020005,None,2157.4160890620005,None,1,0.8177041800008737,2157.4160890620005,None,158,2158.2506908370015,None,121,A,1,2021_May_26_1754,GazeFlow,2020.1.2,59.87197073533088,
15,Block514.xls,A,14,6,89,29,21,incongruent,Right,Left,Right,79,82,3,yellow,2,6,/home/docky/apps/exp/images/79Yi.jpeg,/home/docky/apps/exp/images/80Y.jpeg,0,14,14,14,0,5,5,5,2159.2529803399993,None,2159.2529803399993,None,1,5.961937531999865,2159.2529803399993,None,2165.248863811001,None,2165.248863811001,None,2167.751531501999,None,2167.751531501999,None,1.551547113002016,2169.555254769999,None,2169.555254769999,None,5,0,1.017977401999815,2171.0929518010016,None,2171.0929518010016,None,2171.0929518010016,None,2172.127598900999,None,1,0.6847086499983561,2172.127598900999,None,156,2172.8290485239995,None,121,A,1,2021_May_26_1754,GazeFlow,2020.1.2,59.87197073533088,
15,Block514.xls,A,14,7,91,31,22,incongruent,Left,Right,Left,19,16,3,blue,2,5,/home/docky/apps/exp/images/19Bi.jpeg,/home/docky/apps/exp/images/16B.jpeg,0,14,14,14,0,6,6,6,2173.830941487002,None,2173.830941487002,None,1,6.998199208999722,2173.830941487002,None,2180.862481988999,None,2180.862481988999,None,2183.3658204780004,None,2183.3658204780004,None,1.4512130100010836,2185.1692798080003,None,2185.1692798080003,None,5,1,1.0855387299998256,2186.606430060001,None,2186.606430060001,None,2186.606430060001,None,2187.7083294020013,None,1,0.6177480939986708,2187.7083294020013,None,158,2188.3425317539986,None,121,A,1,2021_May_26_1754,GazeFlow,2020.1.2,59.87197073533088,
15,Block514.xls,A,14,8,79,19,21,incongruent,Right,Left,Right,62,65,3,yellow,2,6,/home/docky/apps/exp/images/38B.jpeg,/home/docky/apps/exp/images/35Bi.jpeg,0,14,14,14,0,7,7,7,2189.344427297001,None,2189.344427297001,None,1,6.029094213998178,2189.344427297001,None,2195.4074642250016,None,2195.4074642250016,None,2197.9120334420004,None,2197.9120334420004,None,1.3510519219998969,2199.713795685002,None,2199.713795685002,None,5,0,1.0858383109989518,2201.0508400670005,None,2201.0508400670005,None,2201.0508400670005,None,2202.1530996639995,None,1,0.6843196760019055,2202.1530996639995,None,156,2202.853929320001,None,121,A,1,2021_May_26_1754,GazeFlow,2020.1.2,59.87197073533088,
15,Block514.xls,A,,,,,,,,,,,,,,,,,,0,14,14,14,,,,,,,,,,,,,,,,,,,,,,,,,,,,,,,,,,,,,,,,,,,,121,A,1,2021_May_26_1754,GazeFlow,2020.1.2,59.87197073533088,
