Nblock,condsFile,grouping,Block,TrialBlock,N,trialN,trialCond,gazeCon,gazedirR,corrBinR,corrBinP,valLBY,valRBY,diff,colorCube,feedbacktext,corrAns,imageL,imageR,SelBlocks.thisRepN,SelBlocks.thisTrialN,SelBlocks.thisN,SelBlocks.thisIndex,Trials.thisRepN,Trials.thisTrialN,Trials.thisN,Trials.thisIndex,waitCube.started,waitCube.stopped,text_3.started,text_3.stopped,StartKeyPress.keys,StartKeyPress.rt,StartKeyPress.started,StartKeyPress.stopped,StimL.started,StimL.stopped,StimR.started,StimR.stopped,imageStim2L.started,imageStim2L.stopped,imageStim2R.started,imageStim2R.stopped,RTkeyRelease,imageStim3L.started,imageStim3L.stopped,imageStim3R.started,imageStim3R.stopped,dropResp.keys,dropResp.corr,dropResp.rt,dropResp.started,dropResp.stopped,imageStim5L.started,imageStim5L.stopped,imageStim5R.started,imageStim5R.stopped,text_2.started,text_2.stopped,ReturnSpace.keys,ReturnSpace.rt,ReturnSpace.started,ReturnSpace.stopped,totalpoints,textFeedback.started,textFeedback.stopped,participant,group,session,date,expName,psychopyVersion,frameRate,
1,Block809.xls,B,9,1,93,93,None,congruent,Right,Right,Left,80,79,1,yellow,2,5,/home/docky/apps/exp/images/80Y.jpeg,/home/docky/apps/exp/images/79Yi.jpeg,0,0,0,0,0,0,0,0,24.483697016000406,None,24.483697016000406,None,1,22.030927691000215,24.483697016000406,None,46.54249578800045,None,46.54249578800045,None,49.07195848200081,None,49.07195848200081,None,1.5001593769993633,50.86865560100068,None,50.86865560100068,None,6,0,0.8849495599997681,52.35237334500016,None,52.35237334500016,None,52.35237334500016,None,53.2539352040003,None,1,0.43472092499996506,53.2539352040003,None,-2,53.704689926000356,None,122,B,1,2021_May_27_0934,GazeFlow,2020.1.2,59.89015474852892,
1,Block809.xls,B,9,2,15,15,None,congruent,Left,Left,Right,38,39,1,blue,2,6,/home/docky/apps/exp/images/38B.jpeg,/home/docky/apps/exp/images/39Bi.jpeg,0,0,0,0,0,1,1,1,54.70676823900067,None,54.70676823900067,None,1,4.75953743700029,54.70676823900067,None,59.50016074800078,None,59.50016074800078,None,62.005004727000596,None,62.005004727000596,None,1.2170445779993315,63.80857161700078,None,63.80857161700078,None,6,1,1.0849707190000117,65.01024255000084,None,65.01024255000084,None,65.01024255000084,None,66.11184911500004,None,1,0.3846923159999278,66.11184911500004,None,0,66.51312163800048,None,122,B,1,2021_May_27_0934,GazeFlow,2020.1.2,59.89015474852892,
1,Block809.xls,B,9,3,117,21,None,incongruent,Left,Right,Left,39,38,1,yellow,2,5,/home/docky/apps/exp/images/39Yi.jpeg,/home/docky/apps/exp/images/38Y.jpeg,0,0,0,0,0,2,2,2,67.51459066400002,None,67.51459066400002,None,1,4.041941747000237,67.51459066400002,None,71.58817201200054,None,71.58817201200054,None,74.0953337990004,None,74.0953337990004,None,1.4176946790003058,75.8972587240005,None,75.8972587240005,None,6,0,0.9013761470005193,77.30088455800069,None,77.30088455800069,None,77.30088455800069,None,78.21885032300088,None,1,0.3175552709999465,78.21885032300088,None,-2,78.55254532400068,None,122,B,1,2021_May_27_0934,GazeFlow,2020.1.2,59.89015474852892,
1,Block809.xls,B,9,4,94,94,None,congruent,Right,Right,Left,80,79,1,yellow,2,5,/home/docky/apps/exp/images/80Y.jpeg,/home/docky/apps/exp/images/79Yi.jpeg,0,0,0,0,0,3,3,3,79.55480510100006,None,79.55480510100006,None,1,4.559656921000169,79.55480510100006,None,84.14660041700063,None,84.14660041700063,None,86.6514598220001,None,86.6514598220001,None,1.6516001149993826,88.44952030000059,None,88.44952030000059,None,5,1,0.8688589019993742,90.09270440400087,None,90.09270440400087,None,90.09270440400087,None,90.9775019180006,None,1,0.5007313120004255,90.9775019180006,None,0,91.49471242500022,None,122,B,1,2021_May_27_0934,GazeFlow,2020.1.2,59.89015474852892,
1,Block809.xls,B,9,5,41,41,None,congruent,Right,Right,Left,79,76,3,blue,2,5,/home/docky/apps/exp/images/79Bi.jpeg,/home/docky/apps/exp/images/76B.jpeg,0,0,0,0,0,4,4,4,92.49669846400047,None,92.49669846400047,None,1,8.200144607999391,92.49669846400047,None,100.73060887700012,None,100.73060887700012,None,103.23391389300014,None,103.23391389300014,None,1.1004518659992755,105.03882811400035,None,105.03882811400035,None,5,1,0.8348796660002336,106.12384073000067,None,106.12384073000067,None,106.12384073000067,None,106.97482704000049,None,1,0.3845424400005868,106.97482704000049,None,2,107.3759287110006,None,122,B,1,2021_May_27_0934,GazeFlow,2020.1.2,59.89015474852892,
1,Block809.xls,B,9,6,36,36,None,congruent,Right,Right,Left,79,73,6,blue,2,5,/home/docky/apps/exp/images/79Bi.jpeg,/home/docky/apps/exp/images/73B.jpeg,0,0,0,0,0,5,5,5,108.37772123300056,None,108.37772123300056,None,1,5.7957716509999955,108.37772123300056,None,114.20433571900048,None,114.20433571900048,None,116.70998082800088,None,116.70998082800088,None,1.3174152159999721,118.50821933100087,None,118.50821933100087,None,5,1,3.390229040000122,119.8173643400005,None,119.8173643400005,None,119.8173643400005,None,123.22382292100065,None,1,1.402919688000111,123.22382292100065,None,4,124.64318723300039,None,122,B,1,2021_May_27_0934,GazeFlow,2020.1.2,59.89015474852892,
1,Block809.xls,B,9,7,78,78,None,congruent,Right,Right,Left,39,38,1,yellow,2,5,/home/docky/apps/exp/images/39Yi.jpeg,/home/docky/apps/exp/images/38Y.jpeg,0,0,0,0,0,6,6,6,125.64520707600059,None,125.64520707600059,None,1,6.429487497000082,125.64520707600059,None,132.10693746500056,None,132.10693746500056,None,134.61180283200065,None,134.61180283200065,None,1.8520248669992725,136.40968418400007,None,136.40968418400007,None,6,0,0.918843351999385,138.25330075000056,None,138.25330075000056,None,138.25330075000056,None,139.1883040950006,None,1,0.4674042759997974,139.1883040950006,None,2,139.6720569300005,None,122,B,1,2021_May_27_0934,GazeFlow,2020.1.2,59.89015474852892,
1,Block809.xls,B,9,8,29,29,None,congruent,Right,Right,Left,38,35,3,blue,2,5,/home/docky/apps/exp/images/38B.jpeg,/home/docky/apps/exp/images/35Bi.jpeg,0,0,0,0,0,7,7,7,140.67385856200053,None,140.67385856200053,None,1,5.077932641000189,140.67385856200053,None,145.78552159600076,None,145.78552159600076,None,148.2902357210005,None,148.2902357210005,None,1.551487312000063,150.09331210600067,None,150.09331210600067,None,5,1,1.2024164220001694,151.62948478400085,None,151.62948478400085,None,151.62948478400085,None,152.84829331100082,None,1,0.3670604769995407,152.84829331100082,None,4,153.2321849810005,None,122,B,1,2021_May_27_0934,GazeFlow,2020.1.2,59.89015474852892,
1,Block809.xls,B,,,,,,,,,,,,,,,,,,0,0,0,0,,,,,,,,,,,,,,,,,,,,,,,,,,,,,,,,,,,,,,,,,,,,122,B,1,2021_May_27_0934,GazeFlow,2020.1.2,59.89015474852892,
2,Block805.xls,B,5,1,16,16,None,congruent,Left,Left,Right,73,76,3,blue,2,6,/home/docky/apps/exp/images/73B.jpeg,/home/docky/apps/exp/images/76Bi.jpeg,0,1,1,1,0,0,0,0,171.60577939400082,None,171.60577939400082,None,1,6.434684938999453,171.60577939400082,None,178.07426689300064,None,178.07426689300064,None,180.58666680900023,None,180.58666680900023,None,1.984722199999851,182.3844657920008,None,182.3844657920008,None,6,1,1.1686138490003941,184.3598629930002,None,184.3598629930002,None,184.3598629930002,None,185.54470993200084,None,1,0.40129687300031947,185.54470993200084,None,6,185.96242808200077,None,122,B,1,2021_May_27_0934,GazeFlow,2020.1.2,59.89015474852892,
2,Block805.xls,B,5,2,2,2,None,congruent,Left,Left,Right,16,19,3,blue,2,6,/home/docky/apps/exp/images/16B.jpeg,/home/docky/apps/exp/images/19Bi.jpeg,0,1,1,1,0,1,1,1,186.96491613800026,None,186.96491613800026,None,1,3.9914576050005053,186.96491613800026,None,190.98986440500084,None,190.98986440500084,None,193.49489678900045,None,193.49489678900045,None,1.9516994959994918,195.29634303300008,None,195.29634303300008,None,5,0,1.0680180540002766,197.23524670900042,None,197.23524670900042,None,197.23524670900042,None,198.32000537100066,None,1,0.48440698700051144,198.32000537100066,None,4,198.82115007000084,None,122,B,1,2021_May_27_0934,GazeFlow,2020.1.2,59.89015474852892,
2,Block805.xls,B,5,3,64,64,None,congruent,Left,Left,Right,69,76,7,yellow,2,6,/home/docky/apps/exp/images/69Y.jpeg,/home/docky/apps/exp/images/76Yi.jpeg,0,1,1,1,0,2,2,2,199.82339537200005,None,199.82339537200005,None,1,6.1960073209993425,199.82339537200005,None,206.05291215100078,None,206.05291215100078,None,208.55883906000054,None,208.55883906000054,None,1.4508705789994565,210.3589685120005,None,210.3589685120005,None,6,1,1.0687898899996071,211.7968973120005,None,211.7968973120005,None,211.7968973120005,None,212.88215560800018,None,1,0.3674914440007342,212.88215560800018,None,6,213.26623258400014,None,122,B,1,2021_May_27_0934,GazeFlow,2020.1.2,59.89015474852892,
2,Block805.xls,B,5,4,61,61,None,congruent,Left,Left,Right,38,39,1,yellow,2,6,/home/docky/apps/exp/images/38Yi.jpeg,/home/docky/apps/exp/images/39Y.jpeg,0,1,1,1,0,3,3,3,214.2678783700003,None,214.2678783700003,None,1,3.607621033000214,214.2678783700003,None,217.90937850900082,None,217.90937850900082,None,220.41221174300063,None,220.41221174300063,None,2.954370168999958,222.2161941710001,None,222.2161941710001,None,6,1,1.251602721999916,225.1733646620005,None,225.1733646620005,None,225.1733646620005,None,226.4412043500006,None,1,0.4851259899996876,226.4412043500006,None,8,226.94266308200076,None,122,B,1,2021_May_27_0934,GazeFlow,2020.1.2,59.89015474852892,
2,Block805.xls,B,5,5,23,23,None,congruent,Left,Left,Right,80,83,3,blue,2,6,/home/docky/apps/exp/images/80B.jpeg,/home/docky/apps/exp/images/83Bi.jpeg,0,1,1,1,0,4,4,4,227.94496454700038,None,227.94496454700038,None,1,4.074892176000503,227.94496454700038,None,232.05376666900065,None,232.05376666900065,None,234.55637745700005,None,234.55637745700005,None,1.4176596400002381,236.36016302000007,None,236.36016302000007,None,6,1,0.9010875419999138,237.76435144100014,None,237.76435144100014,None,237.76435144100014,None,238.68203896500017,None,1,0.5020722179997392,238.68203896500017,None,10,239.20020874700003,None,122,B,1,2021_May_27_0934,GazeFlow,2020.1.2,59.89015474852892,
2,Block805.xls,B,5,6,87,87,None,congruent,Right,Right,Left,76,69,7,yellow,2,5,/home/docky/apps/exp/images/76Yi.jpeg,/home/docky/apps/exp/images/69Y.jpeg,0,1,1,1,0,5,5,5,240.20195461000003,None,240.20195461000003,None,1,3.6747989530003906,240.20195461000003,None,243.9140472400004,None,243.9140472400004,None,246.4133282190005,None,246.4133282190005,None,1.7014251679993322,248.2164967790004,None,248.2164967790004,None,5,1,1.0019220249996579,249.90470634100075,None,249.90470634100075,None,249.90470634100075,None,250.9230406760007,None,1,0.5674726050001482,250.9230406760007,None,12,251.50706513000023,None,122,B,1,2021_May_27_0934,GazeFlow,2020.1.2,59.89015474852892,
2,Block805.xls,B,5,7,4,4,None,congruent,Left,Left,Right,35,38,3,blue,2,6,/home/docky/apps/exp/images/35B.jpeg,/home/docky/apps/exp/images/38Bi.jpeg,0,1,1,1,0,6,6,6,252.5095689710006,None,252.5095689710006,None,1,8.099975915999494,252.5095689710006,None,260.64265657600026,None,260.64265657600026,None,263.14851196200016,None,263.14851196200016,None,1.534824829000172,264.94902832200023,None,264.94902832200023,None,6,1,1.1186205340000015,266.4700417660006,None,266.4700417660006,None,266.4700417660006,None,267.6051480920005,None,1,0.5679741530002502,267.6051480920005,None,14,268.18960900800084,None,122,B,1,2021_May_27_0934,GazeFlow,2020.1.2,59.89015474852892,
2,Block805.xls,B,5,8,114,18,None,incongruent,Right,Left,Right,79,82,3,yellow,2,6,/home/docky/apps/exp/images/79Y.jpeg,/home/docky/apps/exp/images/80Yi.jpeg,0,1,1,1,0,7,7,7,269.1917673710004,None,269.1917673710004,None,1,4.626753292999638,269.1917673710004,None,273.85191880600087,None,273.85191880600087,None,276.3547685190006,None,276.3547685190006,None,1.8521443839999847,278.1587706320006,None,278.1587706320006,None,5,0,1.2854043240004103,279.99669059200005,None,279.99669059200005,None,279.99669059200005,None,281.2986369520004,None,1,0.6513218569998571,281.2986369520004,None,12,281.9667453100001,None,122,B,1,2021_May_27_0934,GazeFlow,2020.1.2,59.89015474852892,
2,Block805.xls,B,,,,,,,,,,,,,,,,,,0,1,1,1,,,,,,,,,,,,,,,,,,,,,,,,,,,,,,,,,,,,,,,,,,,,122,B,1,2021_May_27_0934,GazeFlow,2020.1.2,59.89015474852892,
3,Block804.xls,B,4,1,95,95,None,congruent,Right,Right,Left,80,79,1,yellow,2,5,/home/docky/apps/exp/images/80Yi.jpeg,/home/docky/apps/exp/images/79Y.jpeg,0,2,2,2,0,0,0,0,302.9601745500004,None,302.9601745500004,None,1,5.984400661000109,302.9601745500004,None,308.96923730100025,None,308.96923730100025,None,311.4920589200001,None,311.4920589200001,None,1.5168211100008193,313.2941601370003,None,313.2941601370003,None,5,1,1.2187855009997293,314.79840131900073,None,314.79840131900073,None,314.79840131900073,None,316.0337666050009,None,1,0.6340495049998935,316.0337666050009,None,14,316.6843406480002,None,122,B,1,2021_May_27_0934,GazeFlow,2020.1.2,59.89015474852892,
3,Block804.xls,B,4,2,107,11,None,incongruent,Left,Right,Left,83,80,3,blue,2,5,/home/docky/apps/exp/images/83Bi.jpeg,/home/docky/apps/exp/images/80B.jpeg,0,2,2,2,0,1,1,1,317.6866116200008,None,317.6866116200008,None,1,5.4610946089997014,317.6866116200008,None,323.1815726320001,None,323.1815726320001,None,325.6839571870005,None,325.6839571870005,None,1.8351027280004928,327.48364004200084,None,327.48364004200084,None,5,1,5.010505129000194,329.30974894300016,None,329.30974894300016,None,329.30974894300016,None,334.33605896300014,None,1,0.7686962110001332,334.33605896300014,None,16,335.12085976100025,None,122,B,1,2021_May_27_0934,GazeFlow,2020.1.2,59.89015474852892,
3,Block804.xls,B,4,3,27,27,None,congruent,Right,Right,Left,19,16,3,blue,2,5,/home/docky/apps/exp/images/19Bi.jpeg,/home/docky/apps/exp/images/16B.jpeg,0,2,2,2,0,2,2,2,336.1229066350006,None,336.1229066350006,None,1,4.34206320300018,336.1229066350006,None,340.4990565650005,None,340.4990565650005,None,343.00350633000016,None,343.00350633000016,None,1.584723799999665,344.8072669130006,None,344.8072669130006,None,5,1,1.0185754109998015,346.3762463860003,None,346.3762463860003,None,346.3762463860003,None,347.41193875000044,None,1,0.6170222370001284,347.41193875000044,None,18,348.0453683960004,None,122,B,1,2021_May_27_0934,GazeFlow,2020.1.2,59.89015474852892,
3,Block804.xls,B,4,4,101,5,None,incongruent,Right,Left,Right,76,79,3,blue,2,6,/home/docky/apps/exp/images/76B.jpeg,/home/docky/apps/exp/images/79Bi.jpeg,0,2,2,2,0,3,3,3,349.04790893100017,None,349.04790893100017,None,1,4.759763963000296,349.04790893100017,None,353.8398677790001,None,353.8398677790001,None,356.34502155800055,None,356.34502155800055,None,2.0353531179998754,358.14741428900015,None,358.14741428900015,None,6,1,1.1350865120002709,360.16973259800034,None,360.16973259800034,None,360.16973259800034,None,361.3214901570009,None,1,0.5179007400001865,361.3214901570009,None,20,361.85602534400005,None,122,B,1,2021_May_27_0934,GazeFlow,2020.1.2,59.89015474852892,
3,Block804.xls,B,4,5,47,47,None,congruent,Right,Right,Left,39,38,1,blue,2,5,/home/docky/apps/exp/images/39Bi.jpeg,/home/docky/apps/exp/images/38B.jpeg,0,2,2,2,0,4,4,4,362.85871907800083,None,362.85871907800083,None,1,4.02438594799969,362.85871907800083,None,366.9169938920004,None,366.9169938920004,None,369.4203254440008,None,369.4203254440008,None,1.3674881119995916,371.2234520640004,None,371.2234520640004,None,5,1,1.1353293370002575,372.5776447590006,None,372.5776447590006,None,372.5776447590006,None,373.7297034050007,None,1,0.584114430000227,373.7297034050007,None,22,374.33054928,None,122,B,1,2021_May_27_0934,GazeFlow,2020.1.2,59.89015474852892,
3,Block804.xls,B,4,6,90,90,None,congruent,Right,Right,Left,77,72,5,yellow,2,5,/home/docky/apps/exp/images/77Yi.jpeg,/home/docky/apps/exp/images/72Y.jpeg,0,2,2,2,0,5,5,5,375.3324121630003,None,375.3324121630003,None,1,4.576307412999995,375.3324121630003,None,379.9425019980008,None,379.9425019980008,None,382.44555292300083,None,382.44555292300083,None,1.2340270879994932,384.2487126550004,None,384.2487126550004,None,5,1,1.1193117940001684,385.4693517430005,None,385.4693517430005,None,385.4693517430005,None,386.6047834740002,None,1,0.6841621360008503,386.6047834740002,None,24,387.30543999600013,None,122,B,1,2021_May_27_0934,GazeFlow,2020.1.2,59.89015474852892,
3,Block804.xls,B,4,7,12,12,None,congruent,Left,Left,Right,38,39,1,blue,2,6,/home/docky/apps/exp/images/38B.jpeg,/home/docky/apps/exp/images/39Bi.jpeg,0,2,2,2,0,6,6,6,388.30802034500084,None,388.30802034500084,None,1,4.425845871999627,388.30802034500084,None,392.7676336400009,None,392.7676336400009,None,395.27241817600043,None,395.27241817600043,None,1.267159912000352,397.0739404490005,None,397.0739404490005,None,6,1,1.0682264990000476,398.32792370600055,None,398.32792370600055,None,398.32792370600055,None,399.41280650300087,None,1,0.6178121339999052,399.41280650300087,None,26,400.0473255370007,None,122,B,1,2021_May_27_0934,GazeFlow,2020.1.2,59.89015474852892,
3,Block804.xls,B,4,8,20,20,None,congruent,Left,Left,Right,76,79,3,blue,2,6,/home/docky/apps/exp/images/76Bi.jpeg,/home/docky/apps/exp/images/79B.jpeg,0,2,2,2,0,7,7,7,401.0493988500002,None,401.0493988500002,None,1,3.373795290999624,401.0493988500002,None,404.4574704840006,None,404.4574704840006,None,406.96003467100036,None,406.96003467100036,None,1.1673683159997381,408.7632145590005,None,408.7632145590005,None,6,1,1.219087526000294,409.9170930190003,None,409.9170930190003,None,409.9170930190003,None,411.1526908780006,None,1,0.45118605000061507,411.1526908780006,None,28,411.6203725840005,None,122,B,1,2021_May_27_0934,GazeFlow,2020.1.2,59.89015474852892,
3,Block804.xls,B,,,,,,,,,,,,,,,,,,0,2,2,2,,,,,,,,,,,,,,,,,,,,,,,,,,,,,,,,,,,,,,,,,,,,122,B,1,2021_May_27_0934,GazeFlow,2020.1.2,59.89015474852892,
4,Block814.xls,B,14,1,99,3,None,incongruent,Right,Left,Right,65,66,1,blue,2,6,/home/docky/apps/exp/images/35Yi.jpeg,/home/docky/apps/exp/images/66B.jpeg,0,3,3,3,0,0,0,0,431.25986002900027,None,431.25986002900027,None,1,7.965955008000492,431.25986002900027,None,439.26148548400033,None,439.26148548400033,None,441.77980199300055,None,441.77980199300055,None,2.185013123000317,443.5602109290003,None,443.5602109290003,None,5,0,1.6526992339995559,445.7372586170004,None,445.7372586170004,None,445.7372586170004,None,447.40634235700054,None,1,0.5019444760000624,447.40634235700054,None,26,447.9246474010006,None,122,B,1,2021_May_27_0934,GazeFlow,2020.1.2,59.89015474852892,
4,Block814.xls,B,14,2,34,34,None,congruent,Right,Right,Left,66,65,1,blue,2,5,/home/docky/apps/exp/images/66B.jpeg,/home/docky/apps/exp/images/35Yi.jpeg,0,3,3,3,0,1,1,1,448.9266451530002,None,448.9266451530002,None,1,4.89338613200016,448.9266451530002,None,453.8594364720002,None,453.8594364720002,None,456.3569739120003,None,456.3569739120003,None,1.58430383599989,458.1620055300009,None,458.1620055300009,None,5,1,1.1523919539995404,459.7311053700005,None,459.7311053700005,None,459.7311053700005,None,460.8999867450002,None,1,0.5338738609998472,460.8999867450002,None,28,461.4504256850005,None,122,B,1,2021_May_27_0934,GazeFlow,2020.1.2,59.89015474852892,
4,Block814.xls,B,14,3,91,91,None,congruent,Right,Right,Left,77,72,5,yellow,2,5,/home/docky/apps/exp/images/77Yi.jpeg,/home/docky/apps/exp/images/72Y.jpeg,0,3,3,3,0,2,2,2,462.45281432700085,None,462.45281432700085,None,1,5.0440209549997235,462.45281432700085,None,467.53022382200015,None,467.53022382200015,None,470.0333126790001,None,470.0333126790001,None,1.167184919000647,471.8364687430003,None,471.8364687430003,None,5,1,1.0683372059993417,472.9904369580008,None,472.9904369580008,None,472.9904369580008,None,474.07517160600037,None,1,0.7183343950000562,474.07517160600037,None,30,474.81009547100075,None,122,B,1,2021_May_27_0934,GazeFlow,2020.1.2,59.89015474852892,
4,Block814.xls,B,14,4,68,68,None,congruent,Left,Left,Right,72,77,5,yellow,2,6,/home/docky/apps/exp/images/72Yi.jpeg,/home/docky/apps/exp/images/77Y.jpeg,0,3,3,3,0,3,3,3,475.81199820300026,None,475.81199820300026,None,1,4.960761901999831,475.81199820300026,None,480.80636909000077,None,480.80636909000077,None,483.3092686250002,None,483.3092686250002,None,1.0002844750006261,485.11475459600024,None,485.11475459600024,None,6,1,1.0681300480000573,486.0993664760008,None,486.0993664760008,None,486.0993664760008,None,487.1842086260003,None,1,0.48516808899967145,487.1842086260003,None,32,487.68564351200075,None,122,B,1,2021_May_27_0934,GazeFlow,2020.1.2,59.89015474852892,
4,Block814.xls,B,14,5,66,66,None,congruent,Left,Left,Right,69,76,7,yellow,2,6,/home/docky/apps/exp/images/69Yi.jpeg,/home/docky/apps/exp/images/76Y.jpeg,0,3,3,3,0,4,4,4,488.6870987650009,None,488.6870987650009,None,1,3.675025956999889,488.6870987650009,None,492.39761822200035,None,492.39761822200035,None,494.8986470180007,None,494.8986470180007,None,1.3676854059995094,496.7017921070001,None,496.7017921070001,None,6,1,1.1183031030004713,498.05602823000027,None,498.05602823000027,None,498.05602823000027,None,499.1909755700008,None,1,1.453280407999955,499.1909755700008,None,34,500.6606171600006,None,122,B,1,2021_May_27_0934,GazeFlow,2020.1.2,59.89015474852892,
4,Block814.xls,B,14,6,115,19,None,incongruent,Left,Right,Left,80,79,1,yellow,2,5,/home/docky/apps/exp/images/80Yi.jpeg,/home/docky/apps/exp/images/79Y.jpeg,0,3,3,3,0,5,5,5,501.66279477100034,None,501.66279477100034,None,1,4.675841539999965,501.66279477100034,None,506.3724284810005,None,506.3724284810005,None,508.876775877,None,508.876775877,None,1.634932703999766,510.6785847960009,None,510.6785847960009,None,6,0,1.4021325140001863,512.299836139,None,512.299836139,None,512.299836139,None,513.7186430180009,None,1,0.4505393360004746,513.7186430180009,None,32,514.18584749,None,122,B,1,2021_May_27_0934,GazeFlow,2020.1.2,59.89015474852892,
4,Block814.xls,B,14,7,9,9,None,congruent,Left,Left,Right,65,66,1,blue,2,6,/home/docky/apps/exp/images/35Yi.jpeg,/home/docky/apps/exp/images/66B.jpeg,0,3,3,3,0,6,6,6,515.1880091460007,None,515.1880091460007,None,1,4.526070310999785,515.1880091460007,None,519.7477233310001,None,519.7477233310001,None,522.2529854080003,None,522.2529854080003,None,0.9497655670002132,524.0541762680004,None,524.0541762680004,None,6,1,1.0684044119998362,524.9905820540007,None,524.9905820540007,None,524.9905820540007,None,526.0752769400005,None,1,0.6349654830000873,526.0752769400005,None,34,526.7267430440006,None,122,B,1,2021_May_27_0934,GazeFlow,2020.1.2,59.89015474852892,
4,Block814.xls,B,14,8,14,14,None,congruent,Left,Left,Right,38,39,1,blue,2,6,/home/docky/apps/exp/images/38Bi.jpeg,/home/docky/apps/exp/images/39B.jpeg,0,3,3,3,0,7,7,7,527.7284324910006,None,527.7284324910006,None,1,4.927090526000029,527.7284324910006,None,532.6889237800006,None,532.6889237800006,None,535.1912317040005,None,535.1912317040005,None,1.3842089130002933,536.9948616450001,None,536.9948616450001,None,5,0,4.3746730049997495,538.3662004990001,None,538.3662004990001,None,538.3662004990001,None,542.7571264020007,None,1,0.5180405370001608,542.7571264020007,None,32,543.2917920580003,None,122,B,1,2021_May_27_0934,GazeFlow,2020.1.2,59.89015474852892,
4,Block814.xls,B,,,,,,,,,,,,,,,,,,0,3,3,3,,,,,,,,,,,,,,,,,,,,,,,,,,,,,,,,,,,,,,,,,,,,122,B,1,2021_May_27_0934,GazeFlow,2020.1.2,59.89015474852892,
5,Block812.xls,B,12,1,18,18,None,congruent,Left,Left,Right,73,76,3,blue,2,6,/home/docky/apps/exp/images/73B.jpeg,/home/docky/apps/exp/images/76Bi.jpeg,0,4,4,4,0,0,0,0,564.6001069590002,None,564.6001069590002,None,1,4.562877936999939,564.6001069590002,None,569.197998951,None,569.197998951,None,571.7150026090003,None,571.7150026090003,None,1.0831540250001126,573.5109751270002,None,573.5109751270002,None,6,1,1.2016726729998481,574.5846521080002,None,574.5846521080002,None,574.5846521080002,None,575.8028640020002,None,1,0.5688831789993856,575.8028640020002,None,34,576.3878889010002,None,122,B,1,2021_May_27_0934,GazeFlow,2020.1.2,59.89015474852892,
5,Block812.xls,B,12,2,3,3,None,congruent,Left,Left,Right,16,19,3,blue,2,6,/home/docky/apps/exp/images/16Bi.jpeg,/home/docky/apps/exp/images/19B.jpeg,0,4,4,4,0,1,1,1,577.3895372230008,None,577.3895372230008,None,1,4.927064144000724,577.3895372230008,None,582.3498150390005,None,582.3498150390005,None,584.851384992,None,584.851384992,None,1.1503815890000624,586.6561325730008,None,586.6561325730008,None,6,1,1.0678430340003615,587.7932097060002,None,587.7932097060002,None,587.7932097060002,None,588.8779355910001,None,1,1.135430436000206,588.8779355910001,None,36,590.0301485750006,None,122,B,1,2021_May_27_0934,GazeFlow,2020.1.2,59.89015474852892,
5,Block812.xls,B,12,3,56,56,None,congruent,Left,Left,Right,62,65,3,yellow,2,6,/home/docky/apps/exp/images/38Bi.jpeg,/home/docky/apps/exp/images/35B.jpeg,0,4,4,4,0,2,2,2,591.0324263920002,None,591.0324263920002,None,1,3.2568094710004516,591.0324263920002,None,594.3223221910002,None,594.3223221910002,None,596.8255995540003,None,596.8255995540003,None,1.8181843539996407,598.628663038,None,598.628663038,None,6,1,1.2349373050001304,600.4339637820003,None,600.4339637820003,None,600.4339637820003,None,601.6853902040002,None,1,0.8685844460005683,601.6853902040002,None,38,602.5703829350005,None,122,B,1,2021_May_27_0934,GazeFlow,2020.1.2,59.89015474852892,
5,Block812.xls,B,12,4,11,11,None,congruent,Left,Left,Right,38,39,1,blue,2,6,/home/docky/apps/exp/images/38B.jpeg,/home/docky/apps/exp/images/39Bi.jpeg,0,4,4,4,0,3,3,3,603.5729098280008,None,603.5729098280008,None,1,3.740677370999947,603.5729098280008,None,607.3474144510001,None,607.3474144510001,None,609.8505810470006,None,609.8505810470006,None,1.1673304559999451,611.6537637900001,None,611.6537637900001,None,6,1,1.386273018000793,612.8073212530007,None,612.8073212530007,None,612.8073212530007,None,614.2095583220007,None,1,0.46723131999988254,614.2095583220007,None,40,614.6937368560002,None,122,B,1,2021_May_27_0934,GazeFlow,2020.1.2,59.89015474852892,
5,Block812.xls,B,12,5,116,20,None,incongruent,Left,Right,Left,35,33,2,yellow,2,5,/home/docky/apps/exp/images/35Yi.jpeg,/home/docky/apps/exp/images/33Y.jpeg,0,4,4,4,0,4,4,4,615.6957124100009,None,615.6957124100009,None,1,3.6742796580001595,615.6957124100009,None,619.4043063890003,None,619.4043063890003,None,621.9085215370005,None,621.9085215370005,None,2.152140309999595,623.7104307530008,None,623.7104307530008,None,5,1,1.3685916969998289,625.8487659040002,None,625.8487659040002,None,625.8487659040002,None,627.2340002980009,None,1,0.584785367999757,627.2340002980009,None,42,627.8356117990006,None,122,B,1,2021_May_27_0934,GazeFlow,2020.1.2,59.89015474852892,
5,Block812.xls,B,12,6,40,40,None,congruent,Right,Right,Left,79,76,3,blue,2,5,/home/docky/apps/exp/images/79Bi.jpeg,/home/docky/apps/exp/images/76B.jpeg,0,4,4,4,0,5,5,5,628.8374771330009,None,628.8374771330009,None,1,4.309044299000561,628.8374771330009,None,633.1799129780002,None,633.1799129780002,None,635.6842887250004,None,635.6842887250004,None,1.9353498700002092,637.4808267670005,None,637.4808267670005,None,5,1,1.8696531859995957,639.4079532500009,None,639.4079532500009,None,639.4079532500009,None,641.2945442500004,None,1,0.6178586639998684,641.2945442500004,None,44,641.9286516740003,None,122,B,1,2021_May_27_0934,GazeFlow,2020.1.2,59.89015474852892,
5,Block812.xls,B,12,7,76,76,None,congruent,Right,Right,Left,39,38,1,yellow,2,5,/home/docky/apps/exp/images/39Yi.jpeg,/home/docky/apps/exp/images/38Y.jpeg,0,4,4,4,0,6,6,6,642.9312256980002,None,642.9312256980002,None,1,5.042933255999742,642.9312256980002,None,648.0080407920004,None,648.0080407920004,None,650.5109752200005,None,650.5109752200005,None,2.3031385249996674,652.3139453200001,None,652.3139453200001,None,5,1,2.253226652000194,654.6041502260005,None,654.6041502260005,None,654.6041502260005,None,656.8745485910003,None,1,0.4676282860000356,656.8745485910003,None,46,657.3586773570005,None,122,B,1,2021_May_27_0934,GazeFlow,2020.1.2,59.89015474852892,
5,Block812.xls,B,12,8,77,77,None,congruent,Right,Right,Left,39,38,1,yellow,2,5,/home/docky/apps/exp/images/39Y.jpeg,/home/docky/apps/exp/images/38Yi.jpeg,0,4,4,4,0,7,7,7,658.3606183310003,None,658.3606183310003,None,1,4.893348743000388,658.3606183310003,None,663.2875640560005,None,663.2875640560005,None,665.7918851070008,None,665.7918851070008,None,1.08342503699987,667.5915256020007,None,667.5915256020007,None,5,1,1.0849593860002642,668.6637123800001,None,668.6637123800001,None,668.6637123800001,None,669.765324768,None,1,0.6354291219995503,669.765324768,None,48,670.4166621240001,None,122,B,1,2021_May_27_0934,GazeFlow,2020.1.2,59.89015474852892,
5,Block812.xls,B,,,,,,,,,,,,,,,,,,0,4,4,4,,,,,,,,,,,,,,,,,,,,,,,,,,,,,,,,,,,,,,,,,,,,122,B,1,2021_May_27_0934,GazeFlow,2020.1.2,59.89015474852892,
6,Block803.xls,B,3,1,84,84,None,congruent,Right,Right,Left,75,69,6,yellow,2,5,/home/docky/apps/exp/images/76Yi.jpeg,/home/docky/apps/exp/images/69Y.jpeg,0,5,5,5,0,0,0,0,690.0560881660003,None,690.0560881660003,None,1,8.182288860999506,690.0560881660003,None,698.2725773520006,None,698.2725773520006,None,700.7919727520002,None,700.7919727520002,None,0.949442733000069,702.5761638190006,None,702.5761638190006,None,5,1,1.3353754360005041,703.5135681360007,None,703.5135681360007,None,703.5135681360007,None,704.8662844310002,None,1,0.8009224620000168,704.8662844310002,None,50,705.6837474190006,None,122,B,1,2021_May_27_0934,GazeFlow,2020.1.2,59.89015474852892,
6,Block803.xls,B,3,2,82,82,None,congruent,Right,Right,Left,66,65,1,yellow,2,5,/home/docky/apps/exp/images/66Y.jpeg,/home/docky/apps/exp/images/35Bi.jpeg,0,5,5,5,0,1,1,1,706.6858518920008,None,706.6858518920008,None,1,5.795531079999819,706.6858518920008,None,712.514749506,None,712.514749506,None,715.0226237640009,None,715.0226237640009,None,1.9522767469998143,716.8207908240001,None,716.8207908240001,None,5,1,1.4022437860003265,718.7593900670008,None,718.7593900670008,None,718.7593900670008,None,720.1783871900006,None,1,0.6009261660001357,720.1783871900006,None,52,720.7960436150006,None,122,B,1,2021_May_27_0934,GazeFlow,2020.1.2,59.89015474852892,
6,Block803.xls,B,3,3,80,80,None,congruent,Right,Right,Left,66,65,1,yellow,2,5,/home/docky/apps/exp/images/66Yi.jpeg,/home/docky/apps/exp/images/35B.jpeg,0,5,5,5,0,2,2,2,721.7984459600002,None,721.7984459600002,None,1,5.961659728000086,721.7984459600002,None,727.7949517640009,None,727.7949517640009,None,730.2964700220009,None,730.2964700220009,None,1.785203174000344,732.099928996,None,732.099928996,None,5,1,1.2182522350003637,733.8716182020007,None,733.8716182020007,None,733.8716182020007,None,735.1067510940002,None,1,0.717817974999889,735.1067510940002,None,54,735.8414313320009,None,122,B,1,2021_May_27_0934,GazeFlow,2020.1.2,59.89015474852892,
6,Block803.xls,B,3,4,79,79,None,congruent,Right,Right,Left,66,65,1,yellow,2,5,/home/docky/apps/exp/images/66Y.jpeg,/home/docky/apps/exp/images/35Bi.jpeg,0,5,5,5,0,3,3,3,736.8439437270008,None,736.8439437270008,None,1,4.842804377999528,736.8439437270008,None,741.7204018440007,None,741.7204018440007,None,744.2233683140003,None,744.2233683140003,None,2.2689638839992767,746.0265871150004,None,746.0265871150004,None,5,1,1.6019351589993676,748.2831885280002,None,748.2831885280002,None,748.2831885280002,None,749.9017454510004,None,1,0.5347451249999722,749.9017454510004,None,56,750.4531286460006,None,122,B,1,2021_May_27_0934,GazeFlow,2020.1.2,59.89015474852892,
6,Block803.xls,B,3,5,92,92,None,congruent,Right,Right,Left,77,72,5,yellow,2,5,/home/docky/apps/exp/images/77Y.jpeg,/home/docky/apps/exp/images/72Yi.jpeg,0,5,5,5,0,4,4,4,751.4550613340007,None,751.4550613340007,None,1,4.559550674000093,751.4550613340007,None,756.05247839,None,756.05247839,None,758.5550957160003,None,758.5550957160003,None,1.4011143579991767,760.3537762010001,None,760.3537762010001,None,5,1,1.035595473000285,761.7419324330003,None,761.7419324330003,None,761.7419324330003,None,762.793845055,None,1,0.6838445559997126,762.793845055,None,58,763.4945798140006,None,122,B,1,2021_May_27_0934,GazeFlow,2020.1.2,59.89015474852892,
6,Block803.xls,B,3,6,106,10,None,incongruent,Left,Right,Left,79,76,3,blue,2,5,/home/docky/apps/exp/images/79Bi.jpeg,/home/docky/apps/exp/images/76B.jpeg,0,5,5,5,0,5,5,5,764.4962883970002,None,764.4962883970002,None,1,5.027416828999776,764.4962883970002,None,769.5571370140005,None,769.5571370140005,None,772.0619961420007,None,772.0619961420007,None,1.1007093790003637,773.8637090220009,None,773.8637090220009,None,5,1,1.2347360290004872,774.9506121440008,None,774.9506121440008,None,774.9506121440008,None,776.2026070540005,None,1,0.6674913949991605,776.2026070540005,None,60,776.8867541230002,None,122,B,1,2021_May_27_0934,GazeFlow,2020.1.2,59.89015474852892,
6,Block803.xls,B,3,7,25,25,None,congruent,Right,Right,Left,19,16,3,blue,2,5,/home/docky/apps/exp/images/19Bi.jpeg,/home/docky/apps/exp/images/16B.jpeg,0,5,5,5,0,6,6,6,777.8887453750003,None,777.8887453750003,None,1,4.860426057000041,777.8887453750003,None,782.7824790440009,None,782.7824790440009,None,785.2874861770006,None,785.2874861770006,None,1.2003721979999682,787.0890369170002,None,787.0890369170002,None,5,1,1.4194026889999805,788.2759001200002,None,788.2759001200002,None,788.2759001200002,None,789.711741823,None,1,0.6511262920002991,789.711741823,None,62,790.3791675520006,None,122,B,1,2021_May_27_0934,GazeFlow,2020.1.2,59.89015474852892,
6,Block803.xls,B,3,8,46,46,None,congruent,Right,Right,Left,39,38,1,blue,2,5,/home/docky/apps/exp/images/39B.jpeg,/home/docky/apps/exp/images/38Bi.jpeg,0,5,5,5,0,7,7,7,791.3811738050008,None,791.3811738050008,None,1,4.1755110389995025,791.3811738050008,None,795.5906098530004,None,795.5906098530004,None,798.0951857980008,None,798.0951857980008,None,1.8180875899997773,799.897119917,None,799.897119917,None,5,1,3.0726048480000827,801.7015658520004,None,801.7015658520004,None,801.7015658520004,None,804.7906159740005,None,1,0.8182831029998852,804.7906159740005,None,64,805.6255863470005,None,122,B,1,2021_May_27_0934,GazeFlow,2020.1.2,59.89015474852892,
6,Block803.xls,B,,,,,,,,,,,,,,,,,,0,5,5,5,,,,,,,,,,,,,,,,,,,,,,,,,,,,,,,,,,,,,,,,,,,,122,B,1,2021_May_27_0934,GazeFlow,2020.1.2,59.89015474852892,
7,Block810.xls,B,10,1,119,23,None,incongruent,Left,Right,Left,76,69,7,yellow,2,5,/home/docky/apps/exp/images/76Yi.jpeg,/home/docky/apps/exp/images/69Y.jpeg,0,6,6,6,0,0,0,0,824.0627410940006,None,824.0627410940006,None,1,6.114583986000071,824.0627410940006,None,830.21770689,None,830.21770689,None,832.7283550950006,None,832.7283550950006,None,0.966023316999781,834.5253725640005,None,834.5253725640005,None,5,1,3.138966943000014,835.4830417710009,None,835.4830417710009,None,835.4830417710009,None,838.6384068700008,None,1,0.8187201129994719,838.6384068700008,None,66,839.4738517080004,None,122,B,1,2021_May_27_0934,GazeFlow,2020.1.2,59.89015474852892,
7,Block810.xls,B,10,2,43,43,None,congruent,Right,Right,Left,83,80,3,blue,2,5,/home/docky/apps/exp/images/83B.jpeg,/home/docky/apps/exp/images/80Bi.jpeg,0,6,6,6,0,1,1,1,840.4759387240001,None,840.4759387240001,None,1,4.091272061999916,840.4759387240001,None,844.6010605240008,None,844.6010605240008,None,847.1055248660005,None,847.1055248660005,None,1.2174483099997815,848.907312671,None,848.907312671,None,5,1,2.671434746000159,850.1111144550005,None,850.1111144550005,None,850.1111144550005,None,852.7989934120005,None,1,2.1049395709997043,852.7989934120005,None,68,854.9201299140004,None,122,B,1,2021_May_27_0934,GazeFlow,2020.1.2,59.89015474852892,
7,Block810.xls,B,10,3,53,53,None,congruent,Left,Left,Right,65,66,1,yellow,2,6,/home/docky/apps/exp/images/35Bi.jpeg,/home/docky/apps/exp/images/66Y.jpeg,0,6,6,6,0,2,2,2,855.9221767080007,None,855.9221767080007,None,1,9.63531105400034,855.9221767080007,None,865.5912992780004,None,865.5912992780004,None,868.0947351610002,None,868.0947351610002,None,1.2002487129993824,869.8973914920007,None,869.8973914920007,None,6,1,1.118205310999656,871.0847183200003,None,871.0847183200003,None,871.0847183200003,None,872.2196568880008,None,1,1.3028506889995697,872.2196568880008,None,70,873.5387416590002,None,122,B,1,2021_May_27_0934,GazeFlow,2020.1.2,59.89015474852892,
7,Block810.xls,B,10,4,74,74,None,congruent,Right,Right,Left,35,33,2,yellow,2,5,/home/docky/apps/exp/images/35Y.jpeg,/home/docky/apps/exp/images/33Yi.jpeg,0,6,6,6,0,3,3,3,874.5410891410002,None,874.5410891410002,None,1,3.907948443999885,874.5410891410002,None,878.4827922740005,None,878.4827922740005,None,880.9854523160002,None,880.9854523160002,None,1.9019557229994462,882.7890774140005,None,882.7890774140005,None,5,1,1.1853893319994313,884.6775788320001,None,884.6775788320001,None,884.6775788320001,None,885.8792642710005,None,1,2.7901992530005373,885.8792642710005,None,72,888.6849140910008,None,122,B,1,2021_May_27_0934,GazeFlow,2020.1.2,59.89015474852892,
7,Block810.xls,B,10,5,21,21,None,congruent,Left,Left,Right,76,79,3,blue,2,6,/home/docky/apps/exp/images/76B.jpeg,/home/docky/apps/exp/images/79Bi.jpeg,0,6,6,6,0,4,4,4,889.6870253200004,None,889.6870253200004,None,1,5.193462049000118,889.6870253200004,None,894.9144430200004,None,894.9144430200004,None,897.4174298850003,None,897.4174298850003,None,1.2338296409998293,899.2201286670006,None,899.2201286670006,None,6,1,1.1522417230007704,900.4412751810005,None,900.4412751810005,None,900.4412751810005,None,901.6098675100002,None,1,0.6843768620001356,901.6098675100002,None,74,902.3108165840003,None,122,B,1,2021_May_27_0934,GazeFlow,2020.1.2,59.89015474852892,
7,Block810.xls,B,10,6,85,85,None,congruent,Right,Right,Left,75,69,6,yellow,2,5,/home/docky/apps/exp/images/76Y.jpeg,/home/docky/apps/exp/images/69Yi.jpeg,0,6,6,6,0,5,5,5,903.3127372130002,None,903.3127372130002,None,1,3.875075074999586,903.3127372130002,None,907.2214630300005,None,907.2214630300005,None,909.7237393260002,None,909.7237393260002,None,1.2007260379996296,911.5217882310008,None,911.5217882310008,None,5,1,1.118619886000488,912.7148740850007,None,912.7148740850007,None,912.7148740850007,None,913.8501851350002,None,1,0.7679576059999818,913.8501851350002,None,76,914.6345646160007,None,122,B,1,2021_May_27_0934,GazeFlow,2020.1.2,59.89015474852892,
7,Block810.xls,B,10,7,49,49,None,congruent,Left,Left,Right,33,35,2,yellow,2,6,/home/docky/apps/exp/images/33Yi.jpeg,/home/docky/apps/exp/images/35Y.jpeg,0,6,6,6,0,6,6,6,915.6366030070003,None,915.6366030070003,None,1,5.344356612999945,915.6366030070003,None,921.0148373450002,None,921.0148373450002,None,923.5179240420002,None,923.5179240420002,None,1.384292638000261,925.3209895130003,None,925.3209895130003,None,6,1,1.1354907889999595,926.6917262070001,None,926.6917262070001,None,926.6917262070001,None,927.8438266950006,None,1,0.6843594389993086,927.8438266950006,None,78,928.5449440720004,None,122,B,1,2021_May_27_0934,GazeFlow,2020.1.2,59.89015474852892,
7,Block810.xls,B,10,8,63,63,None,congruent,Left,Left,Right,38,39,1,yellow,2,6,/home/docky/apps/exp/images/38Y.jpeg,/home/docky/apps/exp/images/39Yi.jpeg,0,6,6,6,0,7,7,7,929.5464663240009,None,929.5464663240009,None,1,3.441093121999984,929.5464663240009,None,933.0210497440003,None,933.0210497440003,None,935.5241852940007,None,935.5241852940007,None,1.5843986510008108,937.3275576880005,None,937.3275576880005,None,5,0,3.3733166639995034,938.8984313330002,None,938.8984313330002,None,938.8984313330002,None,942.2881653250006,None,1,0.5846971350001695,942.2881653250006,None,76,942.8893845130006,None,122,B,1,2021_May_27_0934,GazeFlow,2020.1.2,59.89015474852892,
7,Block810.xls,B,,,,,,,,,,,,,,,,,,0,6,6,6,,,,,,,,,,,,,,,,,,,,,,,,,,,,,,,,,,,,,,,,,,,,122,B,1,2021_May_27_0934,GazeFlow,2020.1.2,59.89015474852892,
8,Block801.xls,B,1,1,1,1,None,congruent,Left,Left,Right,16,19,3,blue,2,6,/home/docky/apps/exp/images/16Bi.jpeg,/home/docky/apps/exp/images/19B.jpeg,0,7,7,7,0,0,0,0,987.6442132850007,None,987.6442132850007,None,1,4.207456562000516,987.6442132850007,None,991.8806248410001,None,991.8806248410001,None,994.40602416,None,994.40602416,None,1.2835277049998695,996.1929721040005,None,996.1929721040005,None,6,1,1.102089947999957,997.4612916680007,None,997.4612916680007,None,997.4612916680007,None,998.5799150250004,None,1,0.884913867999785,998.5799150250004,None,78,999.4813746190002,None,122,B,1,2021_May_27_0934,GazeFlow,2020.1.2,59.89015474852892,
8,Block801.xls,B,1,2,105,9,None,incongruent,Left,Right,Left,79,73,6,blue,2,5,/home/docky/apps/exp/images/79B.jpeg,/home/docky/apps/exp/images/73Bi.jpeg,0,7,7,7,0,1,1,1,1000.4834159610009,None,1000.4834159610009,None,1,4.408992011000009,1000.4834159610009,None,1004.9293738350007,None,1004.9293738350007,None,1007.4291728840008,None,1007.4291728840008,None,1.6179658150003888,1009.2323100860003,None,1009.2323100860003,None,5,1,1.335755688000063,1010.8371459560003,None,1010.8371459560003,None,1010.8371459560003,None,1012.1896164160007,None,1,0.6342330850002327,1012.1896164160007,None,80,1012.8402797360004,None,122,B,1,2021_May_27_0934,GazeFlow,2020.1.2,59.89015474852892,
8,Block801.xls,B,1,3,62,62,None,congruent,Left,Left,Right,38,39,1,yellow,2,6,/home/docky/apps/exp/images/38Y.jpeg,/home/docky/apps/exp/images/39Yi.jpeg,0,7,7,7,0,2,2,2,1013.8427327160007,None,1013.8427327160007,None,1,4.3257084850001775,1013.8427327160007,None,1018.2028662190005,None,1018.2028662190005,None,1020.7100319780002,None,1020.7100319780002,None,2.218952981000257,1022.5034967420006,None,1022.5034967420006,None,5,0,2.053945325999848,1024.7136378720006,None,1024.7136378720006,None,1024.7136378720006,None,1026.784351149,None,1,0.6007043179997709,1026.784351149,None,78,1027.4018398120006,None,122,B,1,2021_May_27_0934,GazeFlow,2020.1.2,59.89015474852892,
8,Block801.xls,B,1,4,38,38,None,congruent,Right,Right,Left,79,73,6,blue,2,5,/home/docky/apps/exp/images/79B.jpeg,/home/docky/apps/exp/images/73Bi.jpeg,0,7,7,7,0,3,3,3,1028.404254692001,None,1028.404254692001,None,1,6.128650186000414,1028.404254692001,None,1034.565357118,None,1034.565357118,None,1037.0697571190003,None,1037.0697571190003,None,1.117349610999554,1038.8724567070003,None,1038.8724567070003,None,5,1,1.1182469659997878,1039.9767698330006,None,1039.9767698330006,None,1039.9767698330006,None,1041.1116725460006,None,1,0.751641555999413,1041.1116725460006,None,80,1041.879735382,None,122,B,1,2021_May_27_0934,GazeFlow,2020.1.2,59.89015474852892,
8,Block801.xls,B,1,5,6,6,None,congruent,Left,Left,Right,35,38,3,blue,2,6,/home/docky/apps/exp/images/35Bi.jpeg,/home/docky/apps/exp/images/38B.jpeg,0,7,7,7,0,4,4,4,1042.8819699550004,None,1042.8819699550004,None,1,5.260958106000544,1042.8819699550004,None,1048.1763444440003,None,1048.1763444440003,None,1050.6786801110002,None,1050.6786801110002,None,2.235827004999919,1052.4770437690004,None,1052.4770437690004,None,6,1,2.555025573000421,1054.705111272,None,1054.705111272,None,1054.705111272,None,1057.2765200390004,None,1,0.5516170790006072,1057.2765200390004,None,82,1057.8441916280008,None,122,B,1,2021_May_27_0934,GazeFlow,2020.1.2,59.89015474852892,
8,Block801.xls,B,1,6,51,51,None,congruent,Left,Left,Right,33,35,2,yellow,2,6,/home/docky/apps/exp/images/33Yi.jpeg,/home/docky/apps/exp/images/35Y.jpeg,0,7,7,7,0,5,5,5,1058.8462755440005,None,1058.8462755440005,None,1,4.342000275999453,1058.8462755440005,None,1063.2219121570006,None,1063.2219121570006,None,1065.7250300220003,None,1065.7250300220003,None,1.6345428350005022,1067.5227945270008,None,1067.5227945270008,None,6,1,1.3028882399994473,1069.1493754120002,None,1069.1493754120002,None,1069.1493754120002,None,1070.4686528970005,None,1,0.5845098409999991,1070.4686528970005,None,84,1071.0697096570002,None,122,B,1,2021_May_27_0934,GazeFlow,2020.1.2,59.89015474852892,
8,Block801.xls,B,1,7,73,73,None,congruent,Right,Right,Left,35,33,2,yellow,2,5,/home/docky/apps/exp/images/35Yi.jpeg,/home/docky/apps/exp/images/33Y.jpeg,0,7,7,7,0,6,6,6,1072.0709831040003,None,1072.0709831040003,None,1,4.4267451330006224,1072.0709831040003,None,1076.5311450630006,None,1076.5311450630006,None,1079.0356369190004,None,1079.0356369190004,None,1.3175268980003239,1080.8393250850004,None,1080.8393250850004,None,5,1,1.2187871369997083,1082.141441531,None,1082.141441531,None,1082.141441531,None,1083.3763797150004,None,1,1.0856969300002675,1083.3763797150004,None,86,1084.4786194590006,None,122,B,1,2021_May_27_0934,GazeFlow,2020.1.2,59.89015474852892,
8,Block801.xls,B,1,8,96,96,None,congruent,Right,Right,Left,80,79,1,yellow,2,5,/home/docky/apps/exp/images/80Yi.jpeg,/home/docky/apps/exp/images/79Y.jpeg,0,7,7,7,0,7,7,7,1085.4808568960007,None,1085.4808568960007,None,1,4.793040586000643,1085.4808568960007,None,1090.3077895300003,None,1090.3077895300003,None,1092.8106417530007,None,1092.8106417530007,None,1.0000416310003857,1094.6139962700008,None,1094.6139962700008,None,5,1,1.2350872770002752,1095.6008201330005,None,1095.6008201330005,None,1095.6008201330005,None,1096.85279351,None,1,0.7511336139996274,1096.85279351,None,88,1097.6205941070002,None,122,B,1,2021_May_27_0934,GazeFlow,2020.1.2,59.89015474852892,
8,Block801.xls,B,,,,,,,,,,,,,,,,,,0,7,7,7,,,,,,,,,,,,,,,,,,,,,,,,,,,,,,,,,,,,,,,,,,,,122,B,1,2021_May_27_0934,GazeFlow,2020.1.2,59.89015474852892,
9,Block802.xls,B,2,1,30,30,None,congruent,Right,Right,Left,38,35,3,blue,2,5,/home/docky/apps/exp/images/38B.jpeg,/home/docky/apps/exp/images/35Bi.jpeg,0,8,8,8,0,0,0,0,1116.341613515,None,1116.341613515,None,1,7.890922892000162,1116.341613515,None,1124.2596404140004,None,1124.2596404140004,None,1126.7792936630003,None,1126.7792936630003,None,1.3165342660004171,1128.577891371,None,1128.577891371,None,5,1,1.6193320370002766,1129.8835306150004,None,1129.8835306150004,None,1129.8835306150004,None,1131.519379847001,None,1,0.6345408249999309,1131.519379847001,None,90,1132.1708335320009,None,122,B,1,2021_May_27_0934,GazeFlow,2020.1.2,59.89015474852892,
9,Block802.xls,B,2,2,5,5,None,congruent,Left,Left,Right,35,38,3,blue,2,6,/home/docky/apps/exp/images/35B.jpeg,/home/docky/apps/exp/images/38Bi.jpeg,0,8,8,8,0,1,1,1,1133.1730591710002,None,1133.1730591710002,None,1,4.826222986000175,1133.1730591710002,None,1138.0328615770004,None,1138.0328615770004,None,1140.5355651400005,None,1140.5355651400005,None,1.150863620000564,1142.3411694570004,None,1142.3411694570004,None,6,1,1.1516441590001705,1143.4764592430001,None,1143.4764592430001,None,1143.4764592430001,None,1144.6445055210006,None,1,0.5348890920004123,1144.6445055210006,None,92,1145.1958949660002,None,122,B,1,2021_May_27_0934,GazeFlow,2020.1.2,59.89015474852892,
9,Block802.xls,B,2,3,103,7,None,incongruent,Left,Right,Left,19,16,3,blue,2,5,/home/docky/apps/exp/images/19Bi.jpeg,/home/docky/apps/exp/images/16B.jpeg,0,8,8,8,0,2,2,2,1146.1984138460002,None,1146.1984138460002,None,1,3.4403527220001706,1146.1984138460002,None,1149.6722303060005,None,1149.6722303060005,None,1152.1756242640004,None,1152.1756242640004,None,1.6180801850005082,1153.9786376260008,None,1153.9786376260008,None,5,1,1.269200173000172,1155.5832417780002,None,1155.5832417780002,None,1155.5832417780002,None,1156.868972999,None,1,0.6343379470008585,1156.868972999,None,94,1157.5197232540004,None,122,B,1,2021_May_27_0934,GazeFlow,2020.1.2,59.89015474852892,
9,Block802.xls,B,2,4,35,35,None,congruent,Right,Right,Left,66,65,1,blue,2,5,/home/docky/apps/exp/images/66B.jpeg,/home/docky/apps/exp/images/35Yi.jpeg,0,8,8,8,0,3,3,3,1158.5215336380006,None,1158.5215336380006,None,1,4.17614260100072,1158.5215336380006,None,1162.7309135040005,None,1162.7309135040005,None,1165.2334616140006,None,1165.2334616140006,None,1.7180610630002775,1167.0369492120008,None,1167.0369492120008,None,5,1,1.3188104920000114,1168.7418041400006,None,1168.7418041400006,None,1168.7418041400006,None,1170.0773349200008,None,1,0.6012669609999648,1170.0773349200008,None,96,1170.6953005070009,None,122,B,1,2021_May_27_0934,GazeFlow,2020.1.2,59.89015474852892,
9,Block802.xls,B,2,5,42,42,None,congruent,Right,Right,Left,83,80,3,blue,2,5,/home/docky/apps/exp/images/83Bi.jpeg,/home/docky/apps/exp/images/80B.jpeg,0,8,8,8,0,4,4,4,1171.697611945,None,1171.697611945,None,1,4.893004851000114,1171.697611945,None,1176.6244952120005,None,1176.6244952120005,None,1179.1291095720007,None,1179.1291095720007,None,1.4178536319996056,1180.9308420470006,None,1180.9308420470006,None,5,1,1.1514884409998558,1182.3351333190003,None,1182.3351333190003,None,1182.3351333190003,None,1183.503254225,None,1,0.7348872909997226,1183.503254225,None,98,1184.2547369550002,None,122,B,1,2021_May_27_0934,GazeFlow,2020.1.2,59.89015474852892,
9,Block802.xls,B,2,6,104,8,None,incongruent,Left,Right,Left,38,35,3,blue,2,5,/home/docky/apps/exp/images/38B.jpeg,/home/docky/apps/exp/images/35Bi.jpeg,0,8,8,8,0,5,5,5,1185.2572137000006,None,1185.2572137000006,None,1,21.541802166000707,1185.2572137000006,None,1206.8330376130007,None,1206.8330376130007,None,1209.3408124980006,None,1209.3408124980006,None,1.4347012779999204,1211.1391223790006,None,1211.1391223790006,None,5,1,1.6195644459994583,1212.5601278550002,None,1212.5601278550002,None,1212.5601278550002,None,1214.1962796060006,None,1,0.6510727780005254,1214.1962796060006,None,100,1214.8640367090002,None,122,B,1,2021_May_27_0934,GazeFlow,2020.1.2,59.89015474852892,
9,Block802.xls,B,2,7,22,22,None,congruent,Left,Left,Right,80,83,3,blue,2,6,/home/docky/apps/exp/images/80Bi.jpeg,/home/docky/apps/exp/images/83B.jpeg,0,8,8,8,0,6,6,6,1215.8659214610007,None,1215.8659214610007,None,1,4.32619223599977,1215.8659214610007,None,1220.2252503460004,None,1220.2252503460004,None,1222.7289203030005,None,1222.7289203030005,None,1.1840444950003075,1224.5262806300007,None,1224.5262806300007,None,6,1,1.0515928889999486,1225.7023504820008,None,1225.7023504820008,None,1225.7023504820008,None,1226.7704345320008,None,1,0.8850212790002843,1226.7704345320008,None,102,1227.6719774320009,None,122,B,1,2021_May_27_0934,GazeFlow,2020.1.2,59.89015474852892,
9,Block802.xls,B,2,8,54,54,None,congruent,Left,Left,Right,65,66,1,yellow,2,6,/home/docky/apps/exp/images/35Bi.jpeg,/home/docky/apps/exp/images/66Y.jpeg,0,8,8,8,0,7,7,7,1228.6738519850005,None,1228.6738519850005,None,1,5.511659779000183,1228.6738519850005,None,1234.2191901020005,None,1234.2191901020005,None,1236.7241193420004,None,1236.7241193420004,None,1.1171059069993134,1238.520666544,None,1238.520666544,None,6,1,1.1183979589995943,1239.6291113020006,None,1239.6291113020006,None,1239.6291113020006,None,1240.764050273,None,1,0.6520762899999681,1240.764050273,None,104,1241.4325580200002,None,122,B,1,2021_May_27_0934,GazeFlow,2020.1.2,59.89015474852892,
9,Block802.xls,B,,,,,,,,,,,,,,,,,,0,8,8,8,,,,,,,,,,,,,,,,,,,,,,,,,,,,,,,,,,,,,,,,,,,,122,B,1,2021_May_27_0934,GazeFlow,2020.1.2,59.89015474852892,
10,Block813.xls,B,13,1,70,70,None,congruent,Left,Left,Right,79,82,3,yellow,2,6,/home/docky/apps/exp/images/79Yi.jpeg,/home/docky/apps/exp/images/80Y.jpeg,0,9,9,9,0,0,0,0,1263.9446147450008,None,1263.9446147450008,None,1,5.346251420000044,1263.9446147450008,None,1269.3177306330008,None,1269.3177306330008,None,1271.8421381120006,None,1271.8421381120006,None,1.0662828670001545,1273.628878421,None,1273.628878421,None,6,1,1.1018342220004342,1274.6803847110004,None,1274.6803847110004,None,1274.6803847110004,None,1275.7986339090003,None,1,1.068860214999404,1275.7986339090003,None,106,1276.8840360390004,None,122,B,1,2021_May_27_0934,GazeFlow,2020.1.2,59.89015474852892,
10,Block813.xls,B,13,2,60,60,None,congruent,Left,Left,Right,38,39,1,yellow,2,6,/home/docky/apps/exp/images/38Yi.jpeg,/home/docky/apps/exp/images/39Y.jpeg,0,9,9,9,0,1,1,1,1277.8865912320007,None,1277.8865912320007,None,1,3.273781314000189,1277.8865912320007,None,1281.1937698840002,None,1281.1937698840002,None,1283.6964312230002,None,1283.6964312230002,None,1.417791459,1285.4946313850005,None,1285.4946313850005,None,6,1,1.3358848999996553,1286.904093694,None,1286.904093694,None,1286.904093694,None,1288.2565048190008,None,1,0.6339637660003064,1288.2565048190008,None,108,1288.907358767,None,122,B,1,2021_May_27_0934,GazeFlow,2020.1.2,59.89015474852892,
10,Block813.xls,B,13,3,81,81,None,congruent,Right,Right,Left,66,65,1,yellow,2,5,/home/docky/apps/exp/images/66Y.jpeg,/home/docky/apps/exp/images/35Bi.jpeg,0,9,9,9,0,2,2,2,1289.9089942380006,None,1289.9089942380006,None,1,6.780876349000209,1289.9089942380006,None,1296.7236417870008,None,1296.7236417870008,None,1299.2265427680004,None,1299.2265427680004,None,1.3008270669997728,1301.0297194140003,None,1301.0297194140003,None,5,1,1.1693560519997845,1302.3172531130003,None,1302.3172531130003,None,1302.3172531130003,None,1303.5026552480003,None,1,0.7679006279995519,1303.5026552480003,None,110,1304.2872411060007,None,122,B,1,2021_May_27_0934,GazeFlow,2020.1.2,59.89015474852892,
10,Block813.xls,B,13,4,110,14,None,incongruent,Right,Left,Right,65,66,1,yellow,2,6,/home/docky/apps/exp/images/35B.jpeg,/home/docky/apps/exp/images/66Yi.jpeg,0,9,9,9,0,3,3,3,1305.2895255000003,None,1305.2895255000003,None,1,7.163975313000265,1305.2895255000003,None,1312.4874693210004,None,1312.4874693210004,None,1314.9903569820008,None,1314.9903569820008,None,0.9835410599998795,1316.7932677340004,None,1316.7932677340004,None,6,1,1.268518452000535,1317.7638469460007,None,1317.7638469460007,None,1317.7638469460007,None,1319.0493500230004,None,1,0.6015238039999531,1319.0493500230004,None,112,1319.667333757,None,122,B,1,2021_May_27_0934,GazeFlow,2020.1.2,59.89015474852892,
10,Block813.xls,B,13,5,17,17,None,congruent,Left,Left,Right,73,76,3,blue,2,6,/home/docky/apps/exp/images/73Bi.jpeg,/home/docky/apps/exp/images/76B.jpeg,0,9,9,9,0,4,4,4,1320.6690771140002,None,1320.6690771140002,None,1,2.9399351430001843,1320.6690771140002,None,1323.6474601680002,None,1323.6474601680002,None,1326.1470156300002,None,1326.1470156300002,None,2.002158366999538,1327.9493319580006,None,1327.9493319580006,None,6,1,1.4025353970000651,1329.9374794670002,None,1329.9374794670002,None,1329.9374794670002,None,1331.3562377180006,None,1,0.6181498739997551,1331.3562377180006,None,114,1331.9907356590002,None,122,B,1,2021_May_27_0934,GazeFlow,2020.1.2,59.89015474852892,
10,Block813.xls,B,13,6,111,15,None,incongruent,Right,Left,Right,62,65,3,yellow,2,6,/home/docky/apps/exp/images/38B.jpeg,/home/docky/apps/exp/images/35Bi.jpeg,0,9,9,9,0,5,5,5,1332.993222565001,None,1332.993222565001,None,1,3.073016772000301,1332.993222565001,None,1336.0999278110003,None,1336.0999278110003,None,1338.6028882720002,None,1338.6028882720002,None,1.434065634000035,1340.4007417190005,None,1340.4007417190005,None,6,1,1.686132706000535,1341.8272002130007,None,1341.8272002130007,None,1341.8272002130007,None,1343.5299588110001,None,1,0.6514902279996022,1343.5299588110001,None,116,1344.1978552640003,None,122,B,1,2021_May_27_0934,GazeFlow,2020.1.2,59.89015474852892,
10,Block813.xls,B,13,7,55,55,None,congruent,Left,Left,Right,65,66,1,yellow,2,6,/home/docky/apps/exp/images/35B.jpeg,/home/docky/apps/exp/images/66Yi.jpeg,0,9,9,9,0,6,6,6,1345.200253332,None,1345.200253332,None,1,2.789198370000122,1345.200253332,None,1348.0232195860008,None,1348.0232195860008,None,1350.5263956890003,None,1350.5263956890003,None,1.735061050000695,1352.3293310120007,None,1352.3293310120007,None,6,1,2.4543568839999352,1354.0508058060004,None,1354.0508058060004,None,1354.0508058060004,None,1356.5218553190007,None,1,2.1047467399994275,1356.5218553190007,None,118,1358.6429376990009,None,122,B,1,2021_May_27_0934,GazeFlow,2020.1.2,59.89015474852892,
10,Block813.xls,B,13,8,26,26,None,congruent,Right,Right,Left,19,16,3,blue,2,5,/home/docky/apps/exp/images/19B.jpeg,/home/docky/apps/exp/images/16Bi.jpeg,0,9,9,9,0,7,7,7,1359.6448632780002,None,1359.6448632780002,None,1,3.1899867329993867,1359.6448632780002,None,1362.8683717110007,None,1362.8683717110007,None,1365.3710933050006,None,1365.3710933050006,None,1.4676749299997027,1367.1754630220003,None,1367.1754630220003,None,5,1,1.101426246000301,1368.6291414410007,None,1368.6291414410007,None,1368.6291414410007,None,1369.7476213240006,None,1,0.6676642920001541,1369.7476213240006,None,120,1370.432089332,None,122,B,1,2021_May_27_0934,GazeFlow,2020.1.2,59.89015474852892,
10,Block813.xls,B,,,,,,,,,,,,,,,,,,0,9,9,9,,,,,,,,,,,,,,,,,,,,,,,,,,,,,,,,,,,,,,,,,,,,122,B,1,2021_May_27_0934,GazeFlow,2020.1.2,59.89015474852892,
11,Block806.xls,B,6,1,10,10,None,congruent,Left,Left,Right,65,66,1,blue,2,6,/home/docky/apps/exp/images/35Y.jpeg,/home/docky/apps/exp/images/66Bi.jpeg,0,10,10,10,0,0,0,0,1393.5953206850008,None,1393.5953206850008,None,1,7.82208675199945,1393.5953206850008,None,1401.4465791710008,None,1401.4465791710008,None,1403.9648238710006,None,1403.9648238710006,None,2.051987213999382,1405.7664100220009,None,1405.7664100220009,None,5,0,2.086976364000293,1407.8050777120006,None,1407.8050777120006,None,1407.8050777120006,None,1409.908552588,None,1,0.535399000000325,1409.908552588,None,118,1410.4601762350003,None,122,B,1,2021_May_27_0934,GazeFlow,2020.1.2,59.89015474852892,
11,Block806.xls,B,6,2,89,89,None,congruent,Right,Right,Left,76,69,7,yellow,2,5,/home/docky/apps/exp/images/76Yi.jpeg,/home/docky/apps/exp/images/69Y.jpeg,0,10,10,10,0,1,1,1,1411.4620345680005,None,1411.4620345680005,None,1,4.325254506999954,1411.4620345680005,None,1415.8210387070003,None,1415.8210387070003,None,1418.323657807,None,1418.323657807,None,1.0837723369995729,1420.126695893,None,1420.126695893,None,5,1,1.202121803999944,1421.1980605430008,None,1421.1980605430008,None,1421.1980605430008,None,1422.4165957990008,None,1,0.6842637440004182,1422.4165957990008,None,120,1423.1174830740001,None,122,B,1,2021_May_27_0934,GazeFlow,2020.1.2,59.89015474852892,
11,Block806.xls,B,6,3,88,88,None,congruent,Right,Right,Left,76,69,7,yellow,2,5,/home/docky/apps/exp/images/76Y.jpeg,/home/docky/apps/exp/images/69Yi.jpeg,0,10,10,10,0,2,2,2,1424.119476752,None,1424.119476752,None,1,5.094366238000475,1424.119476752,None,1429.2472773000009,None,1429.2472773000009,None,1431.7520712250007,None,1431.7520712250007,None,0.8165953339994303,1433.5485334060004,None,1433.5485334060004,None,5,1,1.2521877400004087,1434.3566509080001,None,1434.3566509080001,None,1434.3566509080001,None,1435.6251286700008,None,1,0.7523882710001999,1435.6251286700008,None,122,1436.3938268900001,None,122,B,1,2021_May_27_0934,GazeFlow,2020.1.2,59.89015474852892,
11,Block806.xls,B,6,4,109,13,None,incongruent,Right,Left,Right,33,35,2,yellow,2,6,/home/docky/apps/exp/images/33Yi.jpeg,/home/docky/apps/exp/images/35Y.jpeg,0,10,10,10,0,3,3,3,1437.3952825550004,None,1437.3952825550004,None,1,4.225921960999585,1437.3952825550004,None,1441.6543486300006,None,1441.6543486300006,None,1444.1590640010008,None,1444.1590640010008,None,1.3845272879998447,1445.959764354,None,1445.959764354,None,5,0,1.7696747649997633,1447.3316023390007,None,1447.3316023390007,None,1447.3316023390007,None,1449.1181606320006,None,1,1.9709528910007066,1449.1181606320006,None,120,1451.1055671440008,None,122,B,1,2021_May_27_0934,GazeFlow,2020.1.2,59.89015474852892,
11,Block806.xls,B,6,5,37,37,None,congruent,Right,Right,Left,79,73,6,blue,2,5,/home/docky/apps/exp/images/79Bi.jpeg,/home/docky/apps/exp/images/73B.jpeg,0,10,10,10,0,4,4,4,1452.1075487540002,None,1452.1075487540002,None,1,2.3052224069997465,1452.1075487540002,None,1454.4458194650006,None,1454.4458194650006,None,1456.9494185740004,None,1456.9494185740004,None,1.1835581800005457,1458.7524261550006,None,1458.7524261550006,None,5,1,1.4020806959997572,1459.9226294040009,None,1459.9226294040009,None,1459.9226294040009,None,1461.342015532,None,1,0.7678772310000568,1461.342015532,None,122,1462.1266128390007,None,122,B,1,2021_May_27_0934,GazeFlow,2020.1.2,59.89015474852892,
11,Block806.xls,B,6,6,108,12,None,incongruent,Left,Right,Left,39,38,1,blue,2,5,/home/docky/apps/exp/images/39Bi.jpeg,/home/docky/apps/exp/images/38B.jpeg,0,10,10,10,0,5,5,5,1463.1286946560003,None,1463.1286946560003,None,1,4.392825005999839,1463.1286946560003,None,1467.5547736620001,None,1467.5547736620001,None,1470.0595924180006,None,1470.0595924180006,None,1.7847867099999348,1471.8617362580007,None,1471.8617362580007,None,5,1,1.385391853999863,1473.6328224560002,None,1473.6328224560002,None,1473.6328224560002,None,1475.0349646590003,None,1,0.6181556770006864,1475.0349646590003,None,124,1475.6695680300008,None,122,B,1,2021_May_27_0934,GazeFlow,2020.1.2,59.89015474852892,
11,Block806.xls,B,6,7,52,52,None,congruent,Left,Left,Right,65,66,1,yellow,2,6,/home/docky/apps/exp/images/35B.jpeg,/home/docky/apps/exp/images/66Yi.jpeg,0,10,10,10,0,6,6,6,1476.671886952,None,1476.671886952,None,1,12.858572990000539,1476.671886952,None,1489.5639857820006,None,1489.5639857820006,None,1492.0689325830008,None,1492.0689325830008,None,1.9019889790006346,1493.870914305,None,1493.870914305,None,6,1,1.2021149239999431,1495.759143538001,None,1495.759143538001,None,1495.759143538001,None,1496.9776740610005,None,1,0.6510768829994049,1496.9776740610005,None,126,1497.6456751000005,None,122,B,1,2021_May_27_0934,GazeFlow,2020.1.2,59.89015474852892,
11,Block806.xls,B,6,8,75,75,None,congruent,Right,Right,Left,35,33,2,yellow,2,5,/home/docky/apps/exp/images/35Yi.jpeg,/home/docky/apps/exp/images/33Y.jpeg,0,10,10,10,0,7,7,7,1498.647952841,None,1498.647952841,None,1,5.9456323389995305,1498.647952841,None,1504.6279138560003,None,1504.6279138560003,None,1507.134245665001,None,1507.134245665001,None,1.0166424339995501,1508.9351486970008,None,1508.9351486970008,None,5,1,1.2185327080005663,1509.9364935310005,None,1509.9364935310005,None,1509.9364935310005,None,1511.171791277,None,1,0.7346569700002874,1511.171791277,None,128,1511.9233816550004,None,122,B,1,2021_May_27_0934,GazeFlow,2020.1.2,59.89015474852892,
11,Block806.xls,B,,,,,,,,,,,,,,,,,,0,10,10,10,,,,,,,,,,,,,,,,,,,,,,,,,,,,,,,,,,,,,,,,,,,,122,B,1,2021_May_27_0934,GazeFlow,2020.1.2,59.89015474852892,
12,Block811.xls,B,11,1,86,86,None,congruent,Right,Right,Left,75,69,6,yellow,2,5,/home/docky/apps/exp/images/76Y.jpeg,/home/docky/apps/exp/images/69Yi.jpeg,0,11,11,11,0,0,0,0,1535.6059192840003,None,1535.6059192840003,None,1,10.407832328999575,1535.6059192840003,None,1546.0478248190002,None,1546.0478248190002,None,1548.5656003980002,None,1548.5656003980002,None,1.4002901300000303,1550.365786624,None,1550.365786624,None,5,1,1.1859478529995613,1551.7511217570009,None,1551.7511217570009,None,1551.7511217570009,None,1552.9532351490006,None,1,0.7344804499998645,1552.9532351490006,None,130,1553.7042905530006,None,122,B,1,2021_May_27_0934,GazeFlow,2020.1.2,59.89015474852892,
12,Block811.xls,B,11,2,83,83,None,congruent,Right,Right,Left,75,69,6,yellow,2,5,/home/docky/apps/exp/images/76Yi.jpeg,/home/docky/apps/exp/images/69Y.jpeg,0,11,11,11,0,1,1,1,1554.7065992900007,None,1554.7065992900007,None,1,4.626480409000578,1554.7065992900007,None,1559.366409317,None,1559.366409317,None,1561.8695840770006,None,1561.8695840770006,None,1.367389199000172,1563.6717784900002,None,1563.6717784900002,None,5,1,1.3695928879997155,1565.0270645350001,None,1565.0270645350001,None,1565.0270645350001,None,1566.412689453001,None,1,0.6511329429995385,1566.412689453001,None,132,1567.0801125100006,None,122,B,1,2021_May_27_0934,GazeFlow,2020.1.2,59.89015474852892,
12,Block811.xls,B,11,3,28,28,None,congruent,Right,Right,Left,38,35,3,blue,2,5,/home/docky/apps/exp/images/38Bi.jpeg,/home/docky/apps/exp/images/35B.jpeg,0,11,11,11,0,2,2,2,1568.0824242580002,None,1568.0824242580002,None,1,5.611984545999803,1568.0824242580002,None,1573.7275416390003,None,1573.7275416390003,None,1576.2308299810002,None,1576.2308299810002,None,1.7683356939996884,1578.0359150660006,None,1578.0359150660006,None,5,1,1.8532463899991853,1579.7888051730006,None,1579.7888051730006,None,1579.7888051730006,None,1581.6586911110007,None,1,0.6845429190007053,1581.6586911110007,None,134,1582.3600485200004,None,122,B,1,2021_May_27_0934,GazeFlow,2020.1.2,59.89015474852892,
12,Block811.xls,B,11,4,58,58,None,congruent,Left,Left,Right,62,65,3,yellow,2,6,/home/docky/apps/exp/images/38B.jpeg,/home/docky/apps/exp/images/35Bi.jpeg,0,11,11,11,0,3,3,3,1583.3624224050009,None,1583.3624224050009,None,1,4.14220641799966,1583.3624224050009,None,1587.5377309310006,None,1587.5377309310006,None,1590.0410474660002,None,1590.0410474660002,None,1.234004541000104,1591.8439403070006,None,1591.8439403070006,None,6,1,1.2191766750001989,1593.0648082260004,None,1593.0648082260004,None,1593.0648082260004,None,1594.3004762970004,None,1,1.3352678829996876,1594.3004762970004,None,136,1595.6524639420004,None,122,B,1,2021_May_27_0934,GazeFlow,2020.1.2,59.89015474852892,
12,Block811.xls,B,11,5,32,32,None,congruent,Right,Right,Left,66,65,1,blue,2,5,/home/docky/apps/exp/images/66Bi.jpeg,/home/docky/apps/exp/images/35Y.jpeg,0,11,11,11,0,4,4,4,1596.6547532060004,None,1596.6547532060004,None,1,4.108684559999347,1596.6547532060004,None,1600.7968781280006,None,1600.7968781280006,None,1603.3016596020007,None,1603.3016596020007,None,1.9687755909999396,1605.1032087180001,None,1605.1032087180001,None,5,1,1.4188801989994317,1607.0585441830008,None,1607.0585441830008,None,1607.0585441830008,None,1608.4942988300008,None,1,0.617898583999704,1608.4942988300008,None,138,1609.1288793630001,None,122,B,1,2021_May_27_0934,GazeFlow,2020.1.2,59.89015474852892,
12,Block811.xls,B,11,6,67,67,None,congruent,Left,Left,Right,72,77,5,yellow,2,6,/home/docky/apps/exp/images/72Y.jpeg,/home/docky/apps/exp/images/77Yi.jpeg,0,11,11,11,0,5,5,5,1610.1310006420008,None,1610.1310006420008,None,1,4.826253005000581,1610.1310006420008,None,1614.9911863050002,None,1614.9911863050002,None,1617.493730786,None,1617.493730786,None,1.6681650609998542,1619.2973673810002,None,1619.2973673810002,None,6,1,1.1022030670001186,1620.9521417940005,None,1620.9521417940005,None,1620.9521417940005,None,1622.070823088001,None,1,1.1853940430000875,1622.070823088001,None,140,1623.2725415580007,None,122,B,1,2021_May_27_0934,GazeFlow,2020.1.2,59.89015474852892,
12,Block811.xls,B,11,7,120,24,None,incongruent,Left,Right,Left,77,72,5,yellow,2,5,/home/docky/apps/exp/images/77Y.jpeg,/home/docky/apps/exp/images/72Yi.jpeg,0,11,11,11,0,6,6,6,1624.2751331620002,None,1624.2751331620002,None,1,3.1563708090006912,1624.2751331620002,None,1627.4636922520003,None,1627.4636922520003,None,1629.9701755730002,None,1629.9701755730002,None,1.7684226989995295,1631.7722308360007,None,1631.7722308360007,None,5,1,1.5021960499998386,1633.5267691850004,None,1633.5267691850004,None,1633.5267691850004,None,1635.0456951980004,None,1,0.5513597170001958,1635.0456951980004,None,142,1635.6133494740006,None,122,B,1,2021_May_27_0934,GazeFlow,2020.1.2,59.89015474852892,
12,Block811.xls,B,11,8,57,57,None,congruent,Left,Left,Right,62,65,3,yellow,2,6,/home/docky/apps/exp/images/38Bi.jpeg,/home/docky/apps/exp/images/35B.jpeg,0,11,11,11,0,7,7,7,1636.6157917150003,None,1636.6157917150003,None,1,5.344608159000018,1636.6157917150003,None,1641.9936319460003,None,1641.9936319460003,None,1644.4964833600006,None,1644.4964833600006,None,0.999788424000144,1646.3002046290003,None,1646.3002046290003,None,6,1,1.1016242870000497,1647.2868469720006,None,1647.2868469720006,None,1647.2868469720006,None,1648.4049553370005,None,1,0.7017928770001163,1648.4049553370005,None,144,1649.123317687,None,122,B,1,2021_May_27_0934,GazeFlow,2020.1.2,59.89015474852892,
12,Block811.xls,B,,,,,,,,,,,,,,,,,,0,11,11,11,,,,,,,,,,,,,,,,,,,,,,,,,,,,,,,,,,,,,,,,,,,,122,B,1,2021_May_27_0934,GazeFlow,2020.1.2,59.89015474852892,
13,Block808.xls,B,8,1,118,22,None,incongruent,Left,Right,Left,75,69,6,yellow,2,5,/home/docky/apps/exp/images/76Y.jpeg,/home/docky/apps/exp/images/69Yi.jpeg,0,12,12,12,0,0,0,0,1670.2834452740008,None,1670.2834452740008,None,1,6.099783349999598,1670.2834452740008,None,1676.4105699640004,None,1676.4105699640004,None,1678.9321421600007,None,1678.9321421600007,None,1.1998892970004817,1680.7356596970003,None,1680.7356596970003,None,5,1,1.5860411460007526,1681.9206159570003,None,1681.9206159570003,None,1681.9206159570003,None,1683.5235812600004,None,1,2.0544591190000574,1683.5235812600004,None,146,1685.5943159360004,None,122,B,1,2021_May_27_0934,GazeFlow,2020.1.2,59.89015474852892,
13,Block808.xls,B,8,2,7,7,None,congruent,Left,Left,Right,65,66,1,blue,2,6,/home/docky/apps/exp/images/35Yi.jpeg,/home/docky/apps/exp/images/66B.jpeg,0,12,12,12,0,1,1,1,1686.5962485630007,None,1686.5962485630007,None,1,4.1254052419999425,1686.5962485630007,None,1690.755125132,None,1690.755125132,None,1693.258124764,None,1693.258124764,None,1.517735614999765,1695.0616767850006,None,1695.0616767850006,None,6,1,1.3694510810000793,1696.5658389210002,None,1696.5658389210002,None,1696.5658389210002,None,1697.9517007160002,None,1,0.7008976480001365,1697.9517007160002,None,148,1698.6691792050005,None,122,B,1,2021_May_27_0934,GazeFlow,2020.1.2,59.89015474852892,
13,Block808.xls,B,8,3,112,16,None,incongruent,Right,Left,Right,69,76,7,yellow,2,6,/home/docky/apps/exp/images/69Yi.jpeg,/home/docky/apps/exp/images/76Y.jpeg,0,12,12,12,0,2,2,2,1699.6718306550001,None,1699.6718306550001,None,1,3.3231946830001107,1699.6718306550001,None,1703.028624257,None,1703.028624257,None,1705.5314019260004,None,1705.5314019260004,None,0.782998957000018,1707.3352177260003,None,1707.3352177260003,None,6,1,1.4520576449995133,1708.1050911230004,None,1708.1050911230004,None,1708.1050911230004,None,1709.574364307001,None,1,0.8343415789995561,1709.574364307001,None,150,1710.4254991290009,None,122,B,1,2021_May_27_0934,GazeFlow,2020.1.2,59.89015474852892,
13,Block808.xls,B,8,4,97,1,None,incongruent,Right,Left,Right,16,19,3,blue,2,6,/home/docky/apps/exp/images/16Bi.jpeg,/home/docky/apps/exp/images/19B.jpeg,0,12,12,12,0,3,3,3,1711.427601884,None,1711.427601884,None,1,4.592827997000313,1711.427601884,None,1716.0523798270005,None,1716.0523798270005,None,1718.5624806920005,None,1718.5624806920005,None,0.8664323299999523,1720.3592436560002,None,1720.3592436560002,None,5,0,1.3189000720003605,1721.2138264690002,None,1721.2138264690002,None,1721.2138264690002,None,1722.5488954820003,None,1,0.7193516930001351,1722.5488954820003,None,148,1723.2842663230003,None,122,B,1,2021_May_27_0934,GazeFlow,2020.1.2,59.89015474852892,
13,Block808.xls,B,8,5,24,24,None,congruent,Left,Left,Right,80,83,3,blue,2,6,/home/docky/apps/exp/images/80Bi.jpeg,/home/docky/apps/exp/images/83B.jpeg,0,12,12,12,0,4,4,4,1724.285874479,None,1724.285874479,None,1,6.362914481000189,1724.285874479,None,1730.682727763,None,1730.682727763,None,1733.1857632380006,None,1733.1857632380006,None,1.1002485070002876,1734.9892215450009,None,1734.9892215450009,None,6,1,1.4363051540003653,1736.0758141550004,None,1736.0758141550004,None,1736.0758141550004,None,1737.528963623001,None,1,0.8675257969998711,1737.528963623001,None,150,1738.4133137030003,None,122,B,1,2021_May_27_0934,GazeFlow,2020.1.2,59.89015474852892,
13,Block808.xls,B,8,6,13,13,None,congruent,Left,Left,Right,38,39,1,blue,2,6,/home/docky/apps/exp/images/38Bi.jpeg,/home/docky/apps/exp/images/39B.jpeg,0,12,12,12,0,5,5,5,1739.4152975210009,None,1739.4152975210009,None,1,4.008430908000264,1739.4152975210009,None,1743.4575471980006,None,1743.4575471980006,None,1745.9604169570002,None,1745.9604169570002,None,1.5679543350006497,1747.7634515060008,None,1747.7634515060008,None,6,1,1.5194063190001543,1749.3181862590009,None,1749.3181862590009,None,1749.3181862590009,None,1750.853793667001,None,1,0.584765566999522,1750.853793667001,None,152,1751.455339135,None,122,B,1,2021_May_27_0934,GazeFlow,2020.1.2,59.89015474852892,
13,Block808.xls,B,8,7,8,8,None,congruent,Left,Left,Right,65,66,1,blue,2,6,/home/docky/apps/exp/images/35Y.jpeg,/home/docky/apps/exp/images/66Bi.jpeg,0,12,12,12,0,6,6,6,1752.4574569530005,None,1752.4574569530005,None,1,4.8932900970003175,1752.4574569530005,None,1757.386827026001,None,1757.386827026001,None,1759.8874574780002,None,1759.8874574780002,None,1.3342341699999452,1761.6909481810007,None,1761.6909481810007,None,6,1,1.502884885999265,1763.0117229220004,None,1763.0117229220004,None,1763.0117229220004,None,1764.53105658,None,1,0.8180076720000216,1764.53105658,None,154,1765.365704152,None,122,B,1,2021_May_27_0934,GazeFlow,2020.1.2,59.89015474852892,
13,Block808.xls,B,8,8,31,31,None,congruent,Right,Right,Left,66,65,1,blue,2,5,/home/docky/apps/exp/images/66B.jpeg,/home/docky/apps/exp/images/35Yi.jpeg,0,12,12,12,0,7,7,7,1766.367561383,None,1766.367561383,None,1,4.64314220399956,1766.367561383,None,1771.0445295990003,None,1771.0445295990003,None,1773.547811501,None,1773.547811501,None,2.603920872999879,1775.351126685,None,1775.351126685,None,5,1,2.4038656129996525,1777.9580417230009,None,1777.9580417230009,None,1777.9580417230009,None,1780.378521173,None,1,0.8183325220006736,1780.378521173,None,156,1781.2134755740008,None,122,B,1,2021_May_27_0934,GazeFlow,2020.1.2,59.89015474852892,
13,Block808.xls,B,,,,,,,,,,,,,,,,,,0,12,12,12,,,,,,,,,,,,,,,,,,,,,,,,,,,,,,,,,,,,,,,,,,,,122,B,1,2021_May_27_0934,GazeFlow,2020.1.2,59.89015474852892,
14,Block815.xls,B,15,1,65,65,None,congruent,Left,Left,Right,69,76,7,yellow,2,6,/home/docky/apps/exp/images/69Yi.jpeg,/home/docky/apps/exp/images/76Y.jpeg,0,13,13,13,0,0,0,0,1812.4604373070006,None,1812.4604373070006,None,1,3.8425583609996465,1812.4604373070006,None,1816.3333016200004,None,1816.3333016200004,None,1818.8539187490005,None,1818.8539187490005,None,1.1830563299999994,1820.655916959,None,1820.655916959,None,6,1,1.3021107599997777,1821.8260192140006,None,1821.8260192140006,None,1821.8260192140006,None,1823.1447096890006,None,1,0.6850227329996414,1823.1447096890006,None,158,1823.8461317990004,None,122,B,1,2021_May_27_0934,GazeFlow,2020.1.2,59.89015474852892,
14,Block815.xls,B,15,2,102,6,None,incongruent,Right,Left,Right,80,83,3,blue,2,6,/home/docky/apps/exp/images/80B.jpeg,/home/docky/apps/exp/images/83Bi.jpeg,0,13,13,13,0,1,1,1,1824.848431806,None,1824.848431806,None,1,5.678404145000059,1824.848431806,None,1830.5603655820005,None,1830.5603655820005,None,1833.0648395430007,None,1833.0648395430007,None,1.2674993670007098,1834.8668082110007,None,1834.8668082110007,None,6,1,1.3859292950000963,1836.1204682950001,None,1836.1204682950001,None,1836.1204682950001,None,1837.5228838980001,None,1,0.7177107999996224,1837.5228838980001,None,160,1838.257320146001,None,122,B,1,2021_May_27_0934,GazeFlow,2020.1.2,59.89015474852892,
14,Block815.xls,B,15,3,33,33,None,congruent,Right,Right,Left,66,65,1,blue,2,5,/home/docky/apps/exp/images/66Bi.jpeg,/home/docky/apps/exp/images/35Y.jpeg,0,13,13,13,0,2,2,2,1839.2595167980007,None,1839.2595167980007,None,1,5.594601380999848,1839.2595167980007,None,1844.8879385990003,None,1844.8879385990003,None,1847.3930164530002,None,1847.3930164530002,None,1.284151125999415,1849.1948362660005,None,1849.1948362660005,None,5,1,1.3355565890005892,1850.465114955001,None,1850.465114955001,None,1850.465114955001,None,1851.8176072850001,None,1,0.7175788740005373,1851.8176072850001,None,162,1852.5519012950008,None,122,B,1,2021_May_27_0934,GazeFlow,2020.1.2,59.89015474852892,
14,Block815.xls,B,15,4,72,72,None,congruent,Left,Left,Right,79,82,3,yellow,2,6,/home/docky/apps/exp/images/79Yi.jpeg,/home/docky/apps/exp/images/80Y.jpeg,0,13,13,13,0,3,3,3,1853.5538508110003,None,1853.5538508110003,None,1,4.626381293000122,1853.5538508110003,None,1858.2137023330006,None,1858.2137023330006,None,1860.7168111240007,None,1860.7168111240007,None,1.0665286539997396,1862.5159035350007,None,1862.5159035350007,None,6,1,1.4031431200000952,1863.5739635580003,None,1863.5739635580003,None,1863.5739635580003,None,1864.9931420870007,None,1,0.6340976530000262,1864.9931420870007,None,164,1865.6439368760002,None,122,B,1,2021_May_27_0934,GazeFlow,2020.1.2,59.89015474852892,
14,Block815.xls,B,15,5,100,4,None,incongruent,Right,Left,Right,73,76,3,blue,2,6,/home/docky/apps/exp/images/73B.jpeg,/home/docky/apps/exp/images/76Bi.jpeg,0,13,13,13,0,4,4,4,1866.6461631880002,None,1866.6461631880002,None,1,4.960109050000028,1866.6461631880002,None,1871.6401090460004,None,1871.6401090460004,None,1874.1425345760008,None,1874.1425345760008,None,1.6515364850001788,1875.9461215460005,None,1875.9461215460005,None,6,1,1.368494549999923,1877.5845221870004,None,1877.5845221870004,None,1877.5845221870004,None,1878.9697615990008,None,1,0.5181778979995215,1878.9697615990008,None,166,1879.5041680880004,None,122,B,1,2021_May_27_0934,GazeFlow,2020.1.2,59.89015474852892,
14,Block815.xls,B,15,6,45,45,None,congruent,Right,Right,Left,39,38,1,blue,2,5,/home/docky/apps/exp/images/39B.jpeg,/home/docky/apps/exp/images/38Bi.jpeg,0,13,13,13,0,5,5,5,1880.5063464480008,None,1880.5063464480008,None,1,3.775114747999396,1880.5063464480008,None,1884.315148693,None,1884.315148693,None,1886.818109027001,None,1886.818109027001,None,1.1670924219997687,1888.6209729640004,None,1888.6209729640004,None,5,1,1.4023661109995373,1889.7749817630001,None,1889.7749817630001,None,1889.7749817630001,None,1891.1936830850009,None,1,0.5512987649999559,1891.1936830850009,None,168,1891.7615264730002,None,122,B,1,2021_May_27_0934,GazeFlow,2020.1.2,59.89015474852892,
14,Block815.xls,B,15,7,98,2,None,incongruent,Right,Left,Right,35,38,3,blue,2,6,/home/docky/apps/exp/images/35Bi.jpeg,/home/docky/apps/exp/images/38B.jpeg,0,13,13,13,0,6,6,6,1892.7633858590007,None,1892.7633858590007,None,1,5.144437672999629,1892.7633858590007,None,1897.9414178250008,None,1897.9414178250008,None,1900.4442462380002,None,1900.4442462380002,None,1.7014594499996747,1902.2472609960005,None,1902.2472609960005,None,6,1,1.401735135999843,1903.9359779590004,None,1903.9359779590004,None,1903.9359779590004,None,1905.3544807650005,None,1,0.4675603109999429,1905.3544807650005,None,170,1905.8388997620004,None,122,B,1,2021_May_27_0934,GazeFlow,2020.1.2,59.89015474852892,
14,Block815.xls,B,15,8,59,59,None,congruent,Left,Left,Right,38,39,1,yellow,2,6,/home/docky/apps/exp/images/38Yi.jpeg,/home/docky/apps/exp/images/39Y.jpeg,0,13,13,13,0,7,7,7,1906.8406695910007,None,1906.8406695910007,None,1,3.925175131999822,1906.8406695910007,None,1910.7989855840005,None,1910.7989855840005,None,1913.3021018870004,None,1913.3021018870004,None,1.217088442000204,1915.1058806660003,None,1915.1058806660003,None,5,0,2.003615286999775,1916.3095413720002,None,1916.3095413720002,None,1916.3095413720002,None,1918.3299606910005,None,1,0.5176686309996512,1918.3299606910005,None,168,1918.864188724,None,122,B,1,2021_May_27_0934,GazeFlow,2020.1.2,59.89015474852892,
14,Block815.xls,B,,,,,,,,,,,,,,,,,,0,13,13,13,,,,,,,,,,,,,,,,,,,,,,,,,,,,,,,,,,,,,,,,,,,,122,B,1,2021_May_27_0934,GazeFlow,2020.1.2,59.89015474852892,
15,Block807.xls,B,7,1,71,71,None,congruent,Left,Left,Right,79,82,3,yellow,2,6,/home/docky/apps/exp/images/79Y.jpeg,/home/docky/apps/exp/images/80Yi.jpeg,0,14,14,14,0,0,0,0,1941.5104642390006,None,1941.5104642390006,None,1,5.76439052600017,1941.5104642390006,None,1947.3086902330006,None,1947.3086902330006,None,1949.8300459740003,None,1949.8300459740003,None,1.0331715450001866,1951.6290490180008,None,1951.6290490180008,None,6,1,1.118380494000121,1952.6471819160006,None,1952.6471819160006,None,1952.6471819160006,None,1953.7821472110008,None,1,0.4842837169999257,1953.7821472110008,None,170,1954.2829992230008,None,122,B,1,2021_May_27_0934,GazeFlow,2020.1.2,59.89015474852892,
15,Block807.xls,B,7,2,44,44,None,congruent,Right,Right,Left,83,80,3,blue,2,5,/home/docky/apps/exp/images/83Bi.jpeg,/home/docky/apps/exp/images/80B.jpeg,0,14,14,14,0,1,1,1,1955.285101333,None,1955.285101333,None,1,3.5075317860000723,1955.285101333,None,1958.8263535640008,None,1958.8263535640008,None,1961.3295440700003,None,1961.3295440700003,None,1.4175552079996123,1963.1329235560006,None,1963.1329235560006,None,5,1,1.469216337999569,1964.5367089860001,None,1964.5367089860001,None,1964.5367089860001,None,1966.022508645,None,1,0.5844668319996345,1966.022508645,None,172,1966.6238149660003,None,122,B,1,2021_May_27_0934,GazeFlow,2020.1.2,59.89015474852892,
15,Block807.xls,B,7,3,48,48,None,congruent,Right,Right,Left,39,38,1,blue,2,5,/home/docky/apps/exp/images/39Bi.jpeg,/home/docky/apps/exp/images/38B.jpeg,0,14,14,14,0,2,2,2,1967.625724171,None,1967.625724171,None,1,5.361086505999992,1967.625724171,None,1973.0207099300005,None,1973.0207099300005,None,1975.5295089850006,None,1975.5295089850006,None,1.3843065300006856,1977.326899908,None,1977.326899908,None,5,1,1.4190916289999222,1978.6980154940002,None,1978.6980154940002,None,1978.6980154940002,None,1980.1333749720006,None,1,0.6681909950002591,1980.1333749720006,None,174,1980.818013088,None,122,B,1,2021_May_27_0934,GazeFlow,2020.1.2,59.89015474852892,
15,Block807.xls,B,7,4,113,17,None,incongruent,Right,Left,Right,72,77,5,yellow,2,6,/home/docky/apps/exp/images/72Yi.jpeg,/home/docky/apps/exp/images/77Y.jpeg,0,14,14,14,0,3,3,3,1981.820458655,None,1981.820458655,None,1,6.279129192000255,1981.820458655,None,1988.1331625130006,None,1988.1331625130006,None,1990.638118062,None,1990.638118062,None,1.7853473180002766,1992.4347413470005,None,1992.4347413470005,None,6,1,1.719485308000003,1994.2113321980005,None,1994.2113321980005,None,1994.2113321980005,None,1995.9478584500002,None,1,0.6012391240001307,1995.9478584500002,None,176,1996.5654278910006,None,122,B,1,2021_May_27_0934,GazeFlow,2020.1.2,59.89015474852892,
15,Block807.xls,B,7,5,69,69,None,congruent,Left,Left,Right,72,77,5,yellow,2,6,/home/docky/apps/exp/images/72Y.jpeg,/home/docky/apps/exp/images/77Yi.jpeg,0,14,14,14,0,4,4,4,1997.5679328680008,None,1997.5679328680008,None,1,3.2398509399999966,1997.5679328680008,None,2000.8413697620008,None,2000.8413697620008,None,2003.3459354310007,None,2003.3459354310007,None,0.8999429039995448,2005.1481342250008,None,2005.1481342250008,None,6,1,1.1683841149997534,2006.0344673030004,None,2006.0344673030004,None,2006.0344673030004,None,2007.2195700860002,None,1,0.4851671120004539,2007.2195700860002,None,178,2007.7209396970002,None,122,B,1,2021_May_27_0934,GazeFlow,2020.1.2,59.89015474852892,
15,Block807.xls,B,7,6,39,39,None,congruent,Right,Right,Left,79,76,3,blue,2,5,/home/docky/apps/exp/images/79B.jpeg,/home/docky/apps/exp/images/76Bi.jpeg,0,14,14,14,0,5,5,5,2008.7225700750005,None,2008.7225700750005,None,1,4.776488728000004,2008.7225700750005,None,2013.5311554590007,None,2013.5311554590007,None,2016.0358668260005,None,2016.0358668260005,None,0.9501577889996042,2017.8396074450002,None,2017.8396074450002,None,5,1,1.4862786610001422,2018.7759010530008,None,2018.7759010530008,None,2018.7759010530008,None,2020.2786051480007,None,1,0.634265444000448,2020.2786051480007,None,180,2020.9293736990003,None,122,B,1,2021_May_27_0934,GazeFlow,2020.1.2,59.89015474852892,
15,Block807.xls,B,7,7,50,50,None,congruent,Left,Left,Right,33,35,2,yellow,2,6,/home/docky/apps/exp/images/33Y.jpeg,/home/docky/apps/exp/images/35Yi.jpeg,0,14,14,14,0,6,6,6,2021.9315802590008,None,2021.9315802590008,None,1,5.694694921000519,2021.9315802590008,None,2027.6599828130002,None,2027.6599828130002,None,2030.1650272250008,None,2030.1650272250008,None,1.7518092329992214,2031.9673074340008,None,2031.9673074340008,None,6,1,1.6524278019996927,2033.7050356560003,None,2033.7050356560003,None,2033.7050356560003,None,2035.3744516720008,None,1,0.6343341400006466,2035.3744516720008,None,182,2036.025659592,None,122,B,1,2021_May_27_0934,GazeFlow,2020.1.2,59.89015474852892,
15,Block807.xls,B,7,8,19,19,None,congruent,Left,Left,Right,76,79,3,blue,2,6,/home/docky/apps/exp/images/76B.jpeg,/home/docky/apps/exp/images/79Bi.jpeg,0,14,14,14,0,7,7,7,2037.0280811050006,None,2037.0280811050006,None,1,3.089930056999947,2037.0280811050006,None,2040.1514802110005,None,2040.1514802110005,None,2042.6559650180006,None,2042.6559650180006,None,1.0835760080008185,2044.453098379,None,2044.453098379,None,6,1,1.0180822459997216,2045.5280206040006,None,2045.5280206040006,None,2045.5280206040006,None,2046.562676943,None,1,0.5684041309996246,2046.562676943,None,184,2047.1470428450002,None,122,B,1,2021_May_27_0934,GazeFlow,2020.1.2,59.89015474852892,
15,Block807.xls,B,,,,,,,,,,,,,,,,,,0,14,14,14,,,,,,,,,,,,,,,,,,,,,,,,,,,,,,,,,,,,,,,,,,,,122,B,1,2021_May_27_0934,GazeFlow,2020.1.2,59.89015474852892,
