Nblock,condsFile,grouping,Block,TrialBlock,N,trialN,trialCond,gazeCon,gazedirR,corrBinR,corrBinP,valLBY,valRBY,diff,colorCube,feedbacktext,corrAns,imageL,imageR,SelBlocks.thisRepN,SelBlocks.thisTrialN,SelBlocks.thisN,SelBlocks.thisIndex,Trials.thisRepN,Trials.thisTrialN,Trials.thisN,Trials.thisIndex,waitCube.started,waitCube.stopped,text_3.started,text_3.stopped,StartKeyPress.keys,StartKeyPress.rt,StartKeyPress.started,StartKeyPress.stopped,StimL.started,StimL.stopped,StimR.started,StimR.stopped,imageStim2L.started,imageStim2L.stopped,imageStim2R.started,imageStim2R.stopped,RTkeyRelease,imageStim3L.started,imageStim3L.stopped,imageStim3R.started,imageStim3R.stopped,dropResp.keys,dropResp.corr,dropResp.rt,dropResp.started,dropResp.stopped,imageStim5L.started,imageStim5L.stopped,imageStim5R.started,imageStim5R.stopped,text_2.started,text_2.stopped,ReturnSpace.keys,ReturnSpace.rt,ReturnSpace.started,ReturnSpace.stopped,totalpoints,textFeedback.started,textFeedback.stopped,participant,group,session,date,expName,psychopyVersion,frameRate,
1,Block502.xls,A,2,1,93,33,22,incongruent,Left,Right,Left,38,35,3,blue,2,5,/home/docky/apps/exp/images/38B.jpeg,/home/docky/apps/exp/images/35Bi.jpeg,0,0,0,0,0,0,0,0,18.149874324000848,None,18.149874324000848,None,1,25.603591969998888,18.149874324000848,None,43.79416025200044,None,43.79416025200044,None,46.304543566000575,None,46.304543566000575,None,2.8199235160009266,48.107562180999594,None,48.107562180999594,None,5,1,1.083165509000537,50.92937832499956,None,50.92937832499956,None,50.92937832499956,None,52.029410911000014,None,1,1.1352429810012836,52.029410911000014,None,2,53.181386743000985,None,123,A,1,2021_May_27_1055,GazeFlow,2020.1.2,59.90578700744572,
1,Block502.xls,A,2,2,42,42,12,congruent,Right,Right,Left,83,80,3,blue,2,5,/home/docky/apps/exp/images/83Bi.jpeg,/home/docky/apps/exp/images/80B.jpeg,0,0,0,0,0,1,1,1,54.18397098300011,None,54.18397098300011,None,1,4.693195933999959,54.18397098300011,None,58.91012278600101,None,58.91012278600101,None,61.41362540400041,None,61.41362540400041,None,1.5847624660000292,63.21678540399989,None,63.21678540399989,None,5,1,1.2529306600008567,64.78777672199976,None,64.78777672199976,None,64.78777672199976,None,66.05680734999987,None,1,0.7681960780009831,66.05680734999987,None,4,66.8412505819997,None,123,A,1,2021_May_27_1055,GazeFlow,2020.1.2,59.90578700744572,
1,Block502.xls,A,2,3,9,9,11,congruent,Left,Left,Right,38,39,1,blue,2,6,/home/docky/apps/exp/images/38Bi.jpeg,/home/docky/apps/exp/images/39B.jpeg,0,0,0,0,0,2,2,2,67.8438292890005,None,67.8438292890005,None,1,5.644300285001009,67.8438292890005,None,73.52371115599999,None,73.52371115599999,None,76.03065962099936,None,76.03065962099936,None,1.5509863389997918,77.82871414500005,None,77.82871414500005,None,6,1,1.3023910550000437,79.36608667800101,None,79.36608667800101,None,79.36608667800101,None,80.68527284599986,None,1,0.7511782129986386,80.68527284599986,None,6,81.4530324669995,None,123,A,1,2021_May_27_1055,GazeFlow,2020.1.2,59.90578700744572,
1,Block502.xls,A,2,4,23,23,11,congruent,Left,Left,Right,38,39,1,yellow,2,6,/home/docky/apps/exp/images/38Yi.jpeg,/home/docky/apps/exp/images/39Y.jpeg,0,0,0,0,0,3,3,3,82.45528714300053,None,82.45528714300053,None,1,4.726005623999299,82.45528714300053,None,87.21545341199999,None,87.21545341199999,None,89.7199912720007,None,89.7199912720007,None,1.4174174320014572,91.52180440300071,None,91.52180440300071,None,6,1,9.90241781000077,92.92576319799991,None,92.92576319799991,None,92.92576319799991,None,102.84469968099984,None,1,2.020868365998467,102.84469968099984,None,8,104.88186556899927,None,123,A,1,2021_May_27_1055,GazeFlow,2020.1.2,59.90578700744572,
1,Block502.xls,A,2,5,57,57,12,congruent,Right,Right,Left,77,72,5,yellow,2,5,/home/docky/apps/exp/images/77Y.jpeg,/home/docky/apps/exp/images/72Yi.jpeg,0,0,0,0,0,4,4,4,105.88393980699948,None,105.88393980699948,None,1,11.823703834999833,105.88393980699948,None,117.74103507700056,None,117.74103507700056,None,120.24570667700027,None,120.24570667700027,None,2.419974945998547,122.04249854599948,None,122.04249854599948,None,6,0,1.8024734980008361,124.47071044999939,None,124.47071044999939,None,124.47071044999939,None,126.28939109199928,None,1,1.1531004410007881,126.28939109199928,None,6,127.45902800899967,None,123,A,1,2021_May_27_1055,GazeFlow,2020.1.2,59.90578700744572,
1,Block502.xls,A,2,6,118,58,22,incongruent,Left,Right,Left,80,79,1,yellow,2,5,/home/docky/apps/exp/images/80Yi.jpeg,/home/docky/apps/exp/images/79Y.jpeg,0,0,0,0,0,5,5,5,128.46101835199988,None,128.46101835199988,None,1,7.431290287999218,128.46101835199988,None,135.92615210000076,None,135.92615210000076,None,138.42897577999975,None,138.42897577999975,None,2.921059325000897,140.23200452200035,None,140.23200452200035,None,5,1,1.1028370490002999,143.1552854950005,None,143.1552854950005,None,143.1552854950005,None,144.27469765299975,None,1,1.0353896130000066,144.27469765299975,None,8,145.32644243600043,None,123,A,1,2021_May_27_1055,GazeFlow,2020.1.2,59.90578700744572,
1,Block502.xls,A,2,7,101,41,22,incongruent,Left,Right,Left,83,80,3,blue,2,5,/home/docky/apps/exp/images/83Bi.jpeg,/home/docky/apps/exp/images/80B.jpeg,0,0,0,0,0,6,6,6,146.32898586400006,None,146.32898586400006,None,1,5.527642871000353,146.32898586400006,None,151.89037923599972,None,151.89037923599972,None,154.39278957100032,None,154.39278957100032,None,1.952071554000213,156.19620395200036,None,156.19620395200036,None,5,1,1.1850141489994712,158.13531154500015,None,158.13531154500015,None,158.13531154500015,None,159.33715922900046,None,1,1.2688961870007915,159.33715922900046,None,10,160.62290540399954,None,123,A,1,2021_May_27_1055,GazeFlow,2020.1.2,59.90578700744572,
1,Block502.xls,A,2,8,69,9,21,incongruent,Right,Left,Right,73,76,3,blue,2,6,/home/docky/apps/exp/images/73B.jpeg,/home/docky/apps/exp/images/76Bi.jpeg,0,0,0,0,0,7,7,7,161.625217832001,None,161.625217832001,None,1,6.479479853000157,161.625217832001,None,168.13866249000057,None,168.13866249000057,None,170.64129330700052,None,170.64129330700052,None,1.4676299950006069,172.4454045929997,None,172.4454045929997,None,6,1,1.5192609690002428,173.89898480900047,None,173.89898480900047,None,173.89898480900047,None,175.43512855399968,None,1,1.4030385959995328,175.43512855399968,None,12,176.85467302300094,None,123,A,1,2021_May_27_1055,GazeFlow,2020.1.2,59.90578700744572,
1,Block502.xls,A,,,,,,,,,,,,,,,,,,0,0,0,0,,,,,,,,,,,,,,,,,,,,,,,,,,,,,,,,,,,,,,,,,,,,123,A,1,2021_May_27_1055,GazeFlow,2020.1.2,59.90578700744572,
2,Block506.xls,A,6,1,120,60,22,incongruent,Left,Right,Left,80,79,1,yellow,2,5,/home/docky/apps/exp/images/80Yi.jpeg,/home/docky/apps/exp/images/79Y.jpeg,0,1,1,1,0,0,0,0,193.60567544600053,None,193.60567544600053,None,1,5.334209480000936,193.60567544600053,None,198.9632032869995,None,198.9632032869995,None,201.4849792290006,None,201.4849792290006,None,1.9179336959987268,203.28782821000095,None,203.28782821000095,None,5,1,2.2703486869995686,205.1931923230004,None,205.1931923230004,None,205.1931923230004,None,207.4799543829995,None,1,1.2369947839997621,207.4799543829995,None,14,208.7330836660003,None,123,A,1,2021_May_27_1055,GazeFlow,2020.1.2,59.90578700744572,
2,Block506.xls,A,6,2,51,51,12,congruent,Right,Right,Left,66,65,1,yellow,2,5,/home/docky/apps/exp/images/66Y.jpeg,/home/docky/apps/exp/images/35Bi.jpeg,0,1,1,1,0,1,1,1,209.73505366500103,None,209.73505366500103,None,1,5.01042152700029,209.73505366500103,None,214.7790519600003,None,214.7790519600003,None,217.28226154000004,None,217.28226154000004,None,4.507191161999799,219.08562661299948,None,219.08562661299948,None,6,0,2.4706635559996357,223.59629064100045,None,223.59629064100045,None,223.59629064100045,None,226.08333102399956,None,1,1.1194193739993352,226.08333102399956,None,12,227.21895439400032,None,123,A,1,2021_May_27_1055,GazeFlow,2020.1.2,59.90578700744572,
2,Block506.xls,A,6,3,119,59,22,incongruent,Left,Right,Left,80,79,1,yellow,2,5,/home/docky/apps/exp/images/80Y.jpeg,/home/docky/apps/exp/images/79Yi.jpeg,0,1,1,1,0,2,2,2,228.2209480170004,None,228.2209480170004,None,1,6.178755950999403,228.2209480170004,None,234.433301391,None,234.433301391,None,236.936725466001,None,236.936725466001,None,2.0019490360009513,238.7393833290007,None,238.7393833290007,None,6,0,1.9699257129996113,240.72868155700053,None,240.72868155700053,None,240.72868155700053,None,242.7149649260009,None,1,1.2865920849999384,242.7149649260009,None,10,244.01814932399975,None,123,A,1,2021_May_27_1055,GazeFlow,2020.1.2,59.90578700744572,
2,Block506.xls,A,6,4,28,28,11,congruent,Left,Left,Right,72,77,5,yellow,2,6,/home/docky/apps/exp/images/72Y.jpeg,/home/docky/apps/exp/images/77Yi.jpeg,0,1,1,1,0,3,3,3,245.01985812299972,None,245.01985812299972,None,1,6.279607263000798,245.01985812299972,None,251.33304337799927,None,251.33304337799927,None,253.83580840899958,None,253.83580840899958,None,2.9546166159998393,255.6391761979994,None,255.6391761979994,None,6,1,1.9864766509999754,258.5970738800006,None,258.5970738800006,None,258.5970738800006,None,260.5997849579999,None,1,0.986231446999227,260.5997849579999,None,12,261.6021432739999,None,123,A,1,2021_May_27_1055,GazeFlow,2020.1.2,59.90578700744572,
2,Block506.xls,A,6,5,85,25,21,incongruent,Right,Left,Right,69,75,6,yellow,2,6,/home/docky/apps/exp/images/69Y.jpeg,/home/docky/apps/exp/images/76Yi.jpeg,0,1,1,1,0,4,4,4,262.60422755699983,None,262.60422755699983,None,1,4.843329776000246,262.60422755699983,None,267.480948466,None,267.480948466,None,269.98586963699927,None,269.98586963699927,None,2.804195971999434,271.7871243310001,None,271.7871243310001,None,6,1,1.7859060670016333,274.5948080350008,None,274.5948080350008,None,274.5948080350008,None,276.39704693800013,None,1,0.9691810969998187,276.39704693800013,None,14,277.38281494200055,None,123,A,1,2021_May_27_1055,GazeFlow,2020.1.2,59.90578700744572,
2,Block506.xls,A,6,6,71,11,21,incongruent,Right,Left,Right,76,79,3,blue,2,6,/home/docky/apps/exp/images/76B.jpeg,/home/docky/apps/exp/images/79Bi.jpeg,0,1,1,1,0,5,5,5,278.38473553699987,None,278.38473553699987,None,1,3.7245515900012833,278.38473553699987,None,282.14276810000047,None,282.14276810000047,None,284.6460010129995,None,284.6460010129995,None,2.035643118000735,286.4512446459994,None,286.4512446459994,None,6,1,1.5689447339991602,288.47124645000076,None,288.47124645000076,None,288.47124645000076,None,290.05671774999973,None,1,0.9525294449995272,290.05671774999973,None,16,291.0256974040003,None,123,A,1,2021_May_27_1055,GazeFlow,2020.1.2,59.90578700744572,
2,Block506.xls,A,6,7,56,56,12,congruent,Right,Right,Left,76,69,7,yellow,2,5,/home/docky/apps/exp/images/76Yi.jpeg,/home/docky/apps/exp/images/69Y.jpeg,0,1,1,1,0,6,6,6,292.02787671199985,None,292.02787671199985,None,1,3.3398911229996884,292.02787671199985,None,295.40153730199927,None,295.40153730199927,None,297.90636174800056,None,297.90636174800056,None,1.501272774001336,299.7098647799994,None,299.7098647799994,None,5,1,1.4355655039998965,301.1956289310001,None,301.1956289310001,None,301.1956289310001,None,302.64768904000084,None,1,1.1356326170007378,302.64768904000084,None,18,303.8000109679997,None,123,A,1,2021_May_27_1055,GazeFlow,2020.1.2,59.90578700744572,
2,Block506.xls,A,6,8,33,33,12,congruent,Right,Right,Left,38,35,3,blue,2,5,/home/docky/apps/exp/images/38B.jpeg,/home/docky/apps/exp/images/35Bi.jpeg,0,1,1,1,0,7,7,7,304.80257842100036,None,304.80257842100036,None,1,4.191651175999141,304.80257842100036,None,309.0281412130007,None,309.0281412130007,None,311.5311951900003,None,311.5311951900003,None,1.5678779469999427,313.3364386630001,None,313.3364386630001,None,5,1,1.3029336090003198,314.8887575280005,None,314.8887575280005,None,314.8887575280005,None,316.2080553199994,None,1,0.9350429830010398,316.2080553199994,None,20,317.1594174189995,None,123,A,1,2021_May_27_1055,GazeFlow,2020.1.2,59.90578700744572,
2,Block506.xls,A,,,,,,,,,,,,,,,,,,0,1,1,1,,,,,,,,,,,,,,,,,,,,,,,,,,,,,,,,,,,,,,,,,,,,123,A,1,2021_May_27_1055,GazeFlow,2020.1.2,59.90578700744572,
3,Block505.xls,A,5,1,1,1,11,congruent,Left,Left,Right,16,19,3,blue,2,6,/home/docky/apps/exp/images/16Bi.jpeg,/home/docky/apps/exp/images/19B.jpeg,0,2,2,2,0,0,0,0,334.54363222199936,None,334.54363222199936,None,1,5.899528735999411,334.54363222199936,None,340.47515769299935,None,340.47515769299935,None,342.9944743830001,None,342.9944743830001,None,1.4670688650003285,344.79755169300006,None,344.79755169300006,None,6,1,1.535635235000882,346.24996663599995,None,346.24996663599995,None,346.24996663599995,None,347.80202289500085,None,1,1.0690877600009117,347.80202289500085,None,22,348.88784307900096,None,123,A,1,2021_May_27_1055,GazeFlow,2020.1.2,59.90578700744572,
3,Block505.xls,A,5,2,10,10,11,congruent,Left,Left,Right,73,76,3,blue,2,6,/home/docky/apps/exp/images/73B.jpeg,/home/docky/apps/exp/images/76Bi.jpeg,0,2,2,2,0,1,1,1,349.88991785600047,None,349.88991785600047,None,1,3.9413794159991085,349.88991785600047,None,353.8650014300001,None,353.8650014300001,None,356.36963900999945,None,356.36963900999945,None,3.138315567999598,358.17294274900087,None,358.17294274900087,None,6,1,1.4172520890006126,361.31377197800066,None,361.31377197800066,None,361.31377197800066,None,362.74796507999963,None,1,1.002373046001594,362.74796507999963,None,24,363.7668768200001,None,123,A,1,2021_May_27_1055,GazeFlow,2020.1.2,59.90578700744572,
3,Block505.xls,A,5,3,95,35,22,incongruent,Left,Right,Left,66,65,1,blue,2,5,/home/docky/apps/exp/images/66B.jpeg,/home/docky/apps/exp/images/35Yi.jpeg,0,2,2,2,0,2,2,2,364.7688264820008,None,364.7688264820008,None,1,4.24225248699986,364.7688264820008,None,369.04515296799946,None,369.04515296799946,None,371.54938174900053,None,371.54938174900053,None,1.8014427199996135,373.3512263550001,None,373.3512263550001,None,6,0,1.2516497559990967,375.13923408499977,None,375.13923408499977,None,375.13923408499977,None,376.40741394900033,None,1,0.8852253320001182,376.40741394900033,None,22,377.30937308300054,None,123,A,1,2021_May_27_1055,GazeFlow,2020.1.2,59.90578700744572,
3,Block505.xls,A,5,4,46,46,12,congruent,Right,Right,Left,35,33,2,yellow,2,5,/home/docky/apps/exp/images/35Yi.jpeg,/home/docky/apps/exp/images/33Y.jpeg,0,2,2,2,0,3,3,3,378.311739707,None,378.311739707,None,1,3.9746378750005533,378.311739707,None,382.3202730280009,None,382.3202730280009,None,384.8249214839998,None,384.8249214839998,None,2.6371542760007287,386.6271155779996,None,386.6271155779996,None,6,0,1.5355709689993091,389.2667347330007,None,389.2667347330007,None,389.2667347330007,None,390.8188264729997,None,1,0.8359766400008084,390.8188264729997,None,20,391.67106149900064,None,123,A,1,2021_May_27_1055,GazeFlow,2020.1.2,59.90578700744572,
3,Block505.xls,A,5,5,78,18,21,incongruent,Right,Left,Right,65,66,1,yellow,2,6,/home/docky/apps/exp/images/35Bi.jpeg,/home/docky/apps/exp/images/66Y.jpeg,0,2,2,2,0,4,4,4,392.67294670000047,None,392.67294670000047,None,1,5.377866814998924,392.67294670000047,None,398.08375593600067,None,398.08375593600067,None,400.58705877899956,None,400.58705877899956,None,2.5537159070008784,402.3908224679999,None,402.3908224679999,None,5,0,1.2517007189999276,404.9473030040008,None,404.9473030040008,None,404.9473030040008,None,406.215445541,None,1,0.8349546260014904,406.215445541,None,18,407.0671030480007,None,123,A,1,2021_May_27_1055,GazeFlow,2020.1.2,59.90578700744572,
3,Block505.xls,A,5,6,43,43,12,congruent,Right,Right,Left,83,80,3,blue,2,5,/home/docky/apps/exp/images/83B.jpeg,/home/docky/apps/exp/images/80Bi.jpeg,0,2,2,2,0,5,5,5,408.06944989399926,None,408.06944989399926,None,1,5.510930955000731,408.06944989399926,None,413.61442452899973,None,413.61442452899973,None,416.11911965299987,None,416.11911965299987,None,2.0352673240013246,417.9156216200008,None,417.9156216200008,None,6,0,1.5526058859995828,419.94272966599965,None,419.94272966599965,None,419.94272966599965,None,421.51149095599976,None,1,0.9188335390008433,421.51149095599976,None,16,422.44742269699964,None,123,A,1,2021_May_27_1055,GazeFlow,2020.1.2,59.90578700744572,
3,Block505.xls,A,5,7,44,44,12,congruent,Right,Right,Left,39,38,1,blue,2,5,/home/docky/apps/exp/images/39Bi.jpeg,/home/docky/apps/exp/images/38B.jpeg,0,2,2,2,0,6,6,6,423.44932072700067,None,423.44932072700067,None,1,5.995185431000209,423.44932072700067,None,429.4782388200001,None,429.4782388200001,None,431.981679292001,None,431.981679292001,None,3.3885035139992397,433.7845750710003,None,433.7845750710003,None,6,0,3.308257759999833,437.1745569680006,None,437.1745569680006,None,437.1745569680006,None,440.49897077400055,None,1,0.9187498709998181,440.49897077400055,None,14,441.43408181700033,None,123,A,1,2021_May_27_1055,GazeFlow,2020.1.2,59.90578700744572,
3,Block505.xls,A,5,8,116,56,22,incongruent,Left,Right,Left,77,72,5,yellow,2,5,/home/docky/apps/exp/images/77Y.jpeg,/home/docky/apps/exp/images/72Y.jpeg,0,2,2,2,0,7,7,7,442.4361477630009,None,442.4361477630009,None,1,6.029181838001023,442.4361477630009,None,448.4986179660009,None,448.4986179660009,None,451.00153164699987,None,451.00153164699987,None,3.9736934740012657,452.80442338600005,None,452.80442338600005,None,5,1,1.418146488000275,456.7813243929995,None,456.7813243929995,None,456.7813243929995,None,458.21625952900104,None,1,0.9362582539997675,458.21625952900104,None,16,459.1684737609994,None,123,A,1,2021_May_27_1055,GazeFlow,2020.1.2,59.90578700744572,
3,Block505.xls,A,,,,,,,,,,,,,,,,,,0,2,2,2,,,,,,,,,,,,,,,,,,,,,,,,,,,,,,,,,,,,,,,,,,,,123,A,1,2021_May_27_1055,GazeFlow,2020.1.2,59.90578700744572,
4,Block509.xls,A,9,1,34,34,12,congruent,Right,Right,Left,38,35,3,blue,2,5,/home/docky/apps/exp/images/38Bi.jpeg,/home/docky/apps/exp/images/35B.jpeg,0,3,3,3,0,0,0,0,511.604936619,None,511.604936619,None,1,5.832414389000405,511.604936619,None,517.469137043001,None,517.469137043001,None,519.9871854009998,None,519.9871854009998,None,2.368999784999687,521.7907374820006,None,521.7907374820006,None,6,0,1.5670822049996787,524.1635602999995,None,524.1635602999995,None,524.1635602999995,None,525.7472893459999,None,1,0.8858226920001471,525.7472893459999,None,14,526.6494019769998,None,123,A,1,2021_May_27_1055,GazeFlow,2020.1.2,59.90578700744572,
4,Block509.xls,A,9,2,7,7,11,congruent,Left,Left,Right,65,66,1,blue,2,6,/home/docky/apps/exp/images/35Yi.jpeg,/home/docky/apps/exp/images/66B.jpeg,0,3,3,3,0,1,1,1,527.6514841480002,None,527.6514841480002,None,1,6.830542445000901,527.6514841480002,None,534.5153261270007,None,534.5153261270007,None,537.0202482210007,None,537.0202482210007,None,2.3366586480005935,538.8234512170002,None,538.8234512170002,None,5,0,1.5689504210004088,541.1449900120006,None,541.1449900120006,None,541.1449900120006,None,542.7300557580002,None,1,1.2198595499994553,542.7300557580002,None,12,543.9662860349999,None,123,A,1,2021_May_27_1055,GazeFlow,2020.1.2,59.90578700744572,
4,Block509.xls,A,9,3,74,14,21,incongruent,Right,Left,Right,80,83,3,blue,2,6,/home/docky/apps/exp/images/80B.jpeg,/home/docky/apps/exp/images/83Bi.jpeg,0,3,3,3,0,2,2,2,544.9683608609994,None,544.9683608609994,None,1,5.962052509999921,544.9683608609994,None,550.9638277539998,None,550.9638277539998,None,553.467160690001,None,553.467160690001,None,2.4534517590000178,555.2707064549995,None,555.2707064549995,None,6,1,1.637030746000164,557.7253314600002,None,557.7253314600002,None,557.7253314600002,None,559.3791405339998,None,1,1.0193264420013293,559.3791405339998,None,14,560.414932609001,None,123,A,1,2021_May_27_1055,GazeFlow,2020.1.2,59.90578700744572,
4,Block509.xls,A,9,4,19,19,11,congruent,Left,Left,Right,65,66,1,yellow,2,6,/home/docky/apps/exp/images/35Bi.jpeg,/home/docky/apps/exp/images/66Y.jpeg,0,3,3,3,0,3,3,3,561.4169362550001,None,561.4169362550001,None,1,4.776573565000945,561.4169362550001,None,566.2289252270002,None,566.2289252270002,None,568.7300856969996,None,568.7300856969996,None,2.5034181350001745,570.5325646229994,None,570.5325646229994,None,5,0,1.5536843050012976,573.0383114659999,None,573.0383114659999,None,573.0383114659999,None,574.6087946139996,None,1,1.002896824000345,574.6087946139996,None,12,575.6279232409997,None,123,A,1,2021_May_27_1055,GazeFlow,2020.1.2,59.90578700744572,
4,Block509.xls,A,9,5,60,60,12,congruent,Right,Right,Left,80,79,1,yellow,2,5,/home/docky/apps/exp/images/80Yi.jpeg,/home/docky/apps/exp/images/79Y.jpeg,0,3,3,3,0,4,4,4,576.629732667001,None,576.629732667001,None,1,4.9269116729992675,576.629732667001,None,581.5902088349994,None,581.5902088349994,None,584.093273679,None,584.093273679,None,2.136107489999631,585.8920031830003,None,585.8920031830003,None,5,1,1.702838889999839,588.0185645300007,None,588.0185645300007,None,588.0185645300007,None,589.7381220419993,None,1,1.0026471889996174,589.7381220419993,None,14,590.7570754459994,None,123,A,1,2021_May_27_1055,GazeFlow,2020.1.2,59.90578700744572,
4,Block509.xls,A,9,6,83,23,21,incongruent,Right,Left,Right,38,39,1,yellow,2,6,/home/docky/apps/exp/images/38Yi.jpeg,/home/docky/apps/exp/images/39Y.jpeg,0,3,3,3,0,5,5,5,591.7590848140007,None,591.7590848140007,None,1,4.058226174000083,591.7590848140007,None,595.8511524860005,None,595.8511524860005,None,598.3542295419993,None,598.3542295419993,None,3.355280677000337,600.1573409080011,None,600.1573409080011,None,6,1,1.2032777500007796,603.5139806509997,None,603.5139806509997,None,603.5139806509997,None,604.7335751450009,None,1,0.8687950870007626,604.7335751450009,None,16,605.6189850379997,None,123,A,1,2021_May_27_1055,GazeFlow,2020.1.2,59.90578700744572,
4,Block509.xls,A,9,7,4,4,11,congruent,Left,Left,Right,35,38,3,blue,2,6,/home/docky/apps/exp/images/35B.jpeg,/home/docky/apps/exp/images/38Bi.jpeg,0,3,3,3,0,6,6,6,606.6219287269996,None,606.6219287269996,None,1,3.5735521130009147,606.6219287269996,None,610.2289153040001,None,610.2289153040001,None,612.7318499419998,None,612.7318499419998,None,1.7181134299989935,614.535084735,None,614.535084735,None,5,0,4.44211088100019,616.2400644019999,None,616.2400644019999,None,616.2400644019999,None,620.698547639,None,1,0.8685718760007148,620.698547639,None,14,621.583581588,None,123,A,1,2021_May_27_1055,GazeFlow,2020.1.2,59.90578700744572,
4,Block509.xls,A,9,8,24,24,11,congruent,Left,Left,Right,38,39,1,yellow,2,6,/home/docky/apps/exp/images/38Y.jpeg,/home/docky/apps/exp/images/39Yi.jpeg,0,3,3,3,0,7,7,7,622.5856326560006,None,622.5856326560006,None,1,4.726441528000578,622.5856326560006,None,627.3453706790006,None,627.3453706790006,None,629.8480529690005,None,629.8480529690005,None,2.7707252569998673,631.6519096450011,None,631.6519096450011,None,5,0,1.3533907250002812,634.4241605980005,None,634.4241605980005,None,634.4241605980005,None,635.794185779001,None,1,0.8519382889990084,635.794185779001,None,12,636.6624660990001,None,123,A,1,2021_May_27_1055,GazeFlow,2020.1.2,59.90578700744572,
4,Block509.xls,A,,,,,,,,,,,,,,,,,,0,3,3,3,,,,,,,,,,,,,,,,,,,,,,,,,,,,,,,,,,,,,,,,,,,,123,A,1,2021_May_27_1055,GazeFlow,2020.1.2,59.90578700744572,
5,Block504.xls,A,4,1,11,11,11,congruent,Left,Left,Right,73,76,3,blue,2,6,/home/docky/apps/exp/images/73Bi.jpeg,/home/docky/apps/exp/images/76B.jpeg,0,4,4,4,0,0,0,0,668.6434395670003,None,668.6434395670003,None,1,5.316738639998221,668.6434395670003,None,673.9885210140001,None,673.9885210140001,None,676.5073695299998,None,676.5073695299998,None,3.2377437350005493,678.3093058129998,None,678.3093058129998,None,5,0,1.63537453599929,681.5507204389996,None,681.5507204389996,None,681.5507204389996,None,683.2028720609997,None,1,0.9028122310010076,683.2028720609997,None,10,684.1215565969997,None,123,A,1,2021_May_27_1055,GazeFlow,2020.1.2,59.90578700744572,
5,Block504.xls,A,4,2,87,27,21,incongruent,Right,Left,Right,72,77,5,yellow,2,6,/home/docky/apps/exp/images/72Y.jpeg,/home/docky/apps/exp/images/77Yi.jpeg,0,4,4,4,0,1,1,1,685.1236490600004,None,685.1236490600004,None,1,15.780962293998527,685.1236490600004,None,700.9382809159997,None,700.9382809159997,None,703.4409579389994,None,703.4409579389994,None,1.7519009790012205,705.2451964459997,None,705.2451964459997,None,6,1,1.6866325669998332,706.982846203,None,706.982846203,None,706.982846203,None,708.6854050750007,None,1,0.9523150340010034,708.6854050750007,None,12,709.6541925149995,None,123,A,1,2021_May_27_1055,GazeFlow,2020.1.2,59.90578700744572,
5,Block504.xls,A,4,3,48,48,12,congruent,Right,Right,Left,39,38,1,yellow,2,5,/home/docky/apps/exp/images/39Yi.jpeg,/home/docky/apps/exp/images/38Y.jpeg,0,4,4,4,0,2,2,2,710.656519088001,None,710.656519088001,None,1,6.747286304000227,710.656519088001,None,717.4407440970008,None,717.4407440970008,None,719.941918044,None,719.941918044,None,4.390642549999029,721.7429068580004,None,721.7429068580004,None,6,0,6.129940926999552,726.1356245030001,None,726.1356245030001,None,726.1356245030001,None,732.2816772799997,None,1,0.8188477410003543,732.2816772799997,None,10,733.1167709300007,None,123,A,1,2021_May_27_1055,GazeFlow,2020.1.2,59.90578700744572,
5,Block504.xls,A,4,4,38,38,12,congruent,Right,Right,Left,79,73,6,blue,2,5,/home/docky/apps/exp/images/79B.jpeg,/home/docky/apps/exp/images/73Bi.jpeg,0,4,4,4,0,3,3,3,734.1187528259998,None,734.1187528259998,None,1,5.594422641999699,734.1187528259998,None,739.7469398140001,None,739.7469398140001,None,742.2497145739999,None,742.2497145739999,None,1.935352710999723,744.0474457849996,None,744.0474457849996,None,5,1,1.4357573670004058,745.9752802260009,None,745.9752802260009,None,745.9752802260009,None,747.4275794179994,None,1,0.8186440339995897,747.4275794179994,None,12,748.2623572880002,None,123,A,1,2021_May_27_1055,GazeFlow,2020.1.2,59.90578700744572,
5,Block504.xls,A,4,5,2,2,11,congruent,Left,Left,Right,16,19,3,blue,2,6,/home/docky/apps/exp/images/16B.jpeg,/home/docky/apps/exp/images/19Bi.jpeg,0,4,4,4,0,4,4,4,749.2647639219995,None,749.2647639219995,None,1,3.9245219660006114,749.2647639219995,None,753.2231424580004,None,753.2231424580004,None,755.7261440559996,None,755.7261440559996,None,1.551353711000047,757.5293653459994,None,757.5293653459994,None,6,1,1.5858979719996569,759.0673342709997,None,759.0673342709997,None,759.0673342709997,None,760.669914389,None,1,0.8014181969992933,760.669914389,None,14,761.4879988899993,None,123,A,1,2021_May_27_1055,GazeFlow,2020.1.2,59.90578700744572,
5,Block504.xls,A,4,6,73,13,21,incongruent,Right,Left,Right,80,83,3,blue,2,6,/home/docky/apps/exp/images/80Bi.jpeg,/home/docky/apps/exp/images/83B.jpeg,0,4,4,4,0,5,5,5,762.4904223939993,None,762.4904223939993,None,1,3.4741136900011043,762.4904223939993,None,765.9980808340006,None,765.9980808340006,None,768.5013366359999,None,768.5013366359999,None,1.651352496999607,770.304004089001,None,770.304004089001,None,6,1,1.3851739129986527,771.9422739279998,None,771.9422739279998,None,771.9422739279998,None,773.3442765380005,None,1,0.8016424800007371,773.3442765380005,None,16,774.1626094759995,None,123,A,1,2021_May_27_1055,GazeFlow,2020.1.2,59.90578700744572,
5,Block504.xls,A,4,7,63,3,21,incongruent,Right,Left,Right,35,38,3,blue,2,6,/home/docky/apps/exp/images/35B.jpeg,/home/docky/apps/exp/images/38Bi.jpeg,0,4,4,4,0,6,6,6,775.1649209309999,None,775.1649209309999,None,1,3.5076010140001017,775.1649209309999,None,778.7060527989997,None,778.7060527989997,None,781.2108205599998,None,781.2108205599998,None,4.97535169799994,783.0073622790005,None,783.0073622790005,None,5,0,1.468595454000024,787.9905812569996,None,787.9905812569996,None,787.9905812569996,None,789.475675488,None,1,0.8016068100005214,789.475675488,None,14,790.2941634079998,None,123,A,1,2021_May_27_1055,GazeFlow,2020.1.2,59.90578700744572,
5,Block504.xls,A,4,8,86,26,21,incongruent,Right,Left,Right,72,77,5,yellow,2,6,/home/docky/apps/exp/images/72Yi.jpeg,/home/docky/apps/exp/images/77Y.jpeg,0,4,4,4,0,7,7,7,791.2962926090004,None,791.2962926090004,None,1,3.8410958210006356,791.2962926090004,None,795.1712542639998,None,795.1712542639998,None,797.6744870330003,None,797.6744870330003,None,1.4842057750011008,799.4781256189999,None,799.4781256189999,None,6,1,1.3192042589998891,800.9485606960006,None,800.9485606960006,None,800.9485606960006,None,802.284297057,None,1,0.734471117000794,802.284297057,None,16,803.0353749200003,None,123,A,1,2021_May_27_1055,GazeFlow,2020.1.2,59.90578700744572,
5,Block504.xls,A,,,,,,,,,,,,,,,,,,0,4,4,4,,,,,,,,,,,,,,,,,,,,,,,,,,,,,,,,,,,,,,,,,,,,123,A,1,2021_May_27_1055,GazeFlow,2020.1.2,59.90578700744572,
6,Block511.xls,A,11,1,15,15,11,congruent,Left,Left,Right,80,83,3,blue,2,6,/home/docky/apps/exp/images/80Bi.jpeg,/home/docky/apps/exp/images/83B.jpeg,0,5,5,5,0,0,0,0,826.0159880470001,None,826.0159880470001,None,1,4.965235781999581,826.0159880470001,None,831.0096372200005,None,831.0096372200005,None,833.5288288690008,None,833.5288288690008,None,2.3185247389992583,835.3325872210007,None,835.3325872210007,None,6,1,1.418803921998915,837.6364911269993,None,837.6364911269993,None,837.6364911269993,None,839.0719708870001,None,1,0.7517989300013141,839.0719708870001,None,18,839.8400691349998,None,123,A,1,2021_May_27_1055,GazeFlow,2020.1.2,59.90578700744572,
6,Block511.xls,A,11,2,105,45,22,incongruent,Left,Right,Left,39,38,1,blue,2,5,/home/docky/apps/exp/images/39Bi.jpeg,/home/docky/apps/exp/images/38B.jpeg,0,5,5,5,0,1,1,1,840.8425710030006,None,840.8425710030006,None,1,3.4235033719996864,840.8425710030006,None,844.299903911,None,844.299903911,None,846.8069631170001,None,846.8069631170001,None,3.4387234450005053,848.60805144,None,848.60805144,None,5,1,1.2517619709997234,852.0479132470009,None,852.0479132470009,None,852.0479132470009,None,853.316311691,None,1,0.8516474059997563,853.316311691,None,20,854.1852420899995,None,123,A,1,2021_May_27_1055,GazeFlow,2020.1.2,59.90578700744572,
6,Block511.xls,A,11,3,68,8,21,incongruent,Right,Left,Right,38,39,1,blue,2,6,/home/docky/apps/exp/images/38B.jpeg,/home/docky/apps/exp/images/39Bi.jpeg,0,5,5,5,0,2,2,2,855.1876285849994,None,855.1876285849994,None,1,3.0889662010013126,855.1876285849994,None,858.310479451,None,858.310479451,None,860.8129390400009,None,860.8129390400009,None,1.9521438150004542,862.6162345899993,None,862.6162345899993,None,6,1,1.3523987110002054,864.5551370980011,None,864.5551370980011,None,864.5551370980011,None,865.9242541019994,None,1,0.7019096940002783,865.9242541019994,None,22,866.6427900859999,None,123,A,1,2021_May_27_1055,GazeFlow,2020.1.2,59.90578700744572,
6,Block511.xls,A,11,4,80,20,21,incongruent,Right,Left,Right,62,65,3,yellow,2,6,/home/docky/apps/exp/images/38Bi.jpeg,/home/docky/apps/exp/images/35B.jpeg,0,5,5,5,0,3,3,3,867.6445815900006,None,867.6445815900006,None,1,3.206786328999442,867.6445815900006,None,870.8893047239999,None,870.8893047239999,None,873.3918172260001,None,873.3918172260001,None,1.4176171959989006,875.19123597,None,875.19123597,None,6,1,1.8532323640010873,876.5954323080005,None,876.5954323080005,None,876.5954323080005,None,878.4652546569996,None,1,0.6846092109990423,878.4652546569996,None,24,879.166386840001,None,123,A,1,2021_May_27_1055,GazeFlow,2020.1.2,59.90578700744572,
6,Block511.xls,A,11,5,5,5,11,congruent,Left,Left,Right,65,66,1,blue,2,6,/home/docky/apps/exp/images/35Yi.jpeg,/home/docky/apps/exp/images/66B.jpeg,0,5,5,5,0,4,4,4,880.1689147880006,None,880.1689147880006,None,1,5.444107466999412,880.1689147880006,None,885.6464965819996,None,885.6464965819996,None,888.1499923810006,None,888.1499923810006,None,4.975132887000655,889.947978057,None,889.947978057,None,5,0,1.2695899089994782,894.9301011030002,None,894.9301011030002,None,894.9301011030002,None,896.2162605760004,None,1,0.9525581549987692,896.2162605760004,None,22,897.1852810740002,None,123,A,1,2021_May_27_1055,GazeFlow,2020.1.2,59.90578700744572,
6,Block511.xls,A,11,6,18,18,11,congruent,Left,Left,Right,65,66,1,yellow,2,6,/home/docky/apps/exp/images/35B.jpeg,/home/docky/apps/exp/images/66Yi.jpeg,0,5,5,5,0,5,5,5,898.1872175120006,None,898.1872175120006,None,1,5.678449719998753,898.1872175120006,None,903.8989198250001,None,903.8989198250001,None,906.3940209770008,None,906.3940209770008,None,5.826691526999639,908.2069045400003,None,908.2069045400003,None,6,1,1.5184397920002084,914.0354204369996,None,914.0354204369996,None,914.0354204369996,None,915.570555888,None,1,0.8188325259998237,915.570555888,None,24,916.4058171420002,None,123,A,1,2021_May_27_1055,GazeFlow,2020.1.2,59.90578700744572,
6,Block511.xls,A,11,7,25,25,11,congruent,Left,Left,Right,69,75,6,yellow,2,6,/home/docky/apps/exp/images/69Yi.jpeg,/home/docky/apps/exp/images/76Y.jpeg,0,5,5,5,0,6,6,6,917.4078541100007,None,917.4078541100007,None,1,4.4759936749997,917.4078541100007,None,921.9172508640004,None,921.9172508640004,None,924.4220923140001,None,924.4220923140001,None,1.868553891999909,926.223794847001,None,926.223794847001,None,5,0,1.4526051800003188,928.0788222419997,None,928.0788222419997,None,928.0788222419997,None,929.5479268849995,None,1,0.751207945000715,929.5479268849995,None,22,930.3160630809998,None,123,A,1,2021_May_27_1055,GazeFlow,2020.1.2,59.90578700744572,
6,Block511.xls,A,11,8,3,3,11,congruent,Left,Left,Right,35,38,3,blue,2,6,/home/docky/apps/exp/images/35Bi.jpeg,/home/docky/apps/exp/images/38B.jpeg,0,5,5,5,0,7,7,7,931.3181952390005,None,931.3181952390005,None,1,11.27207760499914,931.3181952390005,None,942.6239064269994,None,942.6239064269994,None,945.1271610389995,None,945.1271610389995,None,2.1022697139997035,946.9252583130001,None,946.9252583130001,None,6,1,1.4019964569997683,949.0194976570001,None,949.0194976570001,None,949.0194976570001,None,950.4382154689993,None,1,0.7849794159992598,950.4382154689993,None,24,951.2400527089994,None,123,A,1,2021_May_27_1055,GazeFlow,2020.1.2,59.90578700744572,
6,Block511.xls,A,,,,,,,,,,,,,,,,,,0,5,5,5,,,,,,,,,,,,,,,,,,,,,,,,,,,,,,,,,,,,,,,,,,,,123,A,1,2021_May_27_1055,GazeFlow,2020.1.2,59.90578700744572,
7,Block508.xls,A,8,1,13,13,11,congruent,Left,Left,Right,76,79,3,blue,2,6,/home/docky/apps/exp/images/76Bi.jpeg,/home/docky/apps/exp/images/79B.jpeg,0,6,6,6,0,0,0,0,975.2722098030008,None,975.2722098030008,None,1,4.961622488999637,975.2722098030008,None,980.261167947001,None,980.261167947001,None,982.7855794360003,None,982.7855794360003,None,1.7675962789999176,984.5721766999995,None,984.5721766999995,None,6,1,1.2855478239998774,986.3251728970008,None,986.3251728970008,None,986.3251728970008,None,987.627032800001,None,1,0.8016908370009332,987.627032800001,None,26,988.4453334680002,None,123,A,1,2021_May_27_1055,GazeFlow,2020.1.2,59.90578700744572,
7,Block508.xls,A,8,2,21,21,11,congruent,Left,Left,Right,62,65,3,yellow,2,6,/home/docky/apps/exp/images/38B.jpeg,/home/docky/apps/exp/images/35Bi.jpeg,0,6,6,6,0,1,1,1,989.4477454280004,None,989.4477454280004,None,1,3.3567162409999582,989.4477454280004,None,992.8368363160007,None,992.8368363160007,None,995.3416426120002,None,995.3416426120002,None,2.8875949289995333,997.1444094029994,None,997.1444094029994,None,6,1,1.4353397590002714,1000.0355850960004,None,1000.0355850960004,None,1000.0355850960004,None,1001.4872494800002,None,1,0.6514336860000185,1001.4872494800002,None,28,1002.1554026680005,None,123,A,1,2021_May_27_1055,GazeFlow,2020.1.2,59.90578700744572,
7,Block508.xls,A,8,3,99,39,22,incongruent,Left,Right,Left,79,76,3,blue,2,5,/home/docky/apps/exp/images/79Bi.jpeg,/home/docky/apps/exp/images/76B.jpeg,0,6,6,6,0,2,2,2,1003.157662611,None,1003.157662611,None,1,3.1230382270005066,1003.157662611,None,1006.3143922279996,None,1006.3143922279996,None,1008.8175298650003,None,1008.8175298650003,None,3.0387829650007916,1010.6213582159999,None,1010.6213582159999,None,5,1,1.434324939000362,1013.6627703300001,None,1013.6627703300001,None,1013.6627703300001,None,1015.1138471150007,None,1,1.0360537450014817,1015.1138471150007,None,30,1016.1662692129994,None,123,A,1,2021_May_27_1055,GazeFlow,2020.1.2,59.90578700744572,
7,Block508.xls,A,8,4,37,37,12,congruent,Right,Right,Left,66,65,1,blue,2,5,/home/docky/apps/exp/images/66Bi.jpeg,/home/docky/apps/exp/images/35Y.jpeg,0,6,6,6,0,3,3,3,1017.1682651669998,None,1017.1682651669998,None,1,3.0063946999998734,1017.1682651669998,None,1020.2079385630004,None,1020.2079385630004,None,1022.7112337580002,None,1022.7112337580002,None,1.3006881029996293,1024.5165705149993,None,1024.5165705149993,None,5,1,1.5032531029992242,1025.8019621750009,None,1025.8019621750009,None,1025.8019621750009,None,1027.3212693820005,None,1,0.7678199189995212,1027.3212693820005,None,32,1028.1056624850007,None,123,A,1,2021_May_27_1055,GazeFlow,2020.1.2,59.90578700744572,
7,Block508.xls,A,8,5,82,22,21,incongruent,Right,Left,Right,38,39,1,yellow,2,6,/home/docky/apps/exp/images/38Y.jpeg,/home/docky/apps/exp/images/39Yi.jpeg,0,6,6,6,0,4,4,4,1029.1081272110005,None,1029.1081272110005,None,1,3.840786618000493,1029.1081272110005,None,1032.9827030020006,None,1032.9827030020006,None,1035.486296385001,None,1035.486296385001,None,5.075258986000335,1037.289344961,None,1037.289344961,None,5,0,1.2517410479995306,1042.3678214089996,None,1042.3678214089996,None,1042.3678214089996,None,1043.6356169160008,None,1,0.7184268919991155,1043.6356169160008,None,30,1044.3706160389993,None,123,A,1,2021_May_27_1055,GazeFlow,2020.1.2,59.90578700744572,
7,Block508.xls,A,8,6,104,44,22,incongruent,Left,Right,Left,39,38,1,blue,2,5,/home/docky/apps/exp/images/39B.jpeg,/home/docky/apps/exp/images/38Bi.jpeg,0,6,6,6,0,5,5,5,1045.3729981670003,None,1045.3729981670003,None,1,3.1238006420007878,1045.3729981670003,None,1048.5298997490008,None,1048.5298997490008,None,1051.0370849749997,None,1051.0370849749997,None,6.628034479999769,1052.836010215,None,1052.836010215,None,5,1,1.3183854199996858,1059.4675948549993,None,1059.4675948549993,None,1059.4675948549993,None,1060.802560385,None,1,0.7681841350004106,1060.802560385,None,32,1061.5874216970005,None,123,A,1,2021_May_27_1055,GazeFlow,2020.1.2,59.90578700744572,
7,Block508.xls,A,8,7,39,39,12,congruent,Right,Right,Left,79,73,6,blue,2,5,/home/docky/apps/exp/images/79B.jpeg,/home/docky/apps/exp/images/73Bi.jpeg,0,6,6,6,0,6,6,6,1062.5910246700005,None,1062.5910246700005,None,1,2.654191568999522,1062.5910246700005,None,1065.2791947210007,None,1065.2791947210007,None,1067.7819827879994,None,1067.7819827879994,None,1.2170386399993731,1069.5855066269996,None,1069.5855066269996,None,5,1,1.3192168240002502,1070.7890024360004,None,1070.7890024360004,None,1070.7890024360004,None,1072.124283180001,None,1,0.668513015998542,1072.124283180001,None,34,1072.809038323001,None,123,A,1,2021_May_27_1055,GazeFlow,2020.1.2,59.90578700744572,
7,Block508.xls,A,8,8,36,36,12,congruent,Right,Right,Left,66,65,1,blue,2,5,/home/docky/apps/exp/images/66B.jpeg,/home/docky/apps/exp/images/35Yi.jpeg,0,6,6,6,0,7,7,7,1073.8112524730004,None,1073.8112524730004,None,1,2.722744397999122,1073.8112524730004,None,1076.5674785680003,None,1076.5674785680003,None,1079.0722977599999,None,1079.0722977599999,None,3.80629465399943,1080.8683410630001,None,1080.8683410630001,None,5,1,1.2365541380004288,1084.6816562080003,None,1084.6816562080003,None,1084.6816562080003,None,1085.9347070109998,None,1,1.4033650849996775,1085.9347070109998,None,36,1087.354442291,None,123,A,1,2021_May_27_1055,GazeFlow,2020.1.2,59.90578700744572,
7,Block508.xls,A,,,,,,,,,,,,,,,,,,0,6,6,6,,,,,,,,,,,,,,,,,,,,,,,,,,,,,,,,,,,,,,,,,,,,123,A,1,2021_May_27_1055,GazeFlow,2020.1.2,59.90578700744572,
8,Block510.xls,A,10,1,102,42,22,incongruent,Left,Right,Left,83,80,3,blue,2,5,/home/docky/apps/exp/images/83B.jpeg,/home/docky/apps/exp/images/80Bi.jpeg,0,7,7,7,0,0,0,0,1109.3819057710007,None,1109.3819057710007,None,1,4.281456505999813,1109.3819057710007,None,1113.695862339,None,1113.695862339,None,1116.2112949950006,None,1116.2112949950006,None,1.6175837360005971,1118.0091112930004,None,1118.0091112930004,None,5,1,1.3356105780003418,1119.6171969589996,None,1119.6171969589996,None,1119.6171969589996,None,1120.9691500690005,None,1,0.70174267999937,1120.9691500690005,None,38,1121.687466372001,None,123,A,1,2021_May_27_1055,GazeFlow,2020.1.2,59.90578700744572,
8,Block510.xls,A,10,2,114,54,22,incongruent,Left,Right,Left,76,69,7,yellow,2,5,/home/docky/apps/exp/images/76Yi.jpeg,/home/docky/apps/exp/images/69Y.jpeg,0,7,7,7,0,1,1,1,1122.6895956749995,None,1122.6895956749995,None,1,2.823181157998988,1122.6895956749995,None,1125.5459503490001,None,1125.5459503490001,None,1128.0557089899994,None,1128.0557089899994,None,1.1001827630007028,1129.8471153720002,None,1129.8471153720002,None,5,1,1.3190450120000605,1130.9392559480002,None,1130.9392559480002,None,1130.9392559480002,None,1132.2750147080005,None,1,0.7010464970007888,1132.2750147080005,None,40,1132.992918082,None,123,A,1,2021_May_27_1055,GazeFlow,2020.1.2,59.90578700744572,
8,Block510.xls,A,10,3,72,12,21,incongruent,Right,Left,Right,76,79,3,blue,2,6,/home/docky/apps/exp/images/76Bi.jpeg,/home/docky/apps/exp/images/79B.jpeg,0,7,7,7,0,2,2,2,1133.9952353560002,None,1133.9952353560002,None,1,3.6905975680001575,1133.9952353560002,None,1137.7196383589999,None,1137.7196383589999,None,1140.2225068339994,None,1140.2225068339994,None,2.6037536669991823,1142.0206934430007,None,1142.0206934430007,None,6,1,1.269935632999477,1144.6312891060006,None,1144.6312891060006,None,1144.6312891060006,None,1145.9177101919995,None,1,0.6849050499986333,1145.9177101919995,None,42,1146.6192650070006,None,123,A,1,2021_May_27_1055,GazeFlow,2020.1.2,59.90578700744572,
8,Block510.xls,A,10,4,112,52,22,incongruent,Left,Right,Left,75,69,6,yellow,2,5,/home/docky/apps/exp/images/76Y.jpeg,/home/docky/apps/exp/images/69Yi.jpeg,0,7,7,7,0,3,3,3,1147.621613872001,None,1147.621613872001,None,1,3.4405257439993875,1147.621613872001,None,1151.0957481019996,None,1151.0957481019996,None,1153.5987455779996,None,1153.5987455779996,None,1.2005609219995677,1155.4013952639998,None,1155.4013952639998,None,5,1,1.269408285001191,1156.5892378610006,None,1156.5892378610006,None,1156.5892378610006,None,1157.87481055,None,1,0.6842975859999569,1157.87481055,None,44,1158.5756977950005,None,123,A,1,2021_May_27_1055,GazeFlow,2020.1.2,59.90578700744572,
8,Block510.xls,A,10,5,17,17,11,congruent,Left,Left,Right,33,35,2,yellow,2,6,/home/docky/apps/exp/images/33Y.jpeg,/home/docky/apps/exp/images/35Yi.jpeg,0,7,7,7,0,4,4,4,1159.577710009,None,1159.577710009,None,1,3.257417712999086,1159.577710009,None,1162.8682777310005,None,1162.8682777310005,None,1165.356181913001,None,1165.356181913001,None,0.9839573070003098,1167.1752623659995,None,1167.1752623659995,None,6,1,1.3355577530001028,1168.144802277,None,1168.144802277,None,1168.144802277,None,1169.497250585,None,1,0.5512610759997187,1169.497250585,None,46,1170.0653666920007,None,123,A,1,2021_May_27_1055,GazeFlow,2020.1.2,59.90578700744572,
8,Block510.xls,A,10,6,31,31,12,congruent,Right,Right,Left,19,16,3,blue,2,5,/home/docky/apps/exp/images/19Bi.jpeg,/home/docky/apps/exp/images/16B.jpeg,0,7,7,7,0,5,5,5,1171.0667958110007,None,1171.0667958110007,None,1,2.6890657969997847,1171.0667958110007,None,1173.7897252429993,None,1173.7897252429993,None,1176.2927028150007,None,1176.2927028150007,None,1.0504531280002993,1178.0959623510007,None,1178.0959623510007,None,5,1,1.3189908590011328,1179.133078582001,None,1179.133078582001,None,1179.133078582001,None,1180.4686984210002,None,1,0.6676817369989294,1180.4686984210002,None,48,1181.1528810239997,None,123,A,1,2021_May_27_1055,GazeFlow,2020.1.2,59.90578700744572,
8,Block510.xls,A,10,7,61,1,21,incongruent,Right,Left,Right,16,19,3,blue,2,6,/home/docky/apps/exp/images/16Bi.jpeg,/home/docky/apps/exp/images/19B.jpeg,0,7,7,7,0,6,6,6,1182.1550346429995,None,1182.1550346429995,None,1,3.7583102280004823,1182.1550346429995,None,1185.9466588569994,None,1185.9466588569994,None,1188.4513836770002,None,1188.4513836770002,None,1.150641476000601,1190.2537323390006,None,1190.2537323390006,None,6,1,1.1521393340008217,1191.3901199150005,None,1191.3901199150005,None,1191.3901199150005,None,1192.558790444,None,1,0.6007137920005334,1192.558790444,None,50,1193.1761950569999,None,123,A,1,2021_May_27_1055,GazeFlow,2020.1.2,59.90578700744572,
8,Block510.xls,A,10,8,94,34,22,incongruent,Left,Right,Left,38,35,3,blue,2,5,/home/docky/apps/exp/images/38Bi.jpeg,/home/docky/apps/exp/images/35B.jpeg,0,7,7,7,0,7,7,7,1194.1782570070009,None,1194.1782570070009,None,1,2.906335803998445,1194.1782570070009,None,1197.118446681001,None,1197.118446681001,None,1199.628674009,None,1199.628674009,None,1.1171573890005675,1201.4267681220008,None,1201.4267681220008,None,5,1,1.1685078289992816,1202.5284080519996,None,1202.5284080519996,None,1202.5284080519996,None,1203.7135653940004,None,1,0.6350482510006259,1203.7135653940004,None,52,1204.3646440150005,None,123,A,1,2021_May_27_1055,GazeFlow,2020.1.2,59.90578700744572,
8,Block510.xls,A,,,,,,,,,,,,,,,,,,0,7,7,7,,,,,,,,,,,,,,,,,,,,,,,,,,,,,,,,,,,,,,,,,,,,123,A,1,2021_May_27_1055,GazeFlow,2020.1.2,59.90578700744572,
9,Block507.xls,A,7,1,110,50,22,incongruent,Left,Right,Left,66,65,1,yellow,2,5,/home/docky/apps/exp/images/66Y.jpeg,/home/docky/apps/exp/images/35Bi.jpeg,0,8,8,8,0,0,0,0,1224.9218076319994,None,1224.9218076319994,None,1,4.7642809780008974,1224.9218076319994,None,1229.7122313519994,None,1229.7122313519994,None,1232.235142888001,None,1232.235142888001,None,1.2167201949996524,1234.0334405060003,None,1234.0334405060003,None,6,0,1.418805733001136,1235.2419558799993,None,1235.2419558799993,None,1235.2419558799993,None,1236.6775116009994,None,1,0.768294870000318,1236.6775116009994,None,50,1237.4622231859994,None,123,A,1,2021_May_27_1055,GazeFlow,2020.1.2,59.90578700744572,
9,Block507.xls,A,7,2,90,30,22,incongruent,Right,Left,Right,16,19,3,blue,2,6,/home/docky/apps/exp/images/16Bi.jpeg,/home/docky/apps/exp/images/19B.jpeg,0,8,8,8,0,1,1,1,1238.4645473380006,None,1238.4645473380006,None,1,5.845090906999758,1238.4645473380006,None,1244.3413199770002,None,1244.3413199770002,None,1246.848316896001,None,1246.848316896001,None,1.6849370039999485,1248.6487641910007,None,1248.6487641910007,None,6,1,1.1025743190002686,1250.3209963490008,None,1250.3209963490008,None,1250.3209963490008,None,1251.4398538429996,None,1,0.5843286409999564,1251.4398538429996,None,52,1252.0407694299993,None,123,A,1,2021_May_27_1055,GazeFlow,2020.1.2,59.90578700744572,
9,Block507.xls,A,7,3,16,16,11,congruent,Left,Left,Right,33,35,2,yellow,2,6,/home/docky/apps/exp/images/33Yi.jpeg,/home/docky/apps/exp/images/35Y.jpeg,0,8,8,8,0,2,2,2,1253.0430138089996,None,1253.0430138089996,None,1,3.623981577999075,1253.0430138089996,None,1256.700448091,None,1256.700448091,None,1259.2035718930001,None,1259.2035718930001,None,1.5510448019995238,1261.0013893140003,None,1261.0013893140003,None,6,1,1.1016115820002597,1262.544759206001,None,1262.544759206001,None,1262.544759206001,None,1263.6638465279993,None,1,0.7007897540006525,1263.6638465279993,None,54,1264.381329889,None,123,A,1,2021_May_27_1055,GazeFlow,2020.1.2,59.90578700744572,
9,Block507.xls,A,7,4,117,57,22,incongruent,Left,Right,Left,77,72,5,yellow,2,5,/home/docky/apps/exp/images/77Y.jpeg,/home/docky/apps/exp/images/72Yi.jpeg,0,8,8,8,0,3,3,3,1265.3834429760009,None,1265.3834429760009,None,1,6.212525873999766,1265.3834429760009,None,1271.629835275,None,1271.629835275,None,1274.134681517,None,1274.134681517,None,1.7349466439991375,1275.9302709839994,None,1275.9302709839994,None,5,1,1.1684065549998195,1277.6577022170004,None,1277.6577022170004,None,1277.6577022170004,None,1278.8427228420005,None,1,0.8185166699986439,1278.8427228420005,None,56,1279.677587600001,None,123,A,1,2021_May_27_1055,GazeFlow,2020.1.2,59.90578700744572,
9,Block507.xls,A,7,5,53,53,12,congruent,Right,Right,Left,75,69,6,yellow,2,5,/home/docky/apps/exp/images/76Yi.jpeg,/home/docky/apps/exp/images/69Y.jpeg,0,8,8,8,0,4,4,4,1280.680032442,None,1280.680032442,None,1,3.1062095209999825,1280.680032442,None,1283.8239676550002,None,1283.8239676550002,None,1286.322736692,None,1286.322736692,None,1.2678265659997123,1288.1262595520002,None,1288.1262595520002,None,5,1,1.369019585001297,1289.3804038220005,None,1289.3804038220005,None,1289.3804038220005,None,1290.7661419289998,None,1,0.801177743000153,1290.7661419289998,None,58,1291.5840382059996,None,123,A,1,2021_May_27_1055,GazeFlow,2020.1.2,59.90578700744572,
9,Block507.xls,A,7,6,96,36,22,incongruent,Left,Right,Left,66,65,1,blue,2,5,/home/docky/apps/exp/images/66Bi.jpeg,/home/docky/apps/exp/images/35Y.jpeg,0,8,8,8,0,5,5,5,1292.5860443380006,None,1292.5860443380006,None,1,2.63962847699986,1292.5860443380006,None,1295.2591697970001,None,1295.2591697970001,None,1297.7623501880007,None,1297.7623501880007,None,3.4554418820007413,1299.5672329650006,None,1299.5672329650006,None,5,1,1.3348864109993883,1303.0241682680007,None,1303.0241682680007,None,1303.0241682680007,None,1304.375571859,None,1,0.6847812390005856,1304.375571859,None,60,1305.0766233180002,None,123,A,1,2021_May_27_1055,GazeFlow,2020.1.2,59.90578700744572,
9,Block507.xls,A,7,7,58,58,12,congruent,Right,Right,Left,77,72,5,yellow,2,5,/home/docky/apps/exp/images/77Yi.jpeg,/home/docky/apps/exp/images/72Y.jpeg,0,8,8,8,0,6,6,6,1306.0793921309996,None,1306.0793921309996,None,1,2.922507493000012,1306.0793921309996,None,1309.0395897020007,None,1309.0395897020007,None,1311.5386840720003,None,1311.5386840720003,None,1.4342057060002844,1313.3424851620002,None,1313.3424851620002,None,5,1,1.136229749999984,1314.763088144,None,1314.763088144,None,1314.763088144,None,1315.914660024,None,1,0.8682487810001476,1315.914660024,None,62,1316.7995288029997,None,123,A,1,2021_May_27_1055,GazeFlow,2020.1.2,59.90578700744572,
9,Block507.xls,A,7,8,41,41,12,congruent,Right,Right,Left,79,76,3,blue,2,5,/home/docky/apps/exp/images/79Bi.jpeg,/home/docky/apps/exp/images/76B.jpeg,0,8,8,8,0,7,7,7,1317.801692559,None,1317.801692559,None,1,2.872916180000175,1317.801692559,None,1320.706782823001,None,1320.706782823001,None,1323.2131416209995,None,1323.2131416209995,None,2.904534491999584,1325.010883193001,None,1325.010883193001,None,5,1,1.4204059300009249,1327.9205550890001,None,1327.9205550890001,None,1327.9205550890001,None,1329.3573557180007,None,1,0.7184752989996923,1329.3573557180007,None,64,1330.091881462,None,123,A,1,2021_May_27_1055,GazeFlow,2020.1.2,59.90578700744572,
9,Block507.xls,A,,,,,,,,,,,,,,,,,,0,8,8,8,,,,,,,,,,,,,,,,,,,,,,,,,,,,,,,,,,,,,,,,,,,,123,A,1,2021_May_27_1055,GazeFlow,2020.1.2,59.90578700744572,
10,Block515.xls,A,15,1,107,47,22,incongruent,Left,Right,Left,35,33,2,yellow,2,5,/home/docky/apps/exp/images/35Yi.jpeg,/home/docky/apps/exp/images/33Y.jpeg,0,9,9,9,0,0,0,0,1353.1219254570005,None,1353.1219254570005,None,1,4.664816810998673,1353.1219254570005,None,1357.8121347689994,None,1357.8121347689994,None,1360.33390684,None,1360.33390684,None,1.2667818000008992,1362.1368322689996,None,1362.1368322689996,None,5,1,1.1355587630005175,1363.3908472719995,None,1363.3908472719995,None,1363.3908472719995,None,1364.5429545120005,None,1,0.7178375790008431,1364.5429545120005,None,66,1365.2771785530003,None,123,A,1,2021_May_27_1055,GazeFlow,2020.1.2,59.90578700744572,
10,Block515.xls,A,15,2,55,55,12,congruent,Right,Right,Left,76,69,7,yellow,2,5,/home/docky/apps/exp/images/76Yi.jpeg,/home/docky/apps/exp/images/69Y.jpeg,0,9,9,9,0,1,1,1,1366.2792689689995,None,1366.2792689689995,None,1,2.8061279350004042,1366.2792689689995,None,1369.1173605799995,None,1369.1173605799995,None,1371.6226176239998,None,1371.6226176239998,None,1.1669195699996635,1373.4258229400002,None,1373.4258229400002,None,5,1,1.2023979170007806,1374.5793244150009,None,1374.5793244150009,None,1374.5793244150009,None,1375.798062811,None,1,0.750997995999569,1375.798062811,None,68,1376.5659017569997,None,123,A,1,2021_May_27_1055,GazeFlow,2020.1.2,59.90578700744572,
10,Block515.xls,A,15,3,75,15,21,incongruent,Right,Left,Right,33,35,2,yellow,2,6,/home/docky/apps/exp/images/33Yi.jpeg,/home/docky/apps/exp/images/35Y.jpeg,0,9,9,9,0,2,2,2,1377.567999201001,None,1377.567999201001,None,1,2.989625395000985,1377.567999201001,None,1380.589748896,None,1380.589748896,None,1383.0944394870003,None,1383.0944394870003,None,1.250789805999375,1384.8922346729996,None,1384.8922346729996,None,5,0,1.4193186039992725,1386.1348471170004,None,1386.1348471170004,None,1386.1348471170004,None,1387.5709113560006,None,1,0.7510790710002766,1387.5709113560006,None,66,1388.3386458410005,None,123,A,1,2021_May_27_1055,GazeFlow,2020.1.2,59.90578700744572,
10,Block515.xls,A,15,4,62,2,21,incongruent,Right,Left,Right,35,38,3,blue,2,6,/home/docky/apps/exp/images/35Bi.jpeg,/home/docky/apps/exp/images/38B.jpeg,0,9,9,9,0,3,3,3,1389.340865084001,None,1389.340865084001,None,1,4.125096825999208,1389.340865084001,None,1393.5048724570006,None,1393.5048724570006,None,1396.0025601729994,None,1396.0025601729994,None,1.7349487709998357,1397.8053202030005,None,1397.8053202030005,None,6,1,1.2523618659997737,1399.5277078390009,None,1399.5277078390009,None,1399.5277078390009,None,1400.7959514329996,None,1,0.5014320680002129,1400.7959514329996,None,68,1401.3140659639994,None,123,A,1,2021_May_27_1055,GazeFlow,2020.1.2,59.90578700744572,
10,Block515.xls,A,15,5,100,40,22,incongruent,Left,Right,Left,79,76,3,blue,2,5,/home/docky/apps/exp/images/79Bi.jpeg,/home/docky/apps/exp/images/76B.jpeg,0,9,9,9,0,4,4,4,1402.3163375010008,None,1402.3163375010008,None,1,3.5409578290000354,1402.3163375010008,None,1405.8905541389995,None,1405.8905541389995,None,1408.3930223410007,None,1408.3930223410007,None,1.1508096279994788,1410.1969199939995,None,1410.1969199939995,None,5,1,1.2691711059997033,1411.3340010659995,None,1411.3340010659995,None,1411.3340010659995,None,1412.6196933249994,None,1,0.7007476810013031,1412.6196933249994,None,70,1413.3371145170004,None,123,A,1,2021_May_27_1055,GazeFlow,2020.1.2,59.90578700744572,
10,Block515.xls,A,15,6,108,48,22,incongruent,Left,Right,Left,39,38,1,yellow,2,5,/home/docky/apps/exp/images/39Y.jpeg,/home/docky/apps/exp/images/38Yi.jpeg,0,9,9,9,0,5,5,5,1414.339175344001,None,1414.339175344001,None,1,3.524682455999937,1414.339175344001,None,1417.897264231,None,1417.897264231,None,1420.4071248250002,None,1420.4071248250002,None,7.029005046000748,1422.2038025860002,None,1422.2038025860002,None,6,0,1.4183812320006837,1429.2357422139994,None,1429.2357422139994,None,1429.2357422139994,None,1430.670919319,None,1,0.6179880559993762,1430.670919319,None,68,1431.3060624709997,None,123,A,1,2021_May_27_1055,GazeFlow,2020.1.2,59.90578700744572,
10,Block515.xls,A,15,7,59,59,12,congruent,Right,Right,Left,80,79,1,yellow,2,5,/home/docky/apps/exp/images/80Y.jpeg,/home/docky/apps/exp/images/79Yi.jpeg,0,9,9,9,0,6,6,6,1432.3077000819994,None,1432.3077000819994,None,1,3.4409946790001413,1432.3077000819994,None,1435.7816772160004,None,1435.7816772160004,None,1438.2844911249995,None,1438.2844911249995,None,4.407458816998769,1440.0888842130007,None,1440.0888842130007,None,6,0,1.253176637001161,1444.497116355,None,1444.497116355,None,1444.497116355,None,1445.76679075,None,1,0.6013763470000413,1445.76679075,None,66,1446.3848849370006,None,123,A,1,2021_May_27_1055,GazeFlow,2020.1.2,59.90578700744572,
10,Block515.xls,A,15,8,8,8,11,congruent,Left,Left,Right,38,39,1,blue,2,6,/home/docky/apps/exp/images/38B.jpeg,/home/docky/apps/exp/images/39Bi.jpeg,0,9,9,9,0,7,7,7,1447.387181428001,None,1447.387181428001,None,1,4.091832803000216,1447.387181428001,None,1451.5110803019998,None,1451.5110803019998,None,1454.015293605,None,1454.015293605,None,3.822745453000607,1455.8207980900006,None,1455.8207980900006,None,6,1,1.3366908689986303,1459.6431709560002,None,1459.6431709560002,None,1459.6431709560002,None,1460.9965145730002,None,1,0.6013296669989359,1460.9965145730002,None,68,1461.6144411410005,None,123,A,1,2021_May_27_1055,GazeFlow,2020.1.2,59.90578700744572,
10,Block515.xls,A,,,,,,,,,,,,,,,,,,0,9,9,9,,,,,,,,,,,,,,,,,,,,,,,,,,,,,,,,,,,,,,,,,,,,123,A,1,2021_May_27_1055,GazeFlow,2020.1.2,59.90578700744572,
11,Block512.xls,A,12,1,30,30,11,congruent,Left,Left,Right,79,82,3,yellow,2,6,/home/docky/apps/exp/images/79Yi.jpeg,/home/docky/apps/exp/images/80Y.jpeg,0,10,10,10,0,0,0,0,1487.6341167089995,None,1487.6341167089995,None,1,4.998930022999048,1487.6341167089995,None,1492.6598095299996,None,1492.6598095299996,None,1495.1807436910003,None,1495.1807436910003,None,2.1350814679990435,1496.9775604330007,None,1496.9775604330007,None,5,0,1.2186402320003253,1499.1044956549995,None,1499.1044956549995,None,1499.1044956549995,None,1500.3398494400008,None,1,0.6683457349990931,1500.3398494400008,None,66,1501.0241540530005,None,123,A,1,2021_May_27_1055,GazeFlow,2020.1.2,59.90578700744572,
11,Block512.xls,A,12,2,115,55,22,incongruent,Left,Right,Left,76,69,7,yellow,2,5,/home/docky/apps/exp/images/76Yi.jpeg,/home/docky/apps/exp/images/69Y.jpeg,0,10,10,10,0,1,1,1,1502.026614204,None,1502.026614204,None,1,4.792970571999831,1502.026614204,None,1506.8534117620002,None,1506.8534117620002,None,1509.3561487290008,None,1509.3561487290008,None,1.501075762000255,1511.159444283001,None,1511.159444283001,None,5,1,1.1518618240006617,1512.6473666050006,None,1512.6473666050006,None,1512.6473666050006,None,1513.8161071230006,None,1,0.8515719849983725,1513.8161071230006,None,68,1514.6840200980005,None,123,A,1,2021_May_27_1055,GazeFlow,2020.1.2,59.90578700744572,
11,Block512.xls,A,12,3,66,6,21,incongruent,Right,Left,Right,38,39,1,blue,2,6,/home/docky/apps/exp/images/38B.jpeg,/home/docky/apps/exp/images/39Bi.jpeg,0,10,10,10,0,2,2,2,1515.6866928840009,None,1515.6866928840009,None,1,2.939813334000064,1515.6866928840009,None,1518.6596243620006,None,1518.6596243620006,None,1521.1623771970008,None,1521.1623771970008,None,5.809956518000035,1522.960381068,None,1522.960381068,None,6,1,1.21798762599974,1528.7793291409998,None,1528.7793291409998,None,1528.7793291409998,None,1530.0140053760006,None,1,0.6346462599994993,1530.0140053760006,None,70,1530.6651665980007,None,123,A,1,2021_May_27_1055,GazeFlow,2020.1.2,59.90578700744572,
11,Block512.xls,A,12,4,35,35,12,congruent,Right,Right,Left,66,65,1,blue,2,5,/home/docky/apps/exp/images/66B.jpeg,/home/docky/apps/exp/images/35Yi.jpeg,0,10,10,10,0,3,3,3,1531.6675924779993,None,1531.6675924779993,None,1,2.805893800999911,1531.6675924779993,None,1534.505601799001,None,1534.505601799001,None,1537.0103624120002,None,1537.0103624120002,None,5.876816900999984,1538.812587728,None,1538.812587728,None,5,1,1.2186360050000076,1544.6927118929998,None,1544.6927118929998,None,1544.6927118929998,None,1545.9281506570005,None,1,0.6512992799998756,1545.9281506570005,None,72,1546.5958806529998,None,123,A,1,2021_May_27_1055,GazeFlow,2020.1.2,59.90578700744572,
11,Block512.xls,A,12,5,40,40,12,congruent,Right,Right,Left,79,76,3,blue,2,5,/home/docky/apps/exp/images/79Bi.jpeg,/home/docky/apps/exp/images/76B.jpeg,0,10,10,10,0,4,4,4,1547.5985157079995,None,1547.5985157079995,None,1,2.5390271129999746,1547.5985157079995,None,1550.1708414599998,None,1550.1708414599998,None,1552.6729484419993,None,1552.6729484419993,None,1.0333534729998064,1554.4766458630002,None,1554.4766458630002,None,5,1,1.2694098279989703,1555.4971461450004,None,1555.4971461450004,None,1555.4971461450004,None,1556.7830627050007,None,1,0.6676969879990793,1556.7830627050007,None,74,1557.4671497620002,None,123,A,1,2021_May_27_1055,GazeFlow,2020.1.2,59.90578700744572,
11,Block512.xls,A,12,6,64,4,21,incongruent,Right,Left,Right,65,66,1,blue,2,6,/home/docky/apps/exp/images/35Yi.jpeg,/home/docky/apps/exp/images/66B.jpeg,0,10,10,10,0,5,5,5,1558.469660412,None,1558.469660412,None,1,2.989896688000954,1558.469660412,None,1561.497154527,None,1561.497154527,None,1563.995508852,None,1563.995508852,None,5.392507941998701,1565.7997149000003,None,1565.7997149000003,None,5,0,1.3537300039988622,1571.1928441239997,None,1571.1928441239997,None,1571.1928441239997,None,1572.5631770069995,None,1,0.5678947100004734,1572.5631770069995,None,72,1573.147449602,None,123,A,1,2021_May_27_1055,GazeFlow,2020.1.2,59.90578700744572,
11,Block512.xls,A,12,7,12,12,11,congruent,Left,Left,Right,76,79,3,blue,2,6,/home/docky/apps/exp/images/76B.jpeg,/home/docky/apps/exp/images/79Bi.jpeg,0,10,10,10,0,6,6,6,1574.1500652030008,None,1574.1500652030008,None,1,3.3257183879995864,1574.1500652030008,None,1577.5121338539993,None,1577.5121338539993,None,1580.009931120001,None,1580.009931120001,None,1.1169347310005833,1581.8140010930001,None,1581.8140010930001,None,6,1,1.1681643129995791,1582.9173832609995,None,1582.9173832609995,None,1582.9173832609995,None,1584.1025552499996,None,1,0.5014528280007653,1584.1025552499996,None,74,1584.620443961001,None,123,A,1,2021_May_27_1055,GazeFlow,2020.1.2,59.90578700744572,
11,Block512.xls,A,12,8,49,49,12,congruent,Right,Right,Left,39,38,1,yellow,2,5,/home/docky/apps/exp/images/39Y.jpeg,/home/docky/apps/exp/images/38Yi.jpeg,0,10,10,10,0,7,7,7,1585.6219008360003,None,1585.6219008360003,None,1,2.956509745999938,1585.6219008360003,None,1588.6121298540002,None,1588.6121298540002,None,1591.1152110349994,None,1591.1152110349994,None,4.607707631999801,1592.9135509930002,None,1592.9135509930002,None,5,1,1.1513423140004306,1597.5294050100001,None,1597.5294050100001,None,1597.5294050100001,None,1598.697498095,None,1,0.7178810710011021,1598.697498095,None,76,1599.432010034001,None,123,A,1,2021_May_27_1055,GazeFlow,2020.1.2,59.90578700744572,
11,Block512.xls,A,,,,,,,,,,,,,,,,,,0,10,10,10,,,,,,,,,,,,,,,,,,,,,,,,,,,,,,,,,,,,,,,,,,,,123,A,1,2021_May_27_1055,GazeFlow,2020.1.2,59.90578700744572,
12,Block503.xls,A,3,1,22,22,11,congruent,Left,Left,Right,62,65,3,yellow,2,6,/home/docky/apps/exp/images/38Bi.jpeg,/home/docky/apps/exp/images/35B.jpeg,0,11,11,11,0,0,0,0,1623.9479950500008,None,1623.9479950500008,None,1,3.7976699829996505,1623.9479950500008,None,1627.7788146019993,None,1627.7788146019993,None,1630.2923915280007,None,1630.2923915280007,None,6.1934928729988314,1632.0946864790003,None,1632.0946864790003,None,5,0,1.2344659849986783,1638.2922058479999,None,1638.2922058479999,None,1638.2922058479999,None,1639.5433099309994,None,1,0.6181018669994955,1639.5433099309994,None,74,1640.17819556,None,123,A,1,2021_May_27_1055,GazeFlow,2020.1.2,59.90578700744572,
12,Block503.xls,A,3,2,65,5,21,incongruent,Right,Left,Right,65,66,1,blue,2,6,/home/docky/apps/exp/images/35Y.jpeg,/home/docky/apps/exp/images/66Bi.jpeg,0,11,11,11,0,1,1,1,1641.1803018600003,None,1641.1803018600003,None,1,2.8390636679996533,1641.1803018600003,None,1644.053329968001,None,1644.053329968001,None,1646.5557298050007,None,1646.5557298050007,None,1.117089412000496,1648.3589409100005,None,1648.3589409100005,None,6,1,1.2358759260005172,1649.4632776430008,None,1649.4632776430008,None,1649.4632776430008,None,1650.7154940950004,None,1,0.5345824150008411,1650.7154940950004,None,76,1651.266122631001,None,123,A,1,2021_May_27_1055,GazeFlow,2020.1.2,59.90578700744572,
12,Block503.xls,A,3,3,76,16,21,incongruent,Right,Left,Right,33,35,2,yellow,2,6,/home/docky/apps/exp/images/33Y.jpeg,/home/docky/apps/exp/images/35Yi.jpeg,0,11,11,11,0,2,2,2,1652.2680052079995,None,1652.2680052079995,None,1,2.338646913000048,1652.2680052079995,None,1654.640229732,None,1654.640229732,None,1657.142902906,None,1657.142902906,None,4.85797945000013,1658.9410721700006,None,1658.9410721700006,None,6,1,1.251393458000166,1663.808399159001,None,1663.808399159001,None,1663.808399159001,None,1665.0764629450005,None,1,0.5680187569996633,1665.0764629450005,None,78,1665.6606321990002,None,123,A,1,2021_May_27_1055,GazeFlow,2020.1.2,59.90578700744572,
12,Block503.xls,A,3,4,29,29,11,congruent,Left,Left,Right,79,82,3,yellow,2,6,/home/docky/apps/exp/images/79Y.jpeg,/home/docky/apps/exp/images/80Yi.jpeg,0,11,11,11,0,3,3,3,1666.6631586059993,None,1666.6631586059993,None,1,2.254892965000181,1666.6631586059993,None,1668.9513450230006,None,1668.9513450230006,None,1671.4541320900007,None,1671.4541320900007,None,0.9005216650002694,1673.2576457579999,None,1673.2576457579999,None,6,1,1.4857770889993844,1674.1443796530002,None,1674.1443796530002,None,1674.1443796530002,None,1675.6467071059997,None,1,1.219263556999067,1675.6467071059997,None,80,1676.882580128,None,123,A,1,2021_May_27_1055,GazeFlow,2020.1.2,59.90578700744572,
12,Block503.xls,A,3,5,103,43,22,incongruent,Left,Right,Left,39,38,1,blue,2,5,/home/docky/apps/exp/images/39Bi.jpeg,/home/docky/apps/exp/images/38B.jpeg,0,11,11,11,0,4,4,4,1677.885066234001,None,1677.885066234001,None,1,1.486915366998801,1677.885066234001,None,1679.4053406069997,None,1679.4053406069997,None,1681.9150567060005,None,1681.9150567060005,None,5.258895684999516,1683.7136832779997,None,1683.7136832779997,None,5,1,1.2348654520010314,1688.974011573,None,1688.974011573,None,1688.974011573,None,1690.225196857,None,1,0.7848820509989309,1690.225196857,None,82,1691.026787668001,None,123,A,1,2021_May_27_1055,GazeFlow,2020.1.2,59.90578700744572,
12,Block503.xls,A,3,6,47,47,12,congruent,Right,Right,Left,35,33,2,yellow,2,5,/home/docky/apps/exp/images/35Yi.jpeg,/home/docky/apps/exp/images/33Y.jpeg,0,11,11,11,0,5,5,5,1692.0292400430008,None,1692.0292400430008,None,1,2.82272444299997,1692.0292400430008,None,1694.8852534950001,None,1694.8852534950001,None,1697.3882835650002,None,1697.3882835650002,None,1.0002040399995167,1699.1917867909997,None,1699.1917867909997,None,5,1,1.2358544810012972,1700.178375675001,None,1700.178375675001,None,1700.178375675001,None,1701.4307815619995,None,1,0.7175268920000235,1701.4307815619995,None,84,1702.1651853380008,None,123,A,1,2021_May_27_1055,GazeFlow,2020.1.2,59.90578700744572,
12,Block503.xls,A,3,7,20,20,11,congruent,Left,Left,Right,65,66,1,yellow,2,6,/home/docky/apps/exp/images/35Bi.jpeg,/home/docky/apps/exp/images/66Y.jpeg,0,11,11,11,0,6,6,6,1703.16721951,None,1703.16721951,None,1,2.689448278999407,1703.16721951,None,1705.8901515670004,None,1705.8901515670004,None,1708.3932569129993,None,1708.3932569129993,None,1.651362104999862,1710.1970787190003,None,1710.1970787190003,None,5,0,1.335373771000377,1711.834536761,None,1711.834536761,None,1711.834536761,None,1713.186536968,None,1,0.6511585740008741,1713.186536968,None,82,1713.8542319890003,None,123,A,1,2021_May_27_1055,GazeFlow,2020.1.2,59.90578700744572,
12,Block503.xls,A,3,8,27,27,11,congruent,Left,Left,Right,72,77,5,yellow,2,6,/home/docky/apps/exp/images/72Yi.jpeg,/home/docky/apps/exp/images/77Y.jpeg,0,11,11,11,0,7,7,7,1714.8568085839997,None,1714.8568085839997,None,1,3.1568250820000685,1714.8568085839997,None,1718.047204867,None,1718.047204867,None,1720.5495527170006,None,1720.5495527170006,None,1.2507227060013975,1722.3534448230002,None,1722.3534448230002,None,6,1,1.068275289999292,1723.5905919460001,None,1723.5905919460001,None,1723.5905919460001,None,1724.6755582669994,None,1,1.8208840460010833,1724.6755582669994,None,84,1726.5126867519994,None,123,A,1,2021_May_27_1055,GazeFlow,2020.1.2,59.90578700744572,
12,Block503.xls,A,,,,,,,,,,,,,,,,,,0,11,11,11,,,,,,,,,,,,,,,,,,,,,,,,,,,,,,,,,,,,,,,,,,,,123,A,1,2021_May_27_1055,GazeFlow,2020.1.2,59.90578700744572,
13,Block501.xls,A,1,1,54,54,12,congruent,Right,Right,Left,75,69,6,yellow,2,5,/home/docky/apps/exp/images/76Y.jpeg,/home/docky/apps/exp/images/69Yi.jpeg,0,12,12,12,0,0,0,0,1749.608620436,None,1749.608620436,None,1,5.5146987619991705,1749.608620436,None,1755.149337842,None,1755.149337842,None,1757.6736137499993,None,1757.6736137499993,None,1.266343675000826,1759.476047817001,None,1759.476047817001,None,5,1,1.1851650769986009,1760.729375119001,None,1760.729375119001,None,1760.729375119001,None,1761.9310888239997,None,1,0.852101730000868,1761.9310888239997,None,86,1762.799245268001,None,123,A,1,2021_May_27_1055,GazeFlow,2020.1.2,59.90578700744572,
13,Block501.xls,A,1,2,70,10,21,incongruent,Right,Left,Right,73,76,3,blue,2,6,/home/docky/apps/exp/images/73Bi.jpeg,/home/docky/apps/exp/images/76B.jpeg,0,12,12,12,0,1,1,1,1763.8019117790009,None,1763.8019117790009,None,1,3.306647110000995,1763.8019117790009,None,1767.1423267829996,None,1767.1423267829996,None,1769.6449426210002,None,1769.6449426210002,None,2.3699735709997185,1771.449072636,None,1771.449072636,None,6,1,1.4685717039992596,1773.8054452680008,None,1773.8054452680008,None,1773.8054452680008,None,1775.2905905829994,None,1,0.5846877099993435,1775.2905905829994,None,88,1775.8917480060009,None,123,A,1,2021_May_27_1055,GazeFlow,2020.1.2,59.90578700744572,
13,Block501.xls,A,1,3,84,24,21,incongruent,Right,Left,Right,69,76,7,yellow,2,6,/home/docky/apps/exp/images/69Yi.jpeg,/home/docky/apps/exp/images/76Y.jpeg,0,12,12,12,0,2,2,2,1776.8939718250003,None,1776.8939718250003,None,1,3.9076513210002304,1776.8939718250003,None,1780.8357428500003,None,1780.8357428500003,None,1783.3388435760007,None,1783.3388435760007,None,1.1505226629997196,1785.1441517940002,None,1785.1441517940002,None,6,1,1.269247799000368,1786.2790150639994,None,1786.2790150639994,None,1786.2790150639994,None,1787.5646736300005,None,1,0.5338259870004549,1787.5646736300005,None,90,1788.1153040480003,None,123,A,1,2021_May_27_1055,GazeFlow,2020.1.2,59.90578700744572,
13,Block501.xls,A,1,4,26,26,11,congruent,Left,Left,Right,69,75,6,yellow,2,6,/home/docky/apps/exp/images/69Y.jpeg,/home/docky/apps/exp/images/76Yi.jpeg,0,12,12,12,0,3,3,3,1789.117237968001,None,1789.117237968001,None,1,3.708396209000057,1789.117237968001,None,1792.858938374,None,1792.858938374,None,1795.3619700039999,None,1795.3619700039999,None,1.3173078340005304,1797.165200798001,None,1797.165200798001,None,6,1,1.285790691999864,1798.46954844,None,1798.46954844,None,1798.46954844,None,1799.7714336030003,None,1,0.7015760609992867,1799.7714336030003,None,92,1800.489677431,None,123,A,1,2021_May_27_1055,GazeFlow,2020.1.2,59.90578700744572,
13,Block501.xls,A,1,5,97,37,22,incongruent,Left,Right,Left,79,73,6,blue,2,5,/home/docky/apps/exp/images/79B.jpeg,/home/docky/apps/exp/images/73Bi.jpeg,0,12,12,12,0,4,4,4,1801.4913471889995,None,1801.4913471889995,None,1,3.490843330999269,1801.4913471889995,None,1805.0159400869998,None,1805.0159400869998,None,1807.5190467600005,None,1807.5190467600005,None,0.9668040180004027,1809.322081372,None,1809.322081372,None,5,1,1.3186858799999754,1810.2757507400001,None,1810.2757507400001,None,1810.2757507400001,None,1811.6110583579994,None,1,0.8183976700001949,1811.6110583579994,None,94,1812.4458550159998,None,123,A,1,2021_May_27_1055,GazeFlow,2020.1.2,59.90578700744572,
13,Block501.xls,A,1,6,98,38,22,incongruent,Left,Right,Left,79,73,6,blue,2,5,/home/docky/apps/exp/images/79B.jpeg,/home/docky/apps/exp/images/73Bi.jpeg,0,12,12,12,0,5,5,5,1813.4481328380007,None,1813.4481328380007,None,1,2.806287904999408,1813.4481328380007,None,1816.287796337001,None,1816.287796337001,None,1818.7905116309994,None,1818.7905116309994,None,1.1005307699997502,1820.596242566,None,1820.596242566,None,5,1,1.2183742790002725,1821.68110944,None,1821.68110944,None,1821.68110944,None,1822.9168871599995,None,1,0.7174110929991002,1822.9168871599995,None,96,1823.6511223950001,None,123,A,1,2021_May_27_1055,GazeFlow,2020.1.2,59.90578700744572,
13,Block501.xls,A,1,7,77,17,21,incongruent,Right,Left,Right,65,66,1,yellow,2,6,/home/docky/apps/exp/images/35B.jpeg,/home/docky/apps/exp/images/66Yi.jpeg,0,12,12,12,0,6,6,6,1824.6529319710007,None,1824.6529319710007,None,1,2.7564237070000672,1824.6529319710007,None,1827.442900606,None,1827.442900606,None,1829.9463283580008,None,1829.9463283580008,None,3.1882876330000727,1831.7490624599995,None,1831.7490624599995,None,6,1,1.1198580029995355,1834.9386678570008,None,1834.9386678570008,None,1834.9386678570008,None,1836.0753175450009,None,1,0.5174501559995406,1836.0753175450009,None,98,1836.6095980610007,None,123,A,1,2021_May_27_1055,GazeFlow,2020.1.2,59.90578700744572,
13,Block501.xls,A,1,8,50,50,12,congruent,Right,Right,Left,66,65,1,yellow,2,5,/home/docky/apps/exp/images/66Y.jpeg,/home/docky/apps/exp/images/35Bi.jpeg,0,12,12,12,0,7,7,7,1837.6118248059993,None,1837.6118248059993,None,1,2.454936998999983,1837.6118248059993,None,1840.0991949519994,None,1840.0991949519994,None,1842.6055074659998,None,1842.6055074659998,None,1.6849429409994627,1844.4087333730004,None,1844.4087333730004,None,6,0,1.235073714000464,1846.0784362939994,None,1846.0784362939994,None,1846.0784362939994,None,1847.3300581309995,None,1,0.5349754460003169,1847.3300581309995,None,96,1847.8812563089996,None,123,A,1,2021_May_27_1055,GazeFlow,2020.1.2,59.90578700744572,
13,Block501.xls,A,,,,,,,,,,,,,,,,,,0,12,12,12,,,,,,,,,,,,,,,,,,,,,,,,,,,,,,,,,,,,,,,,,,,,123,A,1,2021_May_27_1055,GazeFlow,2020.1.2,59.90578700744572,
14,Block513.xls,A,13,1,32,32,12,congruent,Right,Right,Left,19,16,3,blue,2,5,/home/docky/apps/exp/images/19B.jpeg,/home/docky/apps/exp/images/16Bi.jpeg,0,13,13,13,0,0,0,0,1868.3047624570008,None,1868.3047624570008,None,1,4.968658887000856,1868.3047624570008,None,1873.3062573349998,None,1873.3062573349998,None,1875.819743164,None,1875.819743164,None,1.0498116399994615,1877.6211247850006,None,1877.6211247850006,None,5,1,1.1847956210003758,1878.6584156139998,None,1878.6584156139998,None,1878.6584156139998,None,1879.8602352010003,None,1,0.6185907330000191,1879.8602352010003,None,98,1880.4949633630004,None,123,A,1,2021_May_27_1055,GazeFlow,2020.1.2,59.90578700744572,
14,Block513.xls,A,13,2,81,21,21,incongruent,Right,Left,Right,38,39,1,yellow,2,6,/home/docky/apps/exp/images/38Yi.jpeg,/home/docky/apps/exp/images/39Y.jpeg,0,13,13,13,0,1,1,1,1881.4967595929993,None,1881.4967595929993,None,1,2.6895007279999845,1881.4967595929993,None,1884.2196817839995,None,1884.2196817839995,None,1886.7230567629995,None,1886.7230567629995,None,4.440633670001262,1888.526412446001,None,1888.526412446001,None,6,1,1.1684028829986346,1892.9695622170002,None,1892.9695622170002,None,1892.9695622170002,None,1894.1546044980005,None,1,0.5174691739994159,1894.1546044980005,None,100,1894.6890202920004,None,123,A,1,2021_May_27_1055,GazeFlow,2020.1.2,59.90578700744572,
14,Block513.xls,A,13,3,92,32,22,incongruent,Left,Right,Left,19,16,3,blue,2,5,/home/docky/apps/exp/images/19B.jpeg,/home/docky/apps/exp/images/16Bi.jpeg,0,13,13,13,0,2,2,2,1895.6912611160005,None,1895.6912611160005,None,1,2.6389481059995887,1895.6912611160005,None,1898.3636791469999,None,1898.3636791469999,None,1900.8724070520002,None,1900.8724070520002,None,0.9333908009994047,1902.6694621740007,None,1902.6694621740007,None,5,1,1.2184997320000548,1903.590033769,None,1903.590033769,None,1903.590033769,None,1904.8251061560004,None,1,0.6351485340001091,1904.8251061560004,None,102,1905.476732428,None,123,A,1,2021_May_27_1055,GazeFlow,2020.1.2,59.90578700744572,
14,Block513.xls,A,13,4,6,6,11,congruent,Left,Left,Right,65,66,1,blue,2,6,/home/docky/apps/exp/images/35Y.jpeg,/home/docky/apps/exp/images/66Bi.jpeg,0,13,13,13,0,3,3,3,1906.4785080180009,None,1906.4785080180009,None,1,2.321781214001021,1906.4785080180009,None,1908.8341750580003,None,1908.8341750580003,None,1911.3387982200002,None,1911.3387982200002,None,3.321927708999283,1913.1398974269996,None,1913.1398974269996,None,6,1,1.2024378860005527,1916.4642149930005,None,1916.4642149930005,None,1916.4642149930005,None,1917.6835679640008,None,1,0.5846232490002876,1917.6835679640008,None,104,1918.284623079,None,123,A,1,2021_May_27_1055,GazeFlow,2020.1.2,59.90578700744572,
14,Block513.xls,A,13,5,67,7,21,incongruent,Right,Left,Right,38,39,1,blue,2,6,/home/docky/apps/exp/images/38Bi.jpeg,/home/docky/apps/exp/images/39B.jpeg,0,13,13,13,0,4,4,4,1919.2870262190008,None,1919.2870262190008,None,1,2.3714349290003156,1919.2870262190008,None,1921.6918329639993,None,1921.6918329639993,None,1924.1952576330004,None,1924.1952576330004,None,6.97903902500002,1925.993308223,None,1925.993308223,None,6,1,1.9208450179994543,1932.9793739380002,None,1932.9793739380002,None,1932.9793739380002,None,1934.9169864270007,None,1,1.0024099649999698,1934.9169864270007,None,106,1935.9358807560002,None,123,A,1,2021_May_27_1055,GazeFlow,2020.1.2,59.90578700744572,
14,Block513.xls,A,13,6,111,51,22,incongruent,Left,Right,Left,66,65,1,yellow,2,5,/home/docky/apps/exp/images/66Yi.jpeg,/home/docky/apps/exp/images/35B.jpeg,0,13,13,13,0,5,5,5,1936.9378219200007,None,1936.9378219200007,None,1,2.922604293000404,1936.9378219200007,None,1939.8982598460007,None,1939.8982598460007,None,1942.3972070250002,None,1942.3972070250002,None,0.8827537350007333,1944.2011295369994,None,1944.2011295369994,None,5,1,1.101227700999516,1945.070580046,None,1945.070580046,None,1945.070580046,None,1946.1886379690004,None,1,0.6190534529996512,1946.1886379690004,None,108,1946.823205965,None,123,A,1,2021_May_27_1055,GazeFlow,2020.1.2,59.90578700744572,
14,Block513.xls,A,13,7,88,28,21,incongruent,Right,Left,Right,79,82,3,yellow,2,6,/home/docky/apps/exp/images/79Y.jpeg,/home/docky/apps/exp/images/80Yi.jpeg,0,13,13,13,0,6,6,6,1947.8251465800004,None,1947.8251465800004,None,1,2.8229307670007984,1947.8251465800004,None,1950.6818611220006,None,1950.6818611220006,None,1953.1846206139999,None,1953.1846206139999,None,1.1503568480002286,1954.9826195429996,None,1954.9826195429996,None,5,0,1.152202296001633,1956.1254520809998,None,1956.1254520809998,None,1956.1254520809998,None,1957.2938370819993,None,1,0.651097875999767,1957.2938370819993,None,106,1957.9614537670004,None,123,A,1,2021_May_27_1055,GazeFlow,2020.1.2,59.90578700744572,
14,Block513.xls,A,13,8,14,14,11,congruent,Left,Left,Right,80,83,3,blue,2,6,/home/docky/apps/exp/images/80B.jpeg,/home/docky/apps/exp/images/83Bi.jpeg,0,13,13,13,0,7,7,7,1958.9638040949994,None,1958.9638040949994,None,1,3.94138054099858,1958.9638040949994,None,1962.938844960001,None,1962.938844960001,None,1965.4436511650001,None,1965.4436511650001,None,1.4179706779996195,1967.2455958230003,None,1967.2455958230003,None,6,1,1.2348131680009828,1968.6498579710005,None,1968.6498579710005,None,1968.6498579710005,None,1969.9016946409993,None,1,0.7345421949994488,1969.9016946409993,None,108,1970.6529963030007,None,123,A,1,2021_May_27_1055,GazeFlow,2020.1.2,59.90578700744572,
14,Block513.xls,A,,,,,,,,,,,,,,,,,,0,13,13,13,,,,,,,,,,,,,,,,,,,,,,,,,,,,,,,,,,,,,,,,,,,,123,A,1,2021_May_27_1055,GazeFlow,2020.1.2,59.90578700744572,
15,Block514.xls,A,14,1,113,53,22,incongruent,Left,Right,Left,75,69,6,yellow,2,5,/home/docky/apps/exp/images/76Y.jpeg,/home/docky/apps/exp/images/69Yi.jpeg,0,14,14,14,0,0,0,0,1993.148194622001,None,1993.148194622001,None,1,3.9616874140010623,1993.148194622001,None,1997.1398967410005,None,1997.1398967410005,None,1999.6602037459998,None,1999.6602037459998,None,1.3334307510012877,2001.4636495270006,None,2001.4636495270006,None,5,1,1.2028248719998373,2002.7825021480003,None,2002.7825021480003,None,2002.7825021480003,None,2004.0013178820009,None,1,0.7010631869998178,2004.0013178820009,None,110,2004.718938248001,None,123,A,1,2021_May_27_1055,GazeFlow,2020.1.2,59.90578700744572,
15,Block514.xls,A,14,2,45,45,12,congruent,Right,Right,Left,39,38,1,blue,2,5,/home/docky/apps/exp/images/39B.jpeg,/home/docky/apps/exp/images/38Bi.jpeg,0,14,14,14,0,1,1,1,2005.7208871559997,None,2005.7208871559997,None,1,2.255514079000932,2005.7208871559997,None,2008.009524299001,None,2008.009524299001,None,2010.512789329001,None,2010.512789329001,None,2.102465686000869,2012.3153880669997,None,2012.3153880669997,None,5,1,1.134726291998959,2014.405285494,None,2014.405285494,None,2014.405285494,None,2015.5565575929995,None,1,0.6181654519987205,2015.5565575929995,None,112,2016.1913214279994,None,123,A,1,2021_May_27_1055,GazeFlow,2020.1.2,59.90578700744572,
15,Block514.xls,A,14,3,52,52,12,congruent,Right,Right,Left,75,69,6,yellow,2,5,/home/docky/apps/exp/images/76Y.jpeg,/home/docky/apps/exp/images/69Yi.jpeg,0,14,14,14,0,2,2,2,2017.1936488570009,None,2017.1936488570009,None,1,2.188205600001311,2017.1936488570009,None,2019.4153758880002,None,2019.4153758880002,None,2021.9185130879996,None,2021.9185130879996,None,0.9500964500002738,2023.7217689099998,None,2023.7217689099998,None,5,1,1.8032393529992987,2024.6584981600008,None,2024.6584981600008,None,2024.6584981600008,None,2026.478269194,None,1,0.6510237130005407,2026.478269194,None,114,2027.1457891120008,None,123,A,1,2021_May_27_1055,GazeFlow,2020.1.2,59.90578700744572,
15,Block514.xls,A,14,4,106,46,22,incongruent,Left,Right,Left,35,33,2,yellow,2,5,/home/docky/apps/exp/images/35Yi.jpeg,/home/docky/apps/exp/images/33Y.jpeg,0,14,14,14,0,3,3,3,2028.1482456089998,None,2028.1482456089998,None,1,2.121478570999898,2028.1482456089998,None,2030.3030402429995,None,2030.3030402429995,None,2032.8106023590008,None,2032.8106023590008,None,1.2506766010010324,2034.6088892789994,None,2034.6088892789994,None,5,1,1.1187596950003353,2035.8465718080006,None,2035.8465718080006,None,2035.8465718080006,None,2036.981810452,None,1,0.6176860420000594,2036.981810452,None,116,2037.6160621039999,None,123,A,1,2021_May_27_1055,GazeFlow,2020.1.2,59.90578700744572,
15,Block514.xls,A,14,5,109,49,22,incongruent,Left,Right,Left,39,38,1,yellow,2,5,/home/docky/apps/exp/images/39Yi.jpeg,/home/docky/apps/exp/images/38Y.jpeg,0,14,14,14,0,4,4,4,2038.6184638220002,None,2038.6184638220002,None,1,2.3715347340003063,2038.6184638220002,None,2041.0238073719993,None,2041.0238073719993,None,2043.528511634,None,2043.528511634,None,1.1506524660017021,2045.3306547770007,None,2045.3306547770007,None,6,0,1.151945572000841,2046.4671660509994,None,2046.4671660509994,None,2046.4671660509994,None,2047.6362768729996,None,1,0.7174617419987044,2047.6362768729996,None,114,2048.370287584001,None,123,A,1,2021_May_27_1055,GazeFlow,2020.1.2,59.90578700744572,
15,Block514.xls,A,14,6,89,29,21,incongruent,Right,Left,Right,79,82,3,yellow,2,6,/home/docky/apps/exp/images/79Yi.jpeg,/home/docky/apps/exp/images/80Y.jpeg,0,14,14,14,0,5,5,5,2049.3724742270006,None,2049.3724742270006,None,1,3.4911030309995112,2049.3724742270006,None,2052.8969254010008,None,2052.8969254010008,None,2055.399962722,None,2055.399962722,None,1.5850288159999764,2057.202975421,None,2057.202975421,None,5,0,1.1190166729993507,2058.7743742130006,None,2058.7743742130006,None,2058.7743742130006,None,2059.909754024,None,1,0.617670857000121,2059.909754024,None,112,2060.5438349739998,None,123,A,1,2021_May_27_1055,GazeFlow,2020.1.2,59.90578700744572,
15,Block514.xls,A,14,7,91,31,22,incongruent,Left,Right,Left,19,16,3,blue,2,5,/home/docky/apps/exp/images/19Bi.jpeg,/home/docky/apps/exp/images/16B.jpeg,0,14,14,14,0,6,6,6,2061.5460479289995,None,2061.5460479289995,None,1,2.9562251410006866,2061.5460479289995,None,2064.5379182489996,None,2064.5379182489996,None,2067.0392388479995,None,2067.0392388479995,None,1.2674265979985648,2068.8424279579995,None,2068.8424279579995,None,5,1,1.2029624749993673,2070.0962637520006,None,2070.0962637520006,None,2070.0962637520006,None,2071.3152751359994,None,1,0.7175669520001975,2071.3152751359994,None,114,2072.0496157029993,None,123,A,1,2021_May_27_1055,GazeFlow,2020.1.2,59.90578700744572,
15,Block514.xls,A,14,8,79,19,21,incongruent,Right,Left,Right,62,65,3,yellow,2,6,/home/docky/apps/exp/images/38B.jpeg,/home/docky/apps/exp/images/35Bi.jpeg,0,14,14,14,0,7,7,7,2073.0516132230005,None,2073.0516132230005,None,1,2.7731080160010606,2073.0516132230005,None,2075.858085623,None,2075.858085623,None,2078.362791122001,None,2078.362791122001,None,1.1503385300002265,2080.164757277,None,2080.164757277,None,6,1,1.185548686000402,2081.3016937840002,None,2081.3016937840002,None,2081.3016937840002,None,2082.5035376230007,None,1,0.600655847998496,2082.5035376230007,None,116,2083.1210084529994,None,123,A,1,2021_May_27_1055,GazeFlow,2020.1.2,59.90578700744572,
15,Block514.xls,A,,,,,,,,,,,,,,,,,,0,14,14,14,,,,,,,,,,,,,,,,,,,,,,,,,,,,,,,,,,,,,,,,,,,,123,A,1,2021_May_27_1055,GazeFlow,2020.1.2,59.90578700744572,
