Nblock,condsFile,grouping,Block,TrialBlock,N,trialN,trialCond,gazeCon,gazedirR,corrBinR,corrBinP,valLBY,valRBY,diff,colorCube,feedbacktext,corrAns,imageL,imageR,SelBlocks.thisRepN,SelBlocks.thisTrialN,SelBlocks.thisN,SelBlocks.thisIndex,Trials.thisRepN,Trials.thisTrialN,Trials.thisN,Trials.thisIndex,waitCube.started,waitCube.stopped,text_3.started,text_3.stopped,StartKeyPress.keys,StartKeyPress.rt,StartKeyPress.started,StartKeyPress.stopped,StimL.started,StimL.stopped,StimR.started,StimR.stopped,imageStim2L.started,imageStim2L.stopped,imageStim2R.started,imageStim2R.stopped,RTkeyRelease,imageStim3L.started,imageStim3L.stopped,imageStim3R.started,imageStim3R.stopped,dropResp.keys,dropResp.corr,dropResp.rt,dropResp.started,dropResp.stopped,imageStim5L.started,imageStim5L.stopped,imageStim5R.started,imageStim5R.stopped,text_2.started,text_2.stopped,ReturnSpace.keys,ReturnSpace.rt,ReturnSpace.started,ReturnSpace.stopped,totalpoints,textFeedback.started,textFeedback.stopped,participant,group,session,date,expName,psychopyVersion,frameRate,
1,Block809.xls,B,9,1,93,93,None,congruent,Right,Right,Left,80,79,1,yellow,2,5,/home/docky/apps/exp/images/80Y.jpeg,/home/docky/apps/exp/images/79Yi.jpeg,0,0,0,0,0,0,0,0,26.854759517000275,None,26.854759517000275,None,1,31.24373540599845,26.854759517000275,None,58.135241482999845,None,58.135241482999845,None,60.64917889700155,None,60.64917889700155,None,1.9346960650000256,62.45312301600097,None,62.45312301600097,None,5,1,1.218393365999873,64.37032704900048,None,64.37032704900048,None,64.37032704900048,None,65.60518924100143,None,1,0.8355477669992979,65.60518924100143,None,2,66.45719838200057,None,124,B,1,2021_May_27_1324,GazeFlow,2020.1.2,59.82753325549918,
1,Block809.xls,B,9,2,15,15,None,congruent,Left,Left,Right,38,39,1,blue,2,6,/home/docky/apps/exp/images/38B.jpeg,/home/docky/apps/exp/images/39Bi.jpeg,0,0,0,0,0,1,1,1,67.45949190700048,None,67.45949190700048,None,1,4.258178919000784,67.45949190700048,None,71.75597681300133,None,71.75597681300133,None,74.25644233300045,None,74.25644233300045,None,1.1169670960007352,76.05996022600084,None,76.05996022600084,None,6,1,0.9682861940000294,77.16137021100076,None,77.16137021100076,None,77.16137021100076,None,78.14607617600086,None,1,0.5347566009986622,78.14607617600086,None,4,78.69692309800121,None,124,B,1,2021_May_27_1324,GazeFlow,2020.1.2,59.82753325549918,
1,Block809.xls,B,9,3,117,21,None,incongruent,Left,Right,Left,39,38,1,yellow,2,5,/home/docky/apps/exp/images/39Yi.jpeg,/home/docky/apps/exp/images/38Y.jpeg,0,0,0,0,0,2,2,2,79.69895658600035,None,79.69895658600035,None,1,3.3742782440003793,79.69895658600035,None,83.1063857019999,None,83.1063857019999,None,85.6145717770014,None,85.6145717770014,None,1.4842279610002151,87.41302165300112,None,87.41302165300112,None,5,1,1.1519174379991455,88.88351928700104,None,88.88351928700104,None,88.88351928700104,None,90.05177341499984,None,1,0.8518974970011186,90.05177341499984,None,6,90.92039335900154,None,124,B,1,2021_May_27_1324,GazeFlow,2020.1.2,59.82753325549918,
1,Block809.xls,B,9,4,94,94,None,congruent,Right,Right,Left,80,79,1,yellow,2,5,/home/docky/apps/exp/images/80Y.jpeg,/home/docky/apps/exp/images/79Yi.jpeg,0,0,0,0,0,3,3,3,91.92246238200096,None,91.92246238200096,None,1,3.290404254999885,91.92246238200096,None,95.2463793750012,None,95.2463793750012,None,97.75576204600111,None,97.75576204600111,None,1.0503492280004139,99.55465171700052,None,99.55465171700052,None,5,1,1.1180746310001268,100.58953400800056,None,100.58953400800056,None,100.58953400800056,None,101.72462422700119,None,1,0.5682804789994407,101.72462422700119,None,8,102.3094899050011,None,124,B,1,2021_May_27_1324,GazeFlow,2020.1.2,59.82753325549918,
1,Block809.xls,B,9,5,41,41,None,congruent,Right,Right,Left,79,76,3,blue,2,5,/home/docky/apps/exp/images/79Bi.jpeg,/home/docky/apps/exp/images/76B.jpeg,0,0,0,0,0,4,4,4,103.31082772400077,None,103.31082772400077,None,1,3.6250070730002335,103.31082772400077,None,106.96978142900116,None,106.96978142900116,None,109.47379379500126,None,109.47379379500126,None,1.2672776479994354,111.27596733600149,None,111.27596733600149,None,5,1,0.985621068999535,112.52933780100102,None,112.52933780100102,None,112.52933780100102,None,113.53078699600155,None,1,0.5676819029995386,113.53078699600155,None,10,114.11520068900063,None,124,B,1,2021_May_27_1324,GazeFlow,2020.1.2,59.82753325549918,
1,Block809.xls,B,9,6,36,36,None,congruent,Right,Right,Left,79,73,6,blue,2,5,/home/docky/apps/exp/images/79Bi.jpeg,/home/docky/apps/exp/images/73B.jpeg,0,0,0,0,0,5,5,5,115.11739112900068,None,115.11739112900068,None,1,2.8893132020002668,115.11739112900068,None,118.04052737600068,None,118.04052737600068,None,120.5432721720008,None,120.5432721720008,None,0.9835648000007495,122.34882130799997,None,122.34882130799997,None,5,1,1.0012986100009584,123.31696736600134,None,123.31696736600134,None,123.31696736600134,None,124.33476213500035,None,1,0.5019272629997431,124.33476213500035,None,12,124.85309780800162,None,124,B,1,2021_May_27_1324,GazeFlow,2020.1.2,59.82753325549918,
1,Block809.xls,B,9,7,78,78,None,congruent,Right,Right,Left,39,38,1,yellow,2,5,/home/docky/apps/exp/images/39Yi.jpeg,/home/docky/apps/exp/images/38Y.jpeg,0,0,0,0,0,6,6,6,125.85484566000014,None,125.85484566000014,None,1,2.8899590679993707,125.85484566000014,None,128.78091480400144,None,128.78091480400144,None,131.2812614000013,None,131.2812614000013,None,1.4011108859995147,133.08475974700013,None,133.08475974700013,None,5,1,1.052142399999866,134.47206834100143,None,134.47206834100143,None,134.47206834100143,None,135.5406049180001,None,1,0.7511453150000307,135.5406049180001,None,14,136.3084351840007,None,124,B,1,2021_May_27_1324,GazeFlow,2020.1.2,59.82753325549918,
1,Block809.xls,B,9,8,29,29,None,congruent,Right,Right,Left,38,35,3,blue,2,5,/home/docky/apps/exp/images/38B.jpeg,/home/docky/apps/exp/images/35Bi.jpeg,0,0,0,0,0,7,7,7,137.31045808800081,None,137.31045808800081,None,1,3.107024957000249,137.31045808800081,None,140.45086351900136,None,140.45086351900136,None,142.9539440540011,None,142.9539440540011,None,1.7685593770002015,144.75292630400145,None,144.75292630400145,None,5,1,1.235024411998893,146.51251344699995,None,146.51251344699995,None,146.51251344699995,None,147.7643887840004,None,1,0.6181499529993744,147.7643887840004,None,16,148.39876807900146,None,124,B,1,2021_May_27_1324,GazeFlow,2020.1.2,59.82753325549918,
1,Block809.xls,B,,,,,,,,,,,,,,,,,,0,0,0,0,,,,,,,,,,,,,,,,,,,,,,,,,,,,,,,,,,,,,,,,,,,,124,B,1,2021_May_27_1324,GazeFlow,2020.1.2,59.82753325549918,
2,Block805.xls,B,5,1,16,16,None,congruent,Left,Left,Right,73,76,3,blue,2,6,/home/docky/apps/exp/images/73B.jpeg,/home/docky/apps/exp/images/76Bi.jpeg,0,1,1,1,0,0,0,0,168.97493616300017,None,168.97493616300017,None,1,5.050059396000506,168.97493616300017,None,174.04823361499984,None,174.04823361499984,None,176.57209193700146,None,176.57209193700146,None,1.1339805600000545,178.37550561800163,None,178.37550561800163,None,5,0,1.0515650939996704,179.49396167300074,None,179.49396167300074,None,179.49396167300074,None,180.56209883100018,None,1,0.5348249499984377,180.56209883100018,None,14,181.11320324200096,None,124,B,1,2021_May_27_1324,GazeFlow,2020.1.2,59.82753325549918,
2,Block805.xls,B,5,2,2,2,None,congruent,Left,Left,Right,16,19,3,blue,2,6,/home/docky/apps/exp/images/16B.jpeg,/home/docky/apps/exp/images/19Bi.jpeg,0,1,1,1,0,1,1,1,182.1152242140015,None,182.1152242140015,None,1,4.192473863999112,182.1152242140015,None,186.34137124000154,None,186.34137124000154,None,188.84598511700096,None,188.84598511700096,None,1.100320538998858,190.65016089700111,None,190.65016089700111,None,6,1,0.9682257450003817,191.7349124430002,None,191.7349124430002,None,191.7349124430002,None,192.71930434600108,None,1,0.5520833330010646,192.71930434600108,None,16,193.28809253800137,None,124,B,1,2021_May_27_1324,GazeFlow,2020.1.2,59.82753325549918,
2,Block805.xls,B,5,3,64,64,None,congruent,Left,Left,Right,69,76,7,yellow,2,6,/home/docky/apps/exp/images/69Y.jpeg,/home/docky/apps/exp/images/76Yi.jpeg,0,1,1,1,0,2,2,2,194.2894016350001,None,194.2894016350001,None,1,3.3244133759999386,194.2894016350001,None,197.64537375500004,None,197.64537375500004,None,200.15193344,None,200.15193344,None,1.117179507000401,201.95349648500087,None,201.95349648500087,None,6,1,1.1684086920013215,203.05736774900106,None,203.05736774900106,None,203.05736774900106,None,204.24231917500038,None,1,0.5520092900005693,204.24231917500038,None,18,204.81079596200107,None,124,B,1,2021_May_27_1324,GazeFlow,2020.1.2,59.82753325549918,
2,Block805.xls,B,5,4,61,61,None,congruent,Left,Left,Right,38,39,1,yellow,2,6,/home/docky/apps/exp/images/38Yi.jpeg,/home/docky/apps/exp/images/39Y.jpeg,0,1,1,1,0,3,3,3,205.8121306460016,None,205.8121306460016,None,1,2.8570505480001884,205.8121306460016,None,208.70278013000097,None,208.70278013000097,None,211.20724713800155,None,211.20724713800155,None,1.3172599839999748,213.01127872100005,None,213.01127872100005,None,5,0,1.152462349000416,214.31300422300046,None,214.31300422300046,None,214.31300422300046,None,215.48206989200116,None,1,0.48390881500017713,215.48206989200116,None,16,215.9821603979999,None,124,B,1,2021_May_27_1324,GazeFlow,2020.1.2,59.82753325549918,
2,Block805.xls,B,5,5,23,23,None,congruent,Left,Left,Right,80,83,3,blue,2,6,/home/docky/apps/exp/images/80B.jpeg,/home/docky/apps/exp/images/83Bi.jpeg,0,1,1,1,0,4,4,4,216.98440598900015,None,216.98440598900015,None,1,3.9923974789999193,216.98440598900015,None,221.01019598499988,None,221.01019598499988,None,223.5139562910008,None,223.5139562910008,None,1.3510545820008701,225.31894037500024,None,225.31894037500024,None,6,1,1.0357339789989055,226.65435310800058,None,226.65435310800058,None,226.65435310800058,None,227.7063975130004,None,1,0.5672907740008668,227.7063975130004,None,18,228.29038075000062,None,124,B,1,2021_May_27_1324,GazeFlow,2020.1.2,59.82753325549918,
2,Block805.xls,B,5,6,87,87,None,congruent,Right,Right,Left,76,69,7,yellow,2,5,/home/docky/apps/exp/images/76Yi.jpeg,/home/docky/apps/exp/images/69Y.jpeg,0,1,1,1,0,5,5,5,229.2922824340003,None,229.2922824340003,None,1,3.8084753820003243,229.2922824340003,None,233.13467675900029,None,233.13467675900029,None,235.63778297800127,None,235.63778297800127,None,1.1171545020006306,237.44176312300078,None,237.44176312300078,None,5,1,0.9178664770006435,238.54488883900012,None,238.54488883900012,None,238.54488883900012,None,239.4794721110011,None,1,0.48528251000061573,239.4794721110011,None,20,239.98096188700038,None,124,B,1,2021_May_27_1324,GazeFlow,2020.1.2,59.82753325549918,
2,Block805.xls,B,5,7,4,4,None,congruent,Left,Left,Right,35,38,3,blue,2,6,/home/docky/apps/exp/images/35B.jpeg,/home/docky/apps/exp/images/38Bi.jpeg,0,1,1,1,0,6,6,6,240.98261294400072,None,240.98261294400072,None,1,3.3745740310005203,240.98261294400072,None,244.3904183980012,None,244.3904183980012,None,246.89518784200118,None,246.89518784200118,None,1.3175835050005844,248.69909298200037,None,248.69909298200037,None,6,1,0.9511869079997268,250.00120005400095,None,250.00120005400095,None,250.00120005400095,None,250.96927922400027,None,1,0.5019756380006584,250.96927922400027,None,22,251.48731235700143,None,124,B,1,2021_May_27_1324,GazeFlow,2020.1.2,59.82753325549918,
2,Block805.xls,B,5,8,114,18,None,incongruent,Right,Left,Right,79,82,3,yellow,2,6,/home/docky/apps/exp/images/79Y.jpeg,/home/docky/apps/exp/images/80Yi.jpeg,0,1,1,1,0,7,7,7,252.48892202300158,None,252.48892202300158,None,1,3.1395879619994957,252.48892202300158,None,255.6457899220004,None,255.6457899220004,None,258.16633157700016,None,258.16633157700016,None,1.1839763869993476,259.9691395970003,None,259.9691395970003,None,6,1,1.1187805459994706,261.1402671190008,None,261.1402671190008,None,261.1402671190008,None,262.27550772799987,None,1,0.601357341000039,262.27550772799987,None,24,262.8931270910016,None,124,B,1,2021_May_27_1324,GazeFlow,2020.1.2,59.82753325549918,
2,Block805.xls,B,,,,,,,,,,,,,,,,,,0,1,1,1,,,,,,,,,,,,,,,,,,,,,,,,,,,,,,,,,,,,,,,,,,,,124,B,1,2021_May_27_1324,GazeFlow,2020.1.2,59.82753325549918,
3,Block804.xls,B,4,1,95,95,None,congruent,Right,Right,Left,80,79,1,yellow,2,5,/home/docky/apps/exp/images/80Yi.jpeg,/home/docky/apps/exp/images/79Y.jpeg,0,2,2,2,0,0,0,0,282.9186536600009,None,282.9186536600009,None,1,3.9628181729985954,282.9186536600009,None,286.91264262799996,None,286.91264262799996,None,289.4309086869998,None,289.4309086869998,None,1.4172446239990677,291.2344866990006,None,291.2344866990006,None,6,0,1.8029181439997046,292.636867221001,None,292.636867221001,None,292.636867221001,None,294.4566928610002,None,1,0.584796377001112,294.4566928610002,None,22,295.0581454890016,None,124,B,1,2021_May_27_1324,GazeFlow,2020.1.2,59.82753325549918,
3,Block804.xls,B,4,2,107,11,None,incongruent,Left,Right,Left,83,80,3,blue,2,5,/home/docky/apps/exp/images/83Bi.jpeg,/home/docky/apps/exp/images/80B.jpeg,0,2,2,2,0,1,1,1,296.0602485030013,None,296.0602485030013,None,1,3.4743665250007325,296.0602485030013,None,299.5677490470007,None,299.5677490470007,None,302.072848273001,None,302.072848273001,None,1.1003637659996457,303.8705641120014,None,303.8705641120014,None,6,0,1.0014966399994591,304.9616296690001,None,304.9616296690001,None,304.9616296690001,None,305.9798953440004,None,1,0.4509337220006273,305.9798953440004,None,20,306.44726878000074,None,124,B,1,2021_May_27_1324,GazeFlow,2020.1.2,59.82753325549918,
3,Block804.xls,B,4,3,27,27,None,congruent,Right,Right,Left,19,16,3,blue,2,5,/home/docky/apps/exp/images/19Bi.jpeg,/home/docky/apps/exp/images/16B.jpeg,0,2,2,2,0,2,2,2,307.4496857410013,None,307.4496857410013,None,1,3.924961202999839,307.4496857410013,None,311.40869926900086,None,311.40869926900086,None,313.9136555420009,None,313.9136555420009,None,1.0001935589989444,315.71108582300076,None,315.71108582300076,None,5,1,0.9180280689997744,316.7020370730006,None,316.7020370730006,None,316.7020370730006,None,317.63651987699996,None,1,0.518425150999974,317.63651987699996,None,22,318.17139438900085,None,124,B,1,2021_May_27_1324,GazeFlow,2020.1.2,59.82753325549918,
3,Block804.xls,B,4,4,101,5,None,incongruent,Right,Left,Right,76,79,3,blue,2,6,/home/docky/apps/exp/images/76B.jpeg,/home/docky/apps/exp/images/79Bi.jpeg,0,2,2,2,0,3,3,3,319.1730963400005,None,319.1730963400005,None,1,3.374615986000208,319.1730963400005,None,322.5808358760005,None,322.5808358760005,None,325.08616539500144,None,325.08616539500144,None,1.1339607999998407,326.88280598800156,None,326.88280598800156,None,6,1,1.0681568869986222,328.00827934100016,None,328.00827934100016,None,328.00827934100016,None,329.09309225200013,None,1,0.468547212998601,329.09309225200013,None,24,329.5777959870011,None,124,B,1,2021_May_27_1324,GazeFlow,2020.1.2,59.82753325549918,
3,Block804.xls,B,4,5,47,47,None,congruent,Right,Right,Left,39,38,1,blue,2,5,/home/docky/apps/exp/images/39Bi.jpeg,/home/docky/apps/exp/images/38B.jpeg,0,2,2,2,0,4,4,4,330.5796155570006,None,330.5796155570006,None,1,3.040148030000637,330.5796155570006,None,333.65345542400064,None,333.65345542400064,None,336.1583260180014,None,336.1583260180014,None,1.1340853809997498,337.96010927800126,None,337.96010927800126,None,5,1,0.8844966029992065,339.08053859600113,None,339.08053859600113,None,339.08053859600113,None,339.98181566899984,None,1,0.45139545099846146,339.98181566899984,None,26,340.4497238750009,None,124,B,1,2021_May_27_1324,GazeFlow,2020.1.2,59.82753325549918,
3,Block804.xls,B,4,6,90,90,None,congruent,Right,Right,Left,77,72,5,yellow,2,5,/home/docky/apps/exp/images/77Yi.jpeg,/home/docky/apps/exp/images/72Y.jpeg,0,2,2,2,0,5,5,5,341.45157688700056,None,341.45157688700056,None,1,2.806155680000302,341.45157688700056,None,344.2916663619999,None,344.2916663619999,None,346.79647731500154,None,346.79647731500154,None,1.0667815300002985,348.5983238560002,None,348.5983238560002,None,5,1,0.8846174959999189,349.6519394170009,None,349.6519394170009,None,349.6519394170009,None,350.552888446,None,1,0.41847190000044066,350.552888446,None,28,350.98767038000005,None,124,B,1,2021_May_27_1324,GazeFlow,2020.1.2,59.82753325549918,
3,Block804.xls,B,4,7,12,12,None,congruent,Left,Left,Right,38,39,1,blue,2,6,/home/docky/apps/exp/images/38B.jpeg,/home/docky/apps/exp/images/39Bi.jpeg,0,2,2,2,0,6,6,6,351.98928913300006,None,351.98928913300006,None,1,2.806769869999698,351.98928913300006,None,354.82968912900105,None,354.82968912900105,None,357.33466671600036,None,357.33466671600036,None,1.2175680999989709,359.1366263540003,None,359.1366263540003,None,6,1,0.9180342210001982,360.34017854100057,None,360.34017854100057,None,360.34017854100057,None,361.2744739530008,None,1,0.4687515519999579,361.2744739530008,None,30,361.75933826300025,None,124,B,1,2021_May_27_1324,GazeFlow,2020.1.2,59.82753325549918,
3,Block804.xls,B,4,8,20,20,None,congruent,Left,Left,Right,76,79,3,blue,2,6,/home/docky/apps/exp/images/76Bi.jpeg,/home/docky/apps/exp/images/79B.jpeg,0,2,2,2,0,7,7,7,362.7611076480007,None,362.7611076480007,None,1,2.4557662940005685,362.7611076480007,None,365.2507637430008,None,365.2507637430008,None,367.7555837650016,None,367.7555837650016,None,1.083832488000553,369.55727444700096,None,369.55727444700096,None,6,1,0.8680043399999704,370.62767204300144,None,370.62767204300144,None,370.62767204300144,None,371.5120773910003,None,1,0.501754801000061,371.5120773910003,None,32,372.03027190300054,None,124,B,1,2021_May_27_1324,GazeFlow,2020.1.2,59.82753325549918,
3,Block804.xls,B,,,,,,,,,,,,,,,,,,0,2,2,2,,,,,,,,,,,,,,,,,,,,,,,,,,,,,,,,,,,,,,,,,,,,124,B,1,2021_May_27_1324,GazeFlow,2020.1.2,59.82753325549918,
4,Block814.xls,B,14,1,99,3,None,incongruent,Right,Left,Right,65,66,1,blue,2,6,/home/docky/apps/exp/images/35Yi.jpeg,/home/docky/apps/exp/images/66B.jpeg,0,3,3,3,0,0,0,0,399.3882201910001,None,399.3882201910001,None,1,3.959217321000324,399.3882201910001,None,403.37203871400015,None,403.37203871400015,None,405.8995592280007,None,405.8995592280007,None,1.350326051000593,407.68080469800043,None,407.68080469800043,None,6,1,1.436612731000423,409.0220371200012,None,409.0220371200012,None,409.0220371200012,None,410.47490389199993,None,1,0.4506829940000898,410.47490389199993,None,34,410.94224332700105,None,124,B,1,2021_May_27_1324,GazeFlow,2020.1.2,59.82753325549918,
4,Block814.xls,B,14,2,34,34,None,congruent,Right,Right,Left,66,65,1,blue,2,5,/home/docky/apps/exp/images/66B.jpeg,/home/docky/apps/exp/images/35Yi.jpeg,0,3,3,3,0,1,1,1,411.94435796000107,None,411.94435796000107,None,1,2.6730659550012206,411.94435796000107,None,414.65231786500044,None,414.65231786500044,None,417.1557481150012,None,417.1557481150012,None,1.0504184359997453,418.9579813370001,None,418.9579813370001,None,5,1,0.9679923330004385,419.9944310390001,None,419.9944310390001,None,419.9944310390001,None,420.97903263400076,None,1,0.43469587599975057,420.97903263400076,None,36,421.43012980599997,None,124,B,1,2021_May_27_1324,GazeFlow,2020.1.2,59.82753325549918,
4,Block814.xls,B,14,3,91,91,None,congruent,Right,Right,Left,77,72,5,yellow,2,5,/home/docky/apps/exp/images/77Yi.jpeg,/home/docky/apps/exp/images/72Y.jpeg,0,3,3,3,0,2,2,2,422.4319448660008,None,422.4319448660008,None,1,2.756387113000528,422.4319448660008,None,425.22222457000134,None,425.22222457000134,None,427.7255406530003,None,427.7255406530003,None,0.9330645450008888,429.52958352800124,None,429.52958352800124,None,5,1,0.9850074750011117,430.44877691200054,None,430.44877691200054,None,430.44877691200054,None,431.4502463100016,None,1,0.46773677300006966,431.4502463100016,None,38,431.9346646230006,None,124,B,1,2021_May_27_1324,GazeFlow,2020.1.2,59.82753325549918,
4,Block814.xls,B,14,4,68,68,None,congruent,Left,Left,Right,72,77,5,yellow,2,6,/home/docky/apps/exp/images/72Yi.jpeg,/home/docky/apps/exp/images/77Y.jpeg,0,3,3,3,0,3,3,3,432.9368434950011,None,432.9368434950011,None,1,2.5229205030009325,432.9368434950011,None,435.49117994900007,None,435.49117994900007,None,437.99814707100086,None,437.99814707100086,None,1.016972020999674,439.7942623730014,None,439.7942623730014,None,6,1,0.9514575410012185,440.80309392100025,None,440.80309392100025,None,440.80309392100025,None,441.7712798730008,None,1,0.5016255459995591,441.7712798730008,None,40,442.2894050140003,None,124,B,1,2021_May_27_1324,GazeFlow,2020.1.2,59.82753325549918,
4,Block814.xls,B,14,5,66,66,None,congruent,Left,Left,Right,69,76,7,yellow,2,6,/home/docky/apps/exp/images/69Yi.jpeg,/home/docky/apps/exp/images/76Y.jpeg,0,3,3,3,0,4,4,4,443.2910345320015,None,443.2910345320015,None,1,2.4390378129992314,443.2910345320015,None,445.76390475600056,None,445.76390475600056,None,448.26707580900074,None,448.26707580900074,None,1.1836760599999252,450.0706649920012,None,450.0706649920012,None,6,1,0.9180100519988628,451.24110047400063,None,451.24110047400063,None,451.24110047400063,None,452.1759435080003,None,1,0.4513719900005526,452.1759435080003,None,42,452.6439448680012,None,124,B,1,2021_May_27_1324,GazeFlow,2020.1.2,59.82753325549918,
4,Block814.xls,B,14,6,115,19,None,incongruent,Left,Right,Left,80,79,1,yellow,2,5,/home/docky/apps/exp/images/80Yi.jpeg,/home/docky/apps/exp/images/79Y.jpeg,0,3,3,3,0,5,5,5,453.6455619600001,None,453.6455619600001,None,1,2.472238454000035,453.6455619600001,None,456.1517282200002,None,456.1517282200002,None,458.65691309200156,None,458.65691309200156,None,1.0670876719996158,460.4604809090015,None,460.4604809090015,None,5,1,1.0850103869997838,461.5119453030002,None,461.5119453030002,None,461.5119453030002,None,462.613684467,None,1,0.4185542479990545,462.613684467,None,44,463.04838560200005,None,124,B,1,2021_May_27_1324,GazeFlow,2020.1.2,59.82753325549918,
4,Block814.xls,B,14,7,9,9,None,congruent,Left,Left,Right,65,66,1,blue,2,6,/home/docky/apps/exp/images/35Yi.jpeg,/home/docky/apps/exp/images/66B.jpeg,0,3,3,3,0,6,6,6,464.0497921130009,None,464.0497921130009,None,1,2.4729565889992955,464.0497921130009,None,466.5561837000005,None,466.5561837000005,None,469.06094958500034,None,469.06094958500034,None,1.601793304000239,470.8580307560005,None,470.8580307560005,None,5,0,1.1689826980000362,472.45098943300036,None,472.45098943300036,None,472.45098943300036,None,473.63643343400145,None,1,0.4338673149995884,473.63643343400145,None,42,474.0867743540002,None,124,B,1,2021_May_27_1324,GazeFlow,2020.1.2,59.82753325549918,
4,Block814.xls,B,14,8,14,14,None,congruent,Left,Left,Right,38,39,1,blue,2,6,/home/docky/apps/exp/images/38Bi.jpeg,/home/docky/apps/exp/images/39B.jpeg,0,3,3,3,0,7,7,7,475.08908926300137,None,475.08908926300137,None,1,2.7561075009998603,475.08908926300137,None,477.8791592480011,None,477.8791592480011,None,480.3826980520007,None,480.3826980520007,None,1.2506068919992686,482.1865996430006,None,482.1865996430006,None,6,1,1.0354140759991424,483.4228774250005,None,483.4228774250005,None,483.4228774250005,None,484.47473249799987,None,1,0.4013050840003416,484.47473249799987,None,44,484.8926785040003,None,124,B,1,2021_May_27_1324,GazeFlow,2020.1.2,59.82753325549918,
4,Block814.xls,B,,,,,,,,,,,,,,,,,,0,3,3,3,,,,,,,,,,,,,,,,,,,,,,,,,,,,,,,,,,,,,,,,,,,,124,B,1,2021_May_27_1324,GazeFlow,2020.1.2,59.82753325549918,
5,Block812.xls,B,12,1,18,18,None,congruent,Left,Left,Right,73,76,3,blue,2,6,/home/docky/apps/exp/images/73B.jpeg,/home/docky/apps/exp/images/76Bi.jpeg,0,4,4,4,0,0,0,0,507.70424983400153,None,507.70424983400153,None,1,4.610741419999613,507.70424983400153,None,512.340214889,None,512.340214889,None,514.8620763470008,None,514.8620763470008,None,1.0164606320013263,516.6665269430014,None,516.6665269430014,None,5,0,1.0678024379994895,517.6679034850004,None,517.6679034850004,None,517.6679034850004,None,518.7523087040008,None,1,0.4183891909997328,518.7523087040008,None,42,519.1865952980006,None,124,B,1,2021_May_27_1324,GazeFlow,2020.1.2,59.82753325549918,
5,Block812.xls,B,12,2,3,3,None,congruent,Left,Left,Right,16,19,3,blue,2,6,/home/docky/apps/exp/images/16Bi.jpeg,/home/docky/apps/exp/images/19B.jpeg,0,4,4,4,0,1,1,1,520.1882114380005,None,520.1882114380005,None,1,2.738872744001128,520.1882114380005,None,522.9603363229999,None,522.9603363229999,None,525.4638182440012,None,525.4638182440012,None,0.9668228080008703,527.2663292540001,None,527.2663292540001,None,6,1,0.9347459559994604,528.2187312510014,None,528.2187312510014,None,528.2187312510014,None,529.1697851850004,None,1,0.4339677239986486,529.1697851850004,None,44,529.620335353,None,124,B,1,2021_May_27_1324,GazeFlow,2020.1.2,59.82753325549918,
5,Block812.xls,B,12,3,56,56,None,congruent,Left,Left,Right,62,65,3,yellow,2,6,/home/docky/apps/exp/images/38Bi.jpeg,/home/docky/apps/exp/images/35B.jpeg,0,4,4,4,0,2,2,2,530.6222168880013,None,530.6222168880013,None,1,2.7552443659988057,530.6222168880013,None,533.4115327030013,None,533.4115327030013,None,535.9139761610004,None,535.9139761610004,None,0.9830862050002906,537.7115795380014,None,537.7115795380014,None,6,1,0.9003909610000846,538.686976043,None,538.686976043,None,538.686976043,None,539.6043101380001,None,1,0.417610053998942,539.6043101380001,None,46,540.0381241800005,None,124,B,1,2021_May_27_1324,GazeFlow,2020.1.2,59.82753325549918,
5,Block812.xls,B,12,4,11,11,None,congruent,Left,Left,Right,38,39,1,blue,2,6,/home/docky/apps/exp/images/38B.jpeg,/home/docky/apps/exp/images/39Bi.jpeg,0,4,4,4,0,3,3,3,541.0398198980001,None,541.0398198980001,None,1,2.421908923999581,541.0398198980001,None,543.4951538350015,None,543.4951538350015,None,545.999382199001,None,545.999382199001,None,0.916447995999988,547.7956602940012,None,547.7956602940012,None,6,1,0.9850717979988985,548.7035326450005,None,548.7035326450005,None,548.7035326450005,None,549.7045886100004,None,1,0.4511255510005867,549.7045886100004,None,48,550.1725352970006,None,124,B,1,2021_May_27_1324,GazeFlow,2020.1.2,59.82753325549918,
5,Block812.xls,B,12,5,116,20,None,incongruent,Left,Right,Left,35,33,2,yellow,2,5,/home/docky/apps/exp/images/35Yi.jpeg,/home/docky/apps/exp/images/33Y.jpeg,0,4,4,4,0,4,4,4,551.174055939,None,551.174055939,None,1,2.2216939059999277,551.174055939,None,553.4288767369999,None,553.4288767369999,None,555.933023294001,None,555.933023294001,None,1.0331169959990802,557.7292367410009,None,557.7292367410009,None,5,1,1.1182502860010572,558.7543799530013,None,558.7543799530013,None,558.7543799530013,None,559.8891730150008,None,1,0.4182864900012646,559.8891730150008,None,50,560.3236641450003,None,124,B,1,2021_May_27_1324,GazeFlow,2020.1.2,59.82753325549918,
5,Block812.xls,B,12,6,40,40,None,congruent,Right,Right,Left,79,76,3,blue,2,5,/home/docky/apps/exp/images/79Bi.jpeg,/home/docky/apps/exp/images/76B.jpeg,0,4,4,4,0,5,5,5,561.324862245001,None,561.324862245001,None,1,2.7890459210011613,561.324862245001,None,564.1474888820012,None,564.1474888820012,None,566.6521567810014,None,566.6521567810014,None,0.9333248669991008,568.4539859280012,None,568.4539859280012,None,5,1,0.9681223009993118,569.373085399,None,569.373085399,None,569.373085399,None,570.3575356190013,None,1,0.43479011799900036,570.3575356190013,None,52,570.8087357830009,None,124,B,1,2021_May_27_1324,GazeFlow,2020.1.2,59.82753325549918,
5,Block812.xls,B,12,7,76,76,None,congruent,Right,Right,Left,39,38,1,yellow,2,5,/home/docky/apps/exp/images/39Yi.jpeg,/home/docky/apps/exp/images/38Y.jpeg,0,4,4,4,0,6,6,6,571.810047803001,None,571.810047803001,None,1,2.705521334999503,571.810047803001,None,574.5493168360008,None,574.5493168360008,None,577.0521936599998,None,577.0521936599998,None,0.9828022249985224,578.8505707590011,None,578.8505707590011,None,5,1,0.8844998179993127,579.8249557210002,None,579.8249557210002,None,579.8249557210002,None,580.7260121650015,None,1,0.4347823630014318,580.7260121650015,None,54,581.1769847630003,None,124,B,1,2021_May_27_1324,GazeFlow,2020.1.2,59.82753325549918,
5,Block812.xls,B,12,8,77,77,None,congruent,Right,Right,Left,39,38,1,yellow,2,5,/home/docky/apps/exp/images/39Y.jpeg,/home/docky/apps/exp/images/38Yi.jpeg,0,4,4,4,0,7,7,7,582.1784155450005,None,582.1784155450005,None,1,2.8063696259996505,582.1784155450005,None,585.0180831000016,None,585.0180831000016,None,587.520495584,None,587.520495584,None,1.0668545339995035,589.3238628360014,None,589.3238628360014,None,6,0,6.761982693999016,590.377261529,None,590.377261529,None,590.377261529,None,597.155881173001,None,1,0.751985496000998,597.155881173001,None,52,597.9239194080001,None,124,B,1,2021_May_27_1324,GazeFlow,2020.1.2,59.82753325549918,
5,Block812.xls,B,,,,,,,,,,,,,,,,,,0,4,4,4,,,,,,,,,,,,,,,,,,,,,,,,,,,,,,,,,,,,,,,,,,,,124,B,1,2021_May_27_1324,GazeFlow,2020.1.2,59.82753325549918,
6,Block803.xls,B,3,1,84,84,None,congruent,Right,Right,Left,75,69,6,yellow,2,5,/home/docky/apps/exp/images/76Yi.jpeg,/home/docky/apps/exp/images/69Y.jpeg,0,5,5,5,0,0,0,0,619.0639569430004,None,619.0639569430004,None,1,3.76047975199981,619.0639569430004,None,622.851622993001,None,622.851622993001,None,625.3749023850014,None,625.3749023850014,None,0.9994000509996113,627.1784426860013,None,627.1784426860013,None,5,1,0.9179403250000178,628.1628455050013,None,628.1628455050013,None,628.1628455050013,None,629.0974086240003,None,1,0.4181014669993601,629.0974086240003,None,54,629.531748587,None,124,B,1,2021_May_27_1324,GazeFlow,2020.1.2,59.82753325549918,
6,Block803.xls,B,3,2,82,82,None,congruent,Right,Right,Left,66,65,1,yellow,2,5,/home/docky/apps/exp/images/66Y.jpeg,/home/docky/apps/exp/images/35Bi.jpeg,0,5,5,5,0,1,1,1,630.5332506220002,None,630.5332506220002,None,1,2.705787020000571,630.5332506220002,None,633.2728025830002,None,633.2728025830002,None,635.7755972949999,None,635.7755972949999,None,1.033307973999399,637.5788965240008,None,637.5788965240008,None,5,1,0.9179635689997667,638.598861552,None,638.598861552,None,638.598861552,None,639.5333077160012,None,1,0.4014029030004167,639.5333077160012,None,56,639.9509125010009,None,124,B,1,2021_May_27_1324,GazeFlow,2020.1.2,59.82753325549918,
6,Block803.xls,B,3,3,80,80,None,congruent,Right,Right,Left,66,65,1,yellow,2,5,/home/docky/apps/exp/images/66Yi.jpeg,/home/docky/apps/exp/images/35B.jpeg,0,5,5,5,0,2,2,2,640.9525212590015,None,640.9525212590015,None,1,2.2388227789997472,640.9525212590015,None,643.2249589500007,None,643.2249589500007,None,645.7275421260001,None,645.7275421260001,None,1.050140471999839,647.5324035230005,None,647.5324035230005,None,6,0,1.1183840960002271,648.5672164309999,None,648.5672164309999,None,648.5672164309999,None,649.7022834449999,None,1,0.5683592530003807,649.7022834449999,None,54,650.286861554001,None,124,B,1,2021_May_27_1324,GazeFlow,2020.1.2,59.82753325549918,
6,Block803.xls,B,3,4,79,79,None,congruent,Right,Right,Left,66,65,1,yellow,2,5,/home/docky/apps/exp/images/66Y.jpeg,/home/docky/apps/exp/images/35Bi.jpeg,0,5,5,5,0,3,3,3,651.288702961001,None,651.288702961001,None,1,2.405050941999434,651.288702961001,None,653.7272591199999,None,653.7272591199999,None,656.235405636,None,656.235405636,None,0.9499048990001029,658.0339008660012,None,658.0339008660012,None,5,1,0.9009794619996683,658.970234163,None,658.970234163,None,658.970234163,None,659.8880093450007,None,1,0.6522549340006663,659.8880093450007,None,56,660.5563311410006,None,124,B,1,2021_May_27_1324,GazeFlow,2020.1.2,59.82753325549918,
6,Block803.xls,B,3,5,92,92,None,congruent,Right,Right,Left,77,72,5,yellow,2,5,/home/docky/apps/exp/images/77Y.jpeg,/home/docky/apps/exp/images/72Yi.jpeg,0,5,5,5,0,4,4,4,661.5577488850013,None,661.5577488850013,None,1,2.8229882279993035,661.5577488850013,None,664.4144789560014,None,664.4144789560014,None,666.9164685140004,None,666.9164685140004,None,0.8997145379998983,668.715577541001,None,668.715577541001,None,5,1,0.934598477999316,669.6069427070015,None,669.6069427070015,None,669.6069427070015,None,670.5580848280006,None,1,0.40080201599994325,670.5580848280006,None,58,670.9754955470016,None,124,B,1,2021_May_27_1324,GazeFlow,2020.1.2,59.82753325549918,
6,Block803.xls,B,3,6,106,10,None,incongruent,Left,Right,Left,79,76,3,blue,2,5,/home/docky/apps/exp/images/79Bi.jpeg,/home/docky/apps/exp/images/76B.jpeg,0,5,5,5,0,5,5,5,671.9774892519999,None,671.9774892519999,None,1,2.4389826379992883,671.9774892519999,None,674.4497634010004,None,674.4497634010004,None,676.9533595540015,None,676.9533595540015,None,1.0170535829984146,678.7521912690008,None,678.7521912690008,None,5,1,1.0684319989995856,679.7594648000013,None,679.7594648000013,None,679.7594648000013,None,680.844267167,None,1,0.46804527300082555,680.844267167,None,60,681.3289563140006,None,124,B,1,2021_May_27_1324,GazeFlow,2020.1.2,59.82753325549918,
6,Block803.xls,B,3,7,25,25,None,congruent,Right,Right,Left,19,16,3,blue,2,5,/home/docky/apps/exp/images/19Bi.jpeg,/home/docky/apps/exp/images/16B.jpeg,0,5,5,5,0,6,6,6,682.3304468660008,None,682.3304468660008,None,1,2.639398188000996,682.3304468660008,None,685.0034675030001,None,685.0034675030001,None,687.5078817459998,None,687.5078817459998,None,1.3343174059991725,689.3114315330004,None,689.3114315330004,None,5,1,0.9852173759991274,690.6300581070009,None,690.6300581070009,None,690.6300581070009,None,691.6320754130011,None,1,0.5012097069993615,691.6320754130011,None,62,692.1495446190002,None,124,B,1,2021_May_27_1324,GazeFlow,2020.1.2,59.82753325549918,
6,Block803.xls,B,3,8,46,46,None,congruent,Right,Right,Left,39,38,1,blue,2,5,/home/docky/apps/exp/images/39B.jpeg,/home/docky/apps/exp/images/38Bi.jpeg,0,5,5,5,0,7,7,7,693.1508956030011,None,693.1508956030011,None,1,2.6058004850001453,693.1508956030011,None,695.7931568920012,None,695.7931568920012,None,698.2948275260005,None,698.2948275260005,None,1.033356530000674,700.0967031430009,None,700.0967031430009,None,6,0,1.1015485190000618,701.1167883990001,None,701.1167883990001,None,701.1167883990001,None,702.2348160070014,None,1,0.5017089040011342,702.2348160070014,None,60,702.7529789930013,None,124,B,1,2021_May_27_1324,GazeFlow,2020.1.2,59.82753325549918,
6,Block803.xls,B,,,,,,,,,,,,,,,,,,0,5,5,5,,,,,,,,,,,,,,,,,,,,,,,,,,,,,,,,,,,,,,,,,,,,124,B,1,2021_May_27_1324,GazeFlow,2020.1.2,59.82753325549918,
7,Block810.xls,B,10,1,119,23,None,incongruent,Left,Right,Left,76,69,7,yellow,2,5,/home/docky/apps/exp/images/76Yi.jpeg,/home/docky/apps/exp/images/69Y.jpeg,0,6,6,6,0,0,0,0,725.3475433240001,None,725.3475433240001,None,1,3.715695876000609,725.3475433240001,None,729.0881555330016,None,729.0881555330016,None,731.609173623001,None,731.609173623001,None,0.9325927239988232,733.4126622380008,None,733.4126622380008,None,5,1,1.0512706219997199,734.3306239869999,None,734.3306239869999,None,734.3306239869999,None,735.3988424400013,None,1,0.55198112799917,735.3988424400013,None,62,735.9668318380009,None,124,B,1,2021_May_27_1324,GazeFlow,2020.1.2,59.82753325549918,
7,Block810.xls,B,10,2,43,43,None,congruent,Right,Right,Left,83,80,3,blue,2,5,/home/docky/apps/exp/images/83B.jpeg,/home/docky/apps/exp/images/80Bi.jpeg,0,6,6,6,0,1,1,1,736.9685637790008,None,736.9685637790008,None,1,2.338486227999965,736.9685637790008,None,739.3407940380002,None,739.3407940380002,None,741.8458389840016,None,741.8458389840016,None,0.9334617019994766,743.6471864920004,None,743.6471864920004,None,5,1,0.9681225889999041,744.567060542,None,744.567060542,None,744.567060542,None,745.5519570640008,None,1,0.4845773890010605,745.5519570640008,None,64,746.052893004,None,124,B,1,2021_May_27_1324,GazeFlow,2020.1.2,59.82753325549918,
7,Block810.xls,B,10,3,53,53,None,congruent,Left,Left,Right,65,66,1,yellow,2,6,/home/docky/apps/exp/images/35Bi.jpeg,/home/docky/apps/exp/images/66Y.jpeg,0,6,6,6,0,2,2,2,747.0544572690014,None,747.0544572690014,None,1,2.556186179999713,747.0544572690014,None,749.6440920220011,None,749.6440920220011,None,752.1467852950009,None,752.1467852950009,None,1.0501432990004105,753.9505138230015,None,753.9505138230015,None,6,1,0.90129056799924,754.9869884060008,None,754.9869884060008,None,754.9869884060008,None,755.9048541870015,None,1,0.45159207899996545,755.9048541870015,None,66,756.3727577420013,None,124,B,1,2021_May_27_1324,GazeFlow,2020.1.2,59.82753325549918,
7,Block810.xls,B,10,4,74,74,None,congruent,Right,Right,Left,35,33,2,yellow,2,5,/home/docky/apps/exp/images/35Y.jpeg,/home/docky/apps/exp/images/33Yi.jpeg,0,6,6,6,0,3,3,3,757.374297286,None,757.374297286,None,1,2.1717130550005095,757.374297286,None,759.5799829530006,None,759.5799829530006,None,762.0888092810001,None,762.0888092810001,None,1.1337375530001736,763.8821737910002,None,763.8821737910002,None,5,1,1.5362334339988593,765.006650958001,None,765.006650958001,None,765.006650958001,None,766.5591753260014,None,1,0.4672791770008189,766.5591753260014,None,68,767.0431739420001,None,124,B,1,2021_May_27_1324,GazeFlow,2020.1.2,59.82753325549918,
7,Block810.xls,B,10,5,21,21,None,congruent,Left,Left,Right,76,79,3,blue,2,6,/home/docky/apps/exp/images/76B.jpeg,/home/docky/apps/exp/images/79Bi.jpeg,0,6,6,6,0,4,4,4,768.0452260000002,None,768.0452260000002,None,1,2.555445084000894,768.0452260000002,None,770.6327989750007,None,770.6327989750007,None,773.1394478800012,None,773.1394478800012,None,1.6016558589999477,774.9429897230002,None,774.9429897230002,None,6,1,1.0351716029999807,776.528871636001,None,776.528871636001,None,776.528871636001,None,777.5802726150014,None,1,0.43436102899977413,777.5802726150014,None,70,778.0313325260013,None,124,B,1,2021_May_27_1324,GazeFlow,2020.1.2,59.82753325549918,
7,Block810.xls,B,10,6,85,85,None,congruent,Right,Right,Left,75,69,6,yellow,2,5,/home/docky/apps/exp/images/76Y.jpeg,/home/docky/apps/exp/images/69Yi.jpeg,0,6,6,6,0,5,5,5,779.0331637380004,None,779.0331637380004,None,1,2.5724917290008307,779.0331637380004,None,781.6391030600007,None,781.6391030600007,None,784.1425379310003,None,784.1425379310003,None,1.0664943070005393,785.9477636980009,None,785.9477636980009,None,5,1,0.9351264609995269,786.9991174440001,None,786.9991174440001,None,786.9991174440001,None,787.9504222630003,None,1,0.48512461700011045,787.9504222630003,None,72,788.4516821000016,None,124,B,1,2021_May_27_1324,GazeFlow,2020.1.2,59.82753325549918,
7,Block810.xls,B,10,7,49,49,None,congruent,Left,Left,Right,33,35,2,yellow,2,6,/home/docky/apps/exp/images/33Yi.jpeg,/home/docky/apps/exp/images/35Y.jpeg,0,6,6,6,0,6,6,6,789.4535811630012,None,789.4535811630012,None,1,2.438671018000605,789.4535811630012,None,791.9260930320015,None,791.9260930320015,None,794.4309198999999,None,794.4309198999999,None,1.0667452050001884,796.2345601550005,None,796.2345601550005,None,6,1,1.1182465839992801,797.2859712340014,None,797.2859712340014,None,797.2859712340014,None,798.4208454470008,None,1,0.4512697059999482,798.4208454470008,None,74,798.8884298400008,None,124,B,1,2021_May_27_1324,GazeFlow,2020.1.2,59.82753325549918,
7,Block810.xls,B,10,8,63,63,None,congruent,Left,Left,Right,38,39,1,yellow,2,6,/home/docky/apps/exp/images/38Y.jpeg,/home/docky/apps/exp/images/39Yi.jpeg,0,6,6,6,0,7,7,7,799.8907567470014,None,799.8907567470014,None,1,2.9565178569991986,799.8907567470014,None,802.8828439220015,None,802.8828439220015,None,805.3857773960008,None,805.3857773960008,None,1.3507738410007732,807.1869188990004,None,807.1869188990004,None,6,1,1.052209931998732,808.5247330000002,None,808.5247330000002,None,808.5247330000002,None,809.5930587420007,None,1,0.43457003200092004,809.5930587420007,None,76,810.0441271180007,None,124,B,1,2021_May_27_1324,GazeFlow,2020.1.2,59.82753325549918,
7,Block810.xls,B,,,,,,,,,,,,,,,,,,0,6,6,6,,,,,,,,,,,,,,,,,,,,,,,,,,,,,,,,,,,,,,,,,,,,124,B,1,2021_May_27_1324,GazeFlow,2020.1.2,59.82753325549918,
8,Block801.xls,B,1,1,1,1,None,congruent,Left,Left,Right,16,19,3,blue,2,6,/home/docky/apps/exp/images/16Bi.jpeg,/home/docky/apps/exp/images/19B.jpeg,0,7,7,7,0,0,0,0,831.9721153270002,None,831.9721153270002,None,1,3.644506395001372,831.9721153270002,None,835.6476216950014,None,835.6476216950014,None,838.1644717100007,None,838.1644717100007,None,0.999584875000437,839.9685364470006,None,839.9685364470006,None,6,1,0.8512589179990755,840.9548281590014,None,840.9548281590014,None,840.9548281590014,None,841.8225906280004,None,1,0.4508035329999984,841.8225906280004,None,78,842.2910458750011,None,124,B,1,2021_May_27_1324,GazeFlow,2020.1.2,59.82753325549918,
8,Block801.xls,B,1,2,105,9,None,incongruent,Left,Right,Left,79,73,6,blue,2,5,/home/docky/apps/exp/images/79B.jpeg,/home/docky/apps/exp/images/73Bi.jpeg,0,7,7,7,0,1,1,1,843.2922643450001,None,843.2922643450001,None,1,2.8561423479986843,843.2922643450001,None,846.1808435920011,None,846.1808435920011,None,848.6850718290007,None,848.6850718290007,None,1.0668646340000123,850.4883117280006,None,850.4883117280006,None,5,1,3.105700190999414,851.5421847940015,None,851.5421847940015,None,851.5421847940015,None,854.6642148460014,None,1,0.9694909129993903,854.6642148460014,None,80,855.6502511430008,None,124,B,1,2021_May_27_1324,GazeFlow,2020.1.2,59.82753325549918,
8,Block801.xls,B,1,3,62,62,None,congruent,Left,Left,Right,38,39,1,yellow,2,6,/home/docky/apps/exp/images/38Y.jpeg,/home/docky/apps/exp/images/39Yi.jpeg,0,7,7,7,0,2,2,2,856.6521260710015,None,856.6521260710015,None,1,2.5556824739996955,856.6521260710015,None,859.2465669040012,None,859.2465669040012,None,861.7459107640007,None,861.7459107640007,None,1.033372320000126,863.5495628100016,None,863.5495628100016,None,6,1,0.935048748000554,864.5677048670004,None,864.5677048670004,None,864.5677048670004,None,865.5190357160009,None,1,0.45158822699886514,865.5190357160009,None,82,865.9867249790004,None,124,B,1,2021_May_27_1324,GazeFlow,2020.1.2,59.82753325549918,
8,Block801.xls,B,1,4,38,38,None,congruent,Right,Right,Left,79,73,6,blue,2,5,/home/docky/apps/exp/images/79B.jpeg,/home/docky/apps/exp/images/73Bi.jpeg,0,7,7,7,0,3,3,3,866.9888273140004,None,866.9888273140004,None,1,2.2888563289998274,866.9888273140004,None,869.3110612680011,None,869.3110612680011,None,871.814502049001,None,871.814502049001,None,1.200441625998792,873.6174611610004,None,873.6174611610004,None,5,1,2.487919350000084,874.8045242970002,None,874.8045242970002,None,874.8045242970002,None,877.3090226760014,None,1,0.8857010379997519,877.3090226760014,None,84,878.2113411090013,None,124,B,1,2021_May_27_1324,GazeFlow,2020.1.2,59.82753325549918,
8,Block801.xls,B,1,5,6,6,None,congruent,Left,Left,Right,35,38,3,blue,2,6,/home/docky/apps/exp/images/35Bi.jpeg,/home/docky/apps/exp/images/38B.jpeg,0,7,7,7,0,4,4,4,879.2131586100004,None,879.2131586100004,None,1,2.6885800599993672,879.2131586100004,None,881.92255062,None,881.92255062,None,884.4408107300005,None,884.4408107300005,None,1.1169899190008437,886.2423416810016,None,886.2423416810016,None,6,1,1.001838542000769,887.3461004630008,None,887.3461004630008,None,887.3461004630008,None,888.3639136780002,None,1,0.4855012439984421,888.3639136780002,None,86,888.8652813870012,None,124,B,1,2021_May_27_1324,GazeFlow,2020.1.2,59.82753325549918,
8,Block801.xls,B,1,6,51,51,None,congruent,Left,Left,Right,33,35,2,yellow,2,6,/home/docky/apps/exp/images/33Yi.jpeg,/home/docky/apps/exp/images/35Y.jpeg,0,7,7,7,0,5,5,5,889.8673128340015,None,889.8673128340015,None,1,2.2381472859997302,889.8673128340015,None,892.1395122550002,None,892.1395122550002,None,894.6419932740009,None,894.6419932740009,None,0.8332139440008177,896.4450765090005,None,896.4450765090005,None,6,1,0.9682025289985177,897.2655935930015,None,897.2655935930015,None,897.2655935930015,None,898.2501533720006,None,1,0.4679136559989274,898.2501533720006,None,88,898.7348114289998,None,124,B,1,2021_May_27_1324,GazeFlow,2020.1.2,59.82753325549918,
8,Block801.xls,B,1,7,73,73,None,congruent,Right,Right,Left,35,33,2,yellow,2,5,/home/docky/apps/exp/images/35Yi.jpeg,/home/docky/apps/exp/images/33Y.jpeg,0,7,7,7,0,6,6,6,899.7364318240016,None,899.7364318240016,None,1,2.1220138930002577,899.7364318240016,None,901.8919942430002,None,901.8919942430002,None,904.3951395880013,None,904.3951395880013,None,0.9666770920011913,906.1984856690015,None,906.1984856690015,None,5,1,2.2872017699992284,907.1518190630013,None,907.1518190630013,None,907.1518190630013,None,909.455918781001,None,1,0.9856458059985016,909.455918781001,None,90,910.4581332640009,None,124,B,1,2021_May_27_1324,GazeFlow,2020.1.2,59.82753325549918,
8,Block801.xls,B,1,8,96,96,None,congruent,Right,Right,Left,80,79,1,yellow,2,5,/home/docky/apps/exp/images/80Yi.jpeg,/home/docky/apps/exp/images/79Y.jpeg,0,7,7,7,0,7,7,7,911.4599089660005,None,911.4599089660005,None,1,2.822479734000808,911.4599089660005,None,914.3174767360015,None,914.3174767360015,None,916.8199002320016,None,916.8199002320016,None,0.7328626010003063,918.6233980140005,None,918.6233980140005,None,5,1,1.0024147280000761,919.3424609310005,None,919.3424609310005,None,919.3424609310005,None,920.3605640910009,None,1,0.5181641229992238,920.3605640910009,None,92,920.8954203480007,None,124,B,1,2021_May_27_1324,GazeFlow,2020.1.2,59.82753325549918,
8,Block801.xls,B,,,,,,,,,,,,,,,,,,0,7,7,7,,,,,,,,,,,,,,,,,,,,,,,,,,,,,,,,,,,,,,,,,,,,124,B,1,2021_May_27_1324,GazeFlow,2020.1.2,59.82753325549918,
9,Block802.xls,B,2,1,30,30,None,congruent,Right,Right,Left,38,35,3,blue,2,5,/home/docky/apps/exp/images/38B.jpeg,/home/docky/apps/exp/images/35Bi.jpeg,0,8,8,8,0,0,0,0,942.5408709530002,None,942.5408709530002,None,1,3.1605398209994746,942.5408709530002,None,945.7319772780011,None,945.7319772780011,None,948.2484550440004,None,948.2484550440004,None,0.9995202840000275,950.0537649520011,None,950.0537649520011,None,6,0,1.051435807999951,951.0385689430004,None,951.0385689430004,None,951.0385689430004,None,952.1068484300013,None,1,0.434672955001588,952.1068484300013,None,90,952.558048926001,None,124,B,1,2021_May_27_1324,GazeFlow,2020.1.2,59.82753325549918,
9,Block802.xls,B,2,2,5,5,None,congruent,Left,Left,Right,35,38,3,blue,2,6,/home/docky/apps/exp/images/35B.jpeg,/home/docky/apps/exp/images/38Bi.jpeg,0,8,8,8,0,1,1,1,953.5595267790013,None,953.5595267790013,None,1,2.255143747999682,953.5595267790013,None,955.8487047400013,None,955.8487047400013,None,958.3532953410013,None,958.3532953410013,None,0.9500600720002694,960.1549965520007,None,960.1549965520007,None,6,1,0.9514662359997601,961.0918623930011,None,961.0918623930011,None,961.0918623930011,None,962.0598990580002,None,1,0.4340463409989752,962.0598990580002,None,92,962.5111665610002,None,124,B,1,2021_May_27_1324,GazeFlow,2020.1.2,59.82753325549918,
9,Block802.xls,B,2,3,103,7,None,incongruent,Left,Right,Left,19,16,3,blue,2,5,/home/docky/apps/exp/images/19Bi.jpeg,/home/docky/apps/exp/images/16B.jpeg,0,8,8,8,0,2,2,2,963.5125324030014,None,963.5125324030014,None,1,2.322324622000451,963.5125324030014,None,965.8666193070003,None,965.8666193070003,None,968.3732155430007,None,968.3732155430007,None,1.0002109259985446,970.1753440880002,None,970.1753440880002,None,5,1,1.1183348979993752,971.1614785620004,None,971.1614785620004,None,971.1614785620004,None,972.2965100460005,None,1,0.3681659780013433,972.2965100460005,None,94,972.6810792680008,None,124,B,1,2021_May_27_1324,GazeFlow,2020.1.2,59.82753325549918,
9,Block802.xls,B,2,4,35,35,None,congruent,Right,Right,Left,66,65,1,blue,2,5,/home/docky/apps/exp/images/66B.jpeg,/home/docky/apps/exp/images/35Yi.jpeg,0,8,8,8,0,3,3,3,973.6828115480002,None,973.6828115480002,None,1,2.9565825879999466,973.6828115480002,None,976.6729419800013,None,976.6729419800013,None,979.1764681740005,None,979.1764681740005,None,1.0005052039996372,980.9796672550001,None,980.9796672550001,None,5,1,1.0010995230004482,981.9664750450011,None,981.9664750450011,None,981.9664750450011,None,982.984457048,None,1,0.4514067250001972,982.984457048,None,96,983.4523874860006,None,124,B,1,2021_May_27_1324,GazeFlow,2020.1.2,59.82753325549918,
9,Block802.xls,B,2,5,42,42,None,congruent,Right,Right,Left,83,80,3,blue,2,5,/home/docky/apps/exp/images/83Bi.jpeg,/home/docky/apps/exp/images/80B.jpeg,0,8,8,8,0,4,4,4,984.4538857340012,None,984.4538857340012,None,1,3.3077873000002,984.4538857340012,None,987.794988873,None,987.794988873,None,990.2997224400006,None,990.2997224400006,None,0.9668291540001519,992.1019381510014,None,992.1019381510014,None,5,1,2.4374104109992913,993.054916436,None,993.054916436,None,993.054916436,None,995.509214189,None,1,0.9020679519999248,995.509214189,None,98,996.4280996770012,None,124,B,1,2021_May_27_1324,GazeFlow,2020.1.2,59.82753325549918,
9,Block802.xls,B,2,6,104,8,None,incongruent,Left,Right,Left,38,35,3,blue,2,5,/home/docky/apps/exp/images/38B.jpeg,/home/docky/apps/exp/images/35Bi.jpeg,0,8,8,8,0,5,5,5,997.4301925280015,None,997.4301925280015,None,1,3.2063990300011938,997.4301925280015,None,1000.6705730700014,None,1000.6705730700014,None,1003.1753031450007,None,1003.1753031450007,None,1.0335404980014573,1004.9775900090008,None,1004.9775900090008,None,6,0,1.419090954001149,1005.9971884540009,None,1005.9971884540009,None,1005.9971884540009,None,1007.4327859450004,None,1,0.551167121000617,1007.4327859450004,None,96,1008.0007277100012,None,124,B,1,2021_May_27_1324,GazeFlow,2020.1.2,59.82753325549918,
9,Block802.xls,B,2,7,22,22,None,congruent,Left,Left,Right,80,83,3,blue,2,6,/home/docky/apps/exp/images/80Bi.jpeg,/home/docky/apps/exp/images/83B.jpeg,0,8,8,8,0,6,6,6,1009.0026905190007,None,1009.0026905190007,None,1,2.672890195999571,1009.0026905190007,None,1011.712246563,None,1011.712246563,None,1014.2132649940013,None,1014.2132649940013,None,1.1167626490005205,1016.0169594110012,None,1016.0169594110012,None,6,1,0.9678966609990312,1017.1185395000011,None,1017.1185395000011,None,1017.1185395000011,None,1018.1034063020015,None,1,0.4172227359995304,1018.1034063020015,None,98,1018.5371831050015,None,124,B,1,2021_May_27_1324,GazeFlow,2020.1.2,59.82753325549918,
9,Block802.xls,B,2,8,54,54,None,congruent,Left,Left,Right,65,66,1,yellow,2,6,/home/docky/apps/exp/images/35Bi.jpeg,/home/docky/apps/exp/images/66Y.jpeg,0,8,8,8,0,7,7,7,1019.5393262830003,None,1019.5393262830003,None,1,2.7561808029986423,1019.5393262830003,None,1022.3268341470011,None,1022.3268341470011,None,1024.8318558070005,None,1024.8318558070005,None,1.1168229750001046,1026.635213810001,None,1026.635213810001,None,6,1,0.9345956619999924,1027.738676031,None,1027.738676031,None,1027.738676031,None,1028.6898247610006,None,1,0.518599244998768,1028.6898247610006,None,100,1029.224561436,None,124,B,1,2021_May_27_1324,GazeFlow,2020.1.2,59.82753325549918,
9,Block802.xls,B,,,,,,,,,,,,,,,,,,0,8,8,8,,,,,,,,,,,,,,,,,,,,,,,,,,,,,,,,,,,,,,,,,,,,124,B,1,2021_May_27_1324,GazeFlow,2020.1.2,59.82753325549918,
10,Block813.xls,B,13,1,70,70,None,congruent,Left,Left,Right,79,82,3,yellow,2,6,/home/docky/apps/exp/images/79Yi.jpeg,/home/docky/apps/exp/images/80Y.jpeg,0,9,9,9,0,0,0,0,1051.2844980420014,None,1051.2844980420014,None,1,3.478017904000808,1051.2844980420014,None,1054.793834991,None,1054.793834991,None,1057.311701468001,None,1057.311701468001,None,0.9329611450011726,1059.1148553870007,None,1059.1148553870007,None,6,1,1.001064291000148,1060.0332768470016,None,1060.0332768470016,None,1060.0332768470016,None,1061.0510881650007,None,1,0.5353285730016069,1061.0510881650007,None,102,1061.602525096001,None,124,B,1,2021_May_27_1324,GazeFlow,2020.1.2,59.82753325549918,
10,Block813.xls,B,13,2,60,60,None,congruent,Left,Left,Right,38,39,1,yellow,2,6,/home/docky/apps/exp/images/38Yi.jpeg,/home/docky/apps/exp/images/39Y.jpeg,0,9,9,9,0,1,1,1,1062.6041910880012,None,1062.6041910880012,None,1,1.7877211480008555,1062.6041910880012,None,1064.4251912700001,None,1064.4251912700001,None,1066.927902501,None,1066.927902501,None,0.8661437949995161,1068.7261819900014,None,1068.7261819900014,None,6,1,0.9514501400008157,1069.5843359700011,None,1069.5843359700011,None,1069.5843359700011,None,1070.5524464580012,None,1,0.6018189400001575,1070.5524464580012,None,104,1071.1707218790016,None,124,B,1,2021_May_27_1324,GazeFlow,2020.1.2,59.82753325549918,
10,Block813.xls,B,13,3,81,81,None,congruent,Right,Right,Left,66,65,1,yellow,2,5,/home/docky/apps/exp/images/66Y.jpeg,/home/docky/apps/exp/images/35Bi.jpeg,0,9,9,9,0,2,2,2,1072.1723177870008,None,1072.1723177870008,None,1,2.20520663500065,1072.1723177870008,None,1074.4109129510016,None,1074.4109129510016,None,1076.9141239780001,None,1076.9141239780001,None,1.301204482000685,1078.7117375690013,None,1078.7117375690013,None,5,1,3.5566670990010607,1080.0045186140014,None,1080.0045186140014,None,1080.0045186140014,None,1083.5776658949999,None,1,0.8690684150005836,1083.5776658949999,None,106,1084.4626618640013,None,124,B,1,2021_May_27_1324,GazeFlow,2020.1.2,59.82753325549918,
10,Block813.xls,B,13,4,110,14,None,incongruent,Right,Left,Right,65,66,1,yellow,2,6,/home/docky/apps/exp/images/35B.jpeg,/home/docky/apps/exp/images/66Yi.jpeg,0,9,9,9,0,3,3,3,1085.464747209,None,1085.464747209,None,1,2.638513204001356,1085.464747209,None,1088.1371721550004,None,1088.1371721550004,None,1090.640369574001,None,1090.640369574001,None,1.0336909460002062,1092.4431893180008,None,1092.4431893180008,None,5,0,2.9884294889998273,1093.4634425620006,None,1093.4634425620006,None,1093.4634425620006,None,1096.46858977,None,1,0.6689336670006014,1096.46858977,None,104,1097.1536107020002,None,124,B,1,2021_May_27_1324,GazeFlow,2020.1.2,59.82753325549918,
10,Block813.xls,B,13,5,17,17,None,congruent,Left,Left,Right,73,76,3,blue,2,6,/home/docky/apps/exp/images/73Bi.jpeg,/home/docky/apps/exp/images/76B.jpeg,0,9,9,9,0,4,4,4,1098.1555931000003,None,1098.1555931000003,None,1,3.1061696959986875,1098.1555931000003,None,1101.2955115570003,None,1101.2955115570003,None,1103.7986161590015,None,1103.7986161590015,None,0.8498770669993974,1105.6009385140005,None,1105.6009385140005,None,6,1,0.9182627760001196,1106.438109693001,None,1106.438109693001,None,1106.438109693001,None,1107.3728673590012,None,1,0.4009649810013798,1107.3728673590012,None,106,1107.7902167780012,None,124,B,1,2021_May_27_1324,GazeFlow,2020.1.2,59.82753325549918,
10,Block813.xls,B,13,6,111,15,None,incongruent,Right,Left,Right,62,65,3,yellow,2,6,/home/docky/apps/exp/images/38B.jpeg,/home/docky/apps/exp/images/35Bi.jpeg,0,9,9,9,0,5,5,5,1108.792245187,None,1108.792245187,None,1,2.6396487439997145,1108.792245187,None,1111.4646031810007,None,1111.4646031810007,None,1113.969686241,None,1113.969686241,None,1.0334519749994797,1115.7670816450009,None,1115.7670816450009,None,6,1,1.0516466379995109,1116.7913613990004,None,1116.7913613990004,None,1116.7913613990004,None,1117.8594447220003,None,1,0.4682403799997701,1117.8594447220003,None,108,1118.3437357790008,None,124,B,1,2021_May_27_1324,GazeFlow,2020.1.2,59.82753325549918,
10,Block813.xls,B,13,7,55,55,None,congruent,Left,Left,Right,65,66,1,yellow,2,6,/home/docky/apps/exp/images/35B.jpeg,/home/docky/apps/exp/images/66Yi.jpeg,0,9,9,9,0,6,6,6,1119.3456345390005,None,1119.3456345390005,None,1,2.405334319000758,1119.3456345390005,None,1121.7848215570011,None,1121.7848215570011,None,1124.2879598630007,None,1124.2879598630007,None,0.9500742910004192,1126.0912432530004,None,1126.0912432530004,None,6,1,0.9347361250001995,1127.0274726340012,None,1127.0274726340012,None,1127.0274726340012,None,1127.9787948510002,None,1,0.4847548750003625,1127.9787948510002,None,110,1128.4800758190013,None,124,B,1,2021_May_27_1324,GazeFlow,2020.1.2,59.82753325549918,
10,Block813.xls,B,13,8,26,26,None,congruent,Right,Right,Left,19,16,3,blue,2,5,/home/docky/apps/exp/images/19B.jpeg,/home/docky/apps/exp/images/16Bi.jpeg,0,9,9,9,0,7,7,7,1129.4819774880016,None,1129.4819774880016,None,1,3.4409916250006063,1129.4819774880016,None,1132.954387650001,None,1132.954387650001,None,1135.4594016790015,None,1135.4594016790015,None,0.9167454189991986,1137.2627227720004,None,1137.2627227720004,None,5,1,0.9178748369995446,1138.165673042,None,1138.165673042,None,1138.165673042,None,1139.1000636890003,None,1,0.485328834000029,1139.1000636890003,None,112,1139.6015891630013,None,124,B,1,2021_May_27_1324,GazeFlow,2020.1.2,59.82753325549918,
10,Block813.xls,B,,,,,,,,,,,,,,,,,,0,9,9,9,,,,,,,,,,,,,,,,,,,,,,,,,,,,,,,,,,,,,,,,,,,,124,B,1,2021_May_27_1324,GazeFlow,2020.1.2,59.82753325549918,
11,Block806.xls,B,6,1,10,10,None,congruent,Left,Left,Right,65,66,1,blue,2,6,/home/docky/apps/exp/images/35Y.jpeg,/home/docky/apps/exp/images/66Bi.jpeg,0,10,10,10,0,0,0,0,1164.584918048,None,1164.584918048,None,1,3.7461343630002375,1164.584918048,None,1168.361343165001,None,1168.361343165001,None,1170.8791365220004,None,1170.8791365220004,None,1.0999854420006159,1172.6802726300011,None,1172.6802726300011,None,5,0,1.2016019160000724,1173.7677828490014,None,1173.7677828490014,None,1173.7677828490014,None,1174.9859262050013,None,1,0.5341101640005945,1174.9859262050013,None,110,1175.5369151970008,None,124,B,1,2021_May_27_1324,GazeFlow,2020.1.2,59.82753325549918,
11,Block806.xls,B,6,2,89,89,None,congruent,Right,Right,Left,76,69,7,yellow,2,5,/home/docky/apps/exp/images/76Yi.jpeg,/home/docky/apps/exp/images/69Y.jpeg,0,10,10,10,0,1,1,1,1176.5391102940011,None,1176.5391102940011,None,1,2.672352163001051,1176.5391102940011,None,1179.2438673120014,None,1179.2438673120014,None,1181.7497031820003,None,1181.7497031820003,None,0.7330018290012958,1183.5509208250005,None,1183.5509208250005,None,5,1,2.771671645999959,1184.271123478,None,1184.271123478,None,1184.271123478,None,1187.059030067001,None,1,0.6681945880009152,1187.059030067001,None,112,1187.7437286540007,None,124,B,1,2021_May_27_1324,GazeFlow,2020.1.2,59.82753325549918,
11,Block806.xls,B,6,3,88,88,None,congruent,Right,Right,Left,76,69,7,yellow,2,5,/home/docky/apps/exp/images/76Y.jpeg,/home/docky/apps/exp/images/69Yi.jpeg,0,10,10,10,0,2,2,2,1188.7462541020013,None,1188.7462541020013,None,1,3.357206724000207,1188.7462541020013,None,1192.1365048180014,None,1192.1365048180014,None,1194.6397557230011,None,1194.6397557230011,None,1.100267754000015,1196.4426964490012,None,1196.4426964490012,None,5,1,0.9015631980000762,1197.5299940910008,None,1197.5299940910008,None,1197.5299940910008,None,1198.4477884050011,None,1,0.43483477300105733,1198.4477884050011,None,114,1198.8991454980005,None,124,B,1,2021_May_27_1324,GazeFlow,2020.1.2,59.82753325549918,
11,Block806.xls,B,6,4,109,13,None,incongruent,Right,Left,Right,33,35,2,yellow,2,6,/home/docky/apps/exp/images/33Yi.jpeg,/home/docky/apps/exp/images/35Y.jpeg,0,10,10,10,0,3,3,3,1199.9006529060007,None,1199.9006529060007,None,1,2.8897518379999383,1199.9006529060007,None,1202.8242405870005,None,1202.8242405870005,None,1205.3270369150014,None,1205.3270369150014,None,1.0665950309994514,1207.1309153790007,None,1207.1309153790007,None,6,1,1.2190198820007936,1208.184056471,None,1208.184056471,None,1208.184056471,None,1209.419487766001,None,1,0.5516394059995946,1209.419487766001,None,116,1209.9872175380006,None,124,B,1,2021_May_27_1324,GazeFlow,2020.1.2,59.82753325549918,
11,Block806.xls,B,6,5,37,37,None,congruent,Right,Right,Left,79,73,6,blue,2,5,/home/docky/apps/exp/images/79Bi.jpeg,/home/docky/apps/exp/images/73B.jpeg,0,10,10,10,0,4,4,4,1210.9888016190016,None,1210.9888016190016,None,1,2.3056982759990206,1210.9888016190016,None,1213.3321278090007,None,1213.3321278090007,None,1215.832596626,None,1215.832596626,None,0.9500259729993559,1217.6340109700013,None,1217.6340109700013,None,5,1,0.9014002569983859,1218.5707276000012,None,1218.5707276000012,None,1218.5707276000012,None,1219.4887935260012,None,1,0.4851326499992865,1219.4887935260012,None,118,1219.9900042410009,None,124,B,1,2021_May_27_1324,GazeFlow,2020.1.2,59.82753325549918,
11,Block806.xls,B,6,6,108,12,None,incongruent,Left,Right,Left,39,38,1,blue,2,5,/home/docky/apps/exp/images/39Bi.jpeg,/home/docky/apps/exp/images/38B.jpeg,0,10,10,10,0,5,5,5,1220.9912468310013,None,1220.9912468310013,None,1,2.255338828999811,1220.9912468310013,None,1223.278826089001,None,1223.278826089001,None,1225.7836832130015,None,1225.7836832130015,None,0.983446559001095,1227.586906300001,None,1227.586906300001,None,5,1,1.0016134069992404,1228.556574286,None,1228.556574286,None,1228.556574286,None,1229.5744851610016,None,1,0.4522430900015024,1229.5744851610016,None,120,1230.0427024780001,None,124,B,1,2021_May_27_1324,GazeFlow,2020.1.2,59.82753325549918,
11,Block806.xls,B,6,7,52,52,None,congruent,Left,Left,Right,65,66,1,yellow,2,6,/home/docky/apps/exp/images/35B.jpeg,/home/docky/apps/exp/images/66Yi.jpeg,0,10,10,10,0,6,6,6,1231.0443235450002,None,1231.0443235450002,None,1,2.7727781329995196,1231.0443235450002,None,1233.8506009730008,None,1233.8506009730008,None,1236.3601128260016,None,1236.3601128260016,None,1.1174054329985665,1238.157444595001,None,1238.157444595001,None,5,0,1.1854039750014636,1239.2607343130003,None,1239.2607343130003,None,1239.2607343130003,None,1240.4625200700011,None,1,0.5342305039994244,1240.4625200700011,None,118,1241.0135667550003,None,124,B,1,2021_May_27_1324,GazeFlow,2020.1.2,59.82753325549918,
11,Block806.xls,B,6,8,75,75,None,congruent,Right,Right,Left,35,33,2,yellow,2,5,/home/docky/apps/exp/images/35Yi.jpeg,/home/docky/apps/exp/images/33Y.jpeg,0,10,10,10,0,7,7,7,1242.0160360400005,None,1242.0160360400005,None,1,2.9394020029994863,1242.0160360400005,None,1244.98686671,None,1244.98686671,None,1247.4921248380015,None,1247.4921248380015,None,1.0501100689998566,1249.297125301,None,1249.297125301,None,5,1,1.9867951729993365,1250.3323434040012,None,1250.3323434040012,None,1250.3323434040012,None,1252.335480791,None,1,0.6012158609992184,1252.335480791,None,120,1252.953442514001,None,124,B,1,2021_May_27_1324,GazeFlow,2020.1.2,59.82753325549918,
11,Block806.xls,B,,,,,,,,,,,,,,,,,,0,10,10,10,,,,,,,,,,,,,,,,,,,,,,,,,,,,,,,,,,,,,,,,,,,,124,B,1,2021_May_27_1324,GazeFlow,2020.1.2,59.82753325549918,
12,Block811.xls,B,11,1,86,86,None,congruent,Right,Right,Left,75,69,6,yellow,2,5,/home/docky/apps/exp/images/76Y.jpeg,/home/docky/apps/exp/images/69Yi.jpeg,0,11,11,11,0,0,0,0,1272.7443904370011,None,1272.7443904370011,None,1,3.745747257000403,1272.7443904370011,None,1276.5195102420003,None,1276.5195102420003,None,1279.0449978380002,None,1279.0449978380002,None,0.8487998100008554,1280.8356722770004,None,1280.8356722770004,None,5,1,0.9515675059992645,1281.6762046479998,None,1281.6762046479998,None,1281.6762046479998,None,1282.6445658410012,None,1,0.45064078900031745,1282.6445658410012,None,122,1283.1123754910004,None,124,B,1,2021_May_27_1324,GazeFlow,2020.1.2,59.82753325549918,
12,Block811.xls,B,11,2,83,83,None,congruent,Right,Right,Left,75,69,6,yellow,2,5,/home/docky/apps/exp/images/76Yi.jpeg,/home/docky/apps/exp/images/69Y.jpeg,0,11,11,11,0,1,1,1,1284.1140002580014,None,1284.1140002580014,None,1,2.6057118450007692,1284.1140002580014,None,1286.753519979,None,1286.753519979,None,1289.2567680370012,None,1289.2567680370012,None,1.0334923099999287,1291.0592502529998,None,1291.0592502529998,None,5,1,0.8343460109990701,1292.0800797470001,None,1292.0800797470001,None,1292.0800797470001,None,1292.9310251670013,None,1,0.5351450279995333,1292.9310251670013,None,124,1293.4826161050005,None,124,B,1,2021_May_27_1324,GazeFlow,2020.1.2,59.82753325549918,
12,Block811.xls,B,11,3,28,28,None,congruent,Right,Right,Left,38,35,3,blue,2,5,/home/docky/apps/exp/images/38Bi.jpeg,/home/docky/apps/exp/images/35B.jpeg,0,11,11,11,0,2,2,2,1294.483893519,None,1294.483893519,None,1,2.3723187830000825,1294.483893519,None,1296.8898635080004,None,1296.8898635080004,None,1299.3947315000005,None,1299.3947315000005,None,1.1001439909996407,1301.1965645670007,None,1301.1965645670007,None,5,1,1.018201491999207,1302.2832179289999,None,1302.2832179289999,None,1302.2832179289999,None,1303.3180464450015,None,1,0.45073703000161913,1303.3180464450015,None,126,1303.7853376830008,None,124,B,1,2021_May_27_1324,GazeFlow,2020.1.2,59.82753325549918,
12,Block811.xls,B,11,4,58,58,None,congruent,Left,Left,Right,62,65,3,yellow,2,6,/home/docky/apps/exp/images/38B.jpeg,/home/docky/apps/exp/images/35Bi.jpeg,0,11,11,11,0,3,3,3,1304.7877973140003,None,1304.7877973140003,None,1,2.9894897650010535,1304.7877973140003,None,1307.809448893,None,1307.809448893,None,1310.318894086,None,1310.318894086,None,0.8667346559996076,1312.1197153600006,None,1312.1197153600006,None,6,1,0.9348724350002158,1312.9705347770014,None,1312.9705347770014,None,1312.9705347770014,None,1313.9220700080004,None,1,0.46747472399874823,1313.9220700080004,None,128,1314.406026646,None,124,B,1,2021_May_27_1324,GazeFlow,2020.1.2,59.82753325549918,
12,Block811.xls,B,11,5,32,32,None,congruent,Right,Right,Left,66,65,1,blue,2,5,/home/docky/apps/exp/images/66Bi.jpeg,/home/docky/apps/exp/images/35Y.jpeg,0,11,11,11,0,4,4,4,1315.4084791210007,None,1315.4084791210007,None,1,2.422276426999815,1315.4084791210007,None,1317.8640343650004,None,1317.8640343650004,None,1320.3688204260015,None,1320.3688204260015,None,1.0000899509996088,1322.1704072500015,None,1322.1704072500015,None,5,1,2.421293422999952,1323.1569639170011,None,1323.1569639170011,None,1323.1569639170011,None,1325.5945905480003,None,1,0.5678819069999008,1325.5945905480003,None,130,1326.1790499440012,None,124,B,1,2021_May_27_1324,GazeFlow,2020.1.2,59.82753325549918,
12,Block811.xls,B,11,6,67,67,None,congruent,Left,Left,Right,72,77,5,yellow,2,6,/home/docky/apps/exp/images/72Y.jpeg,/home/docky/apps/exp/images/77Yi.jpeg,0,11,11,11,0,5,5,5,1327.181577292,None,1327.181577292,None,1,3.1902381439995224,1327.181577292,None,1330.4049419300009,None,1330.4049419300009,None,1332.9080358620013,None,1332.9080358620013,None,1.1335518799987767,1334.7063286560006,None,1334.7063286560006,None,6,1,0.9178047160003189,1335.831981317,None,1335.831981317,None,1335.831981317,None,1336.7664683390012,None,1,0.6014450150014454,1336.7664683390012,None,132,1337.3842695250005,None,124,B,1,2021_May_27_1324,GazeFlow,2020.1.2,59.82753325549918,
12,Block811.xls,B,11,7,120,24,None,incongruent,Left,Right,Left,77,72,5,yellow,2,5,/home/docky/apps/exp/images/77Y.jpeg,/home/docky/apps/exp/images/72Yi.jpeg,0,11,11,11,0,6,6,6,1338.3863040470005,None,1338.3863040470005,None,1,2.9569514429986157,1338.3863040470005,None,1341.3766546300012,None,1341.3766546300012,None,1343.880199448,None,1343.880199448,None,1.067127344000255,1345.6829263110012,None,1345.6829263110012,None,5,1,1.3191797409999708,1346.7365700530008,None,1346.7365700530008,None,1346.7365700530008,None,1348.0720823780011,None,1,0.4847500520008907,1348.0720823780011,None,134,1348.5731970920006,None,124,B,1,2021_May_27_1324,GazeFlow,2020.1.2,59.82753325549918,
12,Block811.xls,B,11,8,57,57,None,congruent,Left,Left,Right,62,65,3,yellow,2,6,/home/docky/apps/exp/images/38Bi.jpeg,/home/docky/apps/exp/images/35B.jpeg,0,11,11,11,0,7,7,7,1349.575011555,None,1349.575011555,None,1,2.8226160789999994,1349.575011555,None,1352.4312843440002,None,1352.4312843440002,None,1354.936204044001,None,1354.936204044001,None,1.1839121150005667,1356.7325330110016,None,1356.7325330110016,None,6,1,0.9179400419998274,1357.908338962001,None,1357.908338962001,None,1357.908338962001,None,1358.842728271,None,1,0.4687794239998766,1358.842728271,None,136,1359.3276258730002,None,124,B,1,2021_May_27_1324,GazeFlow,2020.1.2,59.82753325549918,
12,Block811.xls,B,,,,,,,,,,,,,,,,,,0,11,11,11,,,,,,,,,,,,,,,,,,,,,,,,,,,,,,,,,,,,,,,,,,,,124,B,1,2021_May_27_1324,GazeFlow,2020.1.2,59.82753325549918,
13,Block808.xls,B,8,1,118,22,None,incongruent,Left,Right,Left,75,69,6,yellow,2,5,/home/docky/apps/exp/images/76Y.jpeg,/home/docky/apps/exp/images/69Yi.jpeg,0,12,12,12,0,0,0,0,1383.3588131470005,None,1383.3588131470005,None,1,3.6820839179999894,1383.3588131470005,None,1387.062378734001,None,1387.062378734001,None,1389.587452369,None,1389.587452369,None,0.9325710570010415,1391.3896860050008,None,1391.3896860050008,None,5,1,1.051505780998923,1392.308943068001,None,1392.308943068001,None,1392.308943068001,None,1393.377100097001,None,1,0.4508430269997916,1393.377100097001,None,138,1393.844641611,None,124,B,1,2021_May_27_1324,GazeFlow,2020.1.2,59.82753325549918,
13,Block808.xls,B,8,2,7,7,None,congruent,Left,Left,Right,65,66,1,blue,2,6,/home/docky/apps/exp/images/35Yi.jpeg,/home/docky/apps/exp/images/66B.jpeg,0,12,12,12,0,1,1,1,1394.846330280001,None,1394.846330280001,None,1,2.639654683000117,1394.846330280001,None,1397.5196997440016,None,1397.5196997440016,None,1400.022282973001,None,1400.022282973001,None,0.8666641020008683,1401.820891847001,None,1401.820891847001,None,6,1,1.0010228070004814,1402.6795171530011,None,1402.6795171530011,None,1402.6795171530011,None,1403.6973228740007,None,1,0.4508320780005306,1403.6973228740007,None,140,1404.165359009001,None,124,B,1,2021_May_27_1324,GazeFlow,2020.1.2,59.82753325549918,
13,Block808.xls,B,8,3,112,16,None,incongruent,Right,Left,Right,69,76,7,yellow,2,6,/home/docky/apps/exp/images/69Yi.jpeg,/home/docky/apps/exp/images/76Y.jpeg,0,12,12,12,0,2,2,2,1405.166785857,None,1405.166785857,None,1,2.3719393910014333,1405.166785857,None,1407.5724810440006,None,1407.5724810440006,None,1410.0753781450003,None,1410.0753781450003,None,1.0002721090004343,1411.874883853001,None,1411.874883853001,None,6,1,1.0013876980010536,1412.8658634570002,None,1412.8658634570002,None,1412.8658634570002,None,1413.883733439001,None,1,0.401577950000501,1413.883733439001,None,142,1414.3018556450006,None,124,B,1,2021_May_27_1324,GazeFlow,2020.1.2,59.82753325549918,
13,Block808.xls,B,8,4,97,1,None,incongruent,Right,Left,Right,16,19,3,blue,2,6,/home/docky/apps/exp/images/16Bi.jpeg,/home/docky/apps/exp/images/19B.jpeg,0,12,12,12,0,3,3,3,1415.3036410270015,None,1415.3036410270015,None,1,2.004270687999451,1415.3036410270015,None,1417.3401808460003,None,1417.3401808460003,None,1419.8447095130014,None,1419.8447095130014,None,1.0002075320007862,1421.6479470570011,None,1421.6479470570011,None,6,1,0.9012618769993423,1422.6351174290012,None,1422.6351174290012,None,1422.6351174290012,None,1423.5527984250002,None,1,0.45207972199932556,1423.5527984250002,None,144,1424.0207801870001,None,124,B,1,2021_May_27_1324,GazeFlow,2020.1.2,59.82753325549918,
13,Block808.xls,B,8,5,24,24,None,congruent,Left,Left,Right,80,83,3,blue,2,6,/home/docky/apps/exp/images/80Bi.jpeg,/home/docky/apps/exp/images/83B.jpeg,0,12,12,12,0,4,4,4,1425.0222824700013,None,1425.0222824700013,None,1,1.9883141049995174,1425.0222824700013,None,1427.0397822590003,None,1427.0397822590003,None,1429.5474644450005,None,1429.5474644450005,None,1.1001942429993505,1431.350109987001,None,1431.350109987001,None,6,1,1.034727094000118,1432.4375083650011,None,1432.4375083650011,None,1432.4375083650011,None,1433.488943796001,None,1,0.38475299300080223,1433.488943796001,None,146,1433.8902387480011,None,124,B,1,2021_May_27_1324,GazeFlow,2020.1.2,59.82753325549918,
13,Block808.xls,B,8,6,13,13,None,congruent,Left,Left,Right,38,39,1,blue,2,6,/home/docky/apps/exp/images/38Bi.jpeg,/home/docky/apps/exp/images/39B.jpeg,0,12,12,12,0,5,5,5,1434.8917144670013,None,1434.8917144670013,None,1,3.090474460999758,1434.8917144670013,None,1438.0154006510002,None,1438.0154006510002,None,1440.520420926001,None,1440.520420926001,None,0.9503110160003416,1442.322470524001,None,1442.322470524001,None,6,1,0.8180124680002336,1443.2585873389999,None,1443.2585873389999,None,1443.2585873389999,None,1444.09305761,None,1,0.38410663700051373,1444.09305761,None,148,1444.4937821849999,None,124,B,1,2021_May_27_1324,GazeFlow,2020.1.2,59.82753325549918,
13,Block808.xls,B,8,7,8,8,None,congruent,Left,Left,Right,65,66,1,blue,2,6,/home/docky/apps/exp/images/35Y.jpeg,/home/docky/apps/exp/images/66Bi.jpeg,0,12,12,12,0,6,6,6,1445.4957785330007,None,1445.4957785330007,None,1,2.1881353659991873,1445.4957785330007,None,1447.718384316,None,1447.718384316,None,1450.2203414140004,None,1450.2203414140004,None,0.9834261960004369,1452.0239506890011,None,1452.0239506890011,None,5,0,1.034968805999597,1452.9942713170003,None,1452.9942713170003,None,1452.9942713170003,None,1454.0460387890016,None,1,0.48519137800030876,1454.0460387890016,None,146,1454.547317816001,None,124,B,1,2021_May_27_1324,GazeFlow,2020.1.2,59.82753325549918,
13,Block808.xls,B,8,8,31,31,None,congruent,Right,Right,Left,66,65,1,blue,2,5,/home/docky/apps/exp/images/66B.jpeg,/home/docky/apps/exp/images/35Yi.jpeg,0,12,12,12,0,7,7,7,1455.548775266001,None,1455.548775266001,None,1,2.7901985939988663,1455.548775266001,None,1458.372225250001,None,1458.372225250001,None,1460.874696588,None,1460.874696588,None,1.1839949099994556,1462.6783933590013,None,1462.6783933590013,None,5,1,0.9514326909993542,1463.8490719540005,None,1463.8490719540005,None,1463.8490719540005,None,1464.8168357920003,None,1,0.4514494110007945,1464.8168357920003,None,148,1465.2848421899998,None,124,B,1,2021_May_27_1324,GazeFlow,2020.1.2,59.82753325549918,
13,Block808.xls,B,,,,,,,,,,,,,,,,,,0,12,12,12,,,,,,,,,,,,,,,,,,,,,,,,,,,,,,,,,,,,,,,,,,,,124,B,1,2021_May_27_1324,GazeFlow,2020.1.2,59.82753325549918,
14,Block815.xls,B,15,1,65,65,None,congruent,Left,Left,Right,69,76,7,yellow,2,6,/home/docky/apps/exp/images/69Yi.jpeg,/home/docky/apps/exp/images/76Y.jpeg,0,13,13,13,0,0,0,0,1489.3330160730002,None,1489.3330160730002,None,1,2.812002863000089,1489.3330160730002,None,1492.1705703370008,None,1492.1705703370008,None,1494.6934022310015,None,1494.6934022310015,None,1.0328545779993874,1496.4969330660006,None,1496.4969330660006,None,6,1,0.8679460719995404,1497.5148587479998,None,1497.5148587479998,None,1497.5148587479998,None,1498.3997345850003,None,1,0.40067272600026627,1498.3997345850003,None,150,1498.8174997350015,None,124,B,1,2021_May_27_1324,GazeFlow,2020.1.2,59.82753325549918,
14,Block815.xls,B,15,2,102,6,None,incongruent,Right,Left,Right,80,83,3,blue,2,6,/home/docky/apps/exp/images/80B.jpeg,/home/docky/apps/exp/images/83Bi.jpeg,0,13,13,13,0,1,1,1,1499.8192395990009,None,1499.8192395990009,None,1,2.1212235240000155,1499.8192395990009,None,1501.9742819780004,None,1501.9742819780004,None,1504.4779240370008,None,1504.4779240370008,None,1.0834830980002153,1506.2809742170011,None,1506.2809742170011,None,6,1,0.9680988899999647,1507.3510122530006,None,1507.3510122530006,None,1507.3510122530006,None,1508.3358505830001,None,1,0.3849774880000041,1508.3358505830001,None,152,1508.7368375320002,None,124,B,1,2021_May_27_1324,GazeFlow,2020.1.2,59.82753325549918,
14,Block815.xls,B,15,3,33,33,None,congruent,Right,Right,Left,66,65,1,blue,2,5,/home/docky/apps/exp/images/66Bi.jpeg,/home/docky/apps/exp/images/35Y.jpeg,0,13,13,13,0,2,2,2,1509.738358034001,None,1509.738358034001,None,1,2.155416628000239,1509.738358034001,None,1511.9270125290004,None,1511.9270125290004,None,1514.4301009730007,None,1514.4301009730007,None,1.0166405189993384,1516.2340210940001,None,1516.2340210940001,None,6,0,0.934483105000254,1517.237211744001,None,1517.237211744001,None,1517.237211744001,None,1518.188225021,None,1,0.3851339270004246,1518.188225021,None,150,1518.5893722030014,None,124,B,1,2021_May_27_1324,GazeFlow,2020.1.2,59.82753325549918,
14,Block815.xls,B,15,4,72,72,None,congruent,Left,Left,Right,79,82,3,yellow,2,6,/home/docky/apps/exp/images/79Yi.jpeg,/home/docky/apps/exp/images/80Y.jpeg,0,13,13,13,0,3,3,3,1519.5911589250009,None,1519.5911589250009,None,1,2.5059738219988503,1519.5911589250009,None,1522.13073137,None,1522.13073137,None,1524.6340709830001,None,1524.6340709830001,None,0.9001878740000393,1526.436558841,None,1526.436558841,None,5,0,1.1348333139994793,1527.3236563160008,None,1527.3236563160008,None,1527.3236563160008,None,1528.4754061860003,None,1,0.4520168540002487,1528.4754061860003,None,148,1528.9432360600003,None,124,B,1,2021_May_27_1324,GazeFlow,2020.1.2,59.82753325549918,
14,Block815.xls,B,15,5,100,4,None,incongruent,Right,Left,Right,73,76,3,blue,2,6,/home/docky/apps/exp/images/73B.jpeg,/home/docky/apps/exp/images/76Bi.jpeg,0,13,13,13,0,4,4,4,1529.944859141,None,1529.944859141,None,1,3.2067823899997165,1529.944859141,None,1533.1868520340013,None,1533.1868520340013,None,1535.688346164001,None,1535.688346164001,None,1.0172855900000286,1537.491952759001,None,1537.491952759001,None,5,0,0.8848845180000353,1538.495299227001,None,1538.495299227001,None,1538.495299227001,None,1539.3966337760012,None,1,0.5189512349988945,1539.3966337760012,None,146,1539.9313476300013,None,124,B,1,2021_May_27_1324,GazeFlow,2020.1.2,59.82753325549918,
14,Block815.xls,B,15,6,45,45,None,congruent,Right,Right,Left,39,38,1,blue,2,5,/home/docky/apps/exp/images/39B.jpeg,/home/docky/apps/exp/images/38Bi.jpeg,0,13,13,13,0,5,5,5,1540.9331851430015,None,1540.9331851430015,None,1,2.8562646079990373,1540.9331851430015,None,1543.8230239090008,None,1543.8230239090008,None,1546.3263734150005,None,1546.3263734150005,None,1.2341145970003708,1548.132098219001,None,1548.132098219001,None,6,0,1.5529676579990337,1549.3502819310015,None,1549.3502819310015,None,1549.3502819310015,None,1550.919810493,None,1,0.43394496499968227,1550.919810493,None,144,1551.3702484740006,None,124,B,1,2021_May_27_1324,GazeFlow,2020.1.2,59.82753325549918,
14,Block815.xls,B,15,7,98,2,None,incongruent,Right,Left,Right,35,38,3,blue,2,6,/home/docky/apps/exp/images/35Bi.jpeg,/home/docky/apps/exp/images/38B.jpeg,0,13,13,13,0,6,6,6,1552.3719308510008,None,1552.3719308510008,None,1,2.3389187369994033,1552.3719308510008,None,1554.74474267,None,1554.74474267,None,1557.2472634470014,None,1557.2472634470014,None,1.150586988998839,1559.05062611,None,1559.05062611,None,6,1,1.1856580839994422,1560.1883447960008,None,1560.1883447960008,None,1560.1883447960008,None,1561.3904398550003,None,1,0.4006657890004135,1561.3904398550003,None,146,1561.8073277960011,None,124,B,1,2021_May_27_1324,GazeFlow,2020.1.2,59.82753325549918,
14,Block815.xls,B,15,8,59,59,None,congruent,Left,Left,Right,38,39,1,yellow,2,6,/home/docky/apps/exp/images/38Yi.jpeg,/home/docky/apps/exp/images/39Y.jpeg,0,13,13,13,0,7,7,7,1562.8100098310006,None,1562.8100098310006,None,1,2.405129187998682,1562.8100098310006,None,1565.2489738069999,None,1565.2489738069999,None,1567.7521848720007,None,1567.7521848720007,None,1.1507614920010383,1569.555381915001,None,1569.555381915001,None,6,1,1.4699419219996344,1570.6919655790007,None,1570.6919655790007,None,1570.6919655790007,None,1572.1782969350006,None,1,0.400540667000314,1572.1782969350006,None,148,1572.5954921880002,None,124,B,1,2021_May_27_1324,GazeFlow,2020.1.2,59.82753325549918,
14,Block815.xls,B,,,,,,,,,,,,,,,,,,0,13,13,13,,,,,,,,,,,,,,,,,,,,,,,,,,,,,,,,,,,,,,,,,,,,124,B,1,2021_May_27_1324,GazeFlow,2020.1.2,59.82753325549918,
15,Block807.xls,B,7,1,71,71,None,congruent,Left,Left,Right,79,82,3,yellow,2,6,/home/docky/apps/exp/images/79Y.jpeg,/home/docky/apps/exp/images/80Yi.jpeg,0,14,14,14,0,0,0,0,1593.0539799100006,None,1593.0539799100006,None,1,3.2115902269997605,1593.0539799100006,None,1596.2924150130002,None,1596.2924150130002,None,1598.8128945000008,None,1598.8128945000008,None,0.9160411499997281,1600.6165321090011,None,1600.6165321090011,None,6,1,0.8340822999998636,1601.5197427660005,None,1601.5197427660005,None,1601.5197427660005,None,1602.370431321,None,1,0.3846367050009576,1602.370431321,None,150,1602.7712711050008,None,124,B,1,2021_May_27_1324,GazeFlow,2020.1.2,59.82753325549918,
15,Block807.xls,B,7,2,44,44,None,congruent,Right,Right,Left,83,80,3,blue,2,5,/home/docky/apps/exp/images/83Bi.jpeg,/home/docky/apps/exp/images/80B.jpeg,0,14,14,14,0,1,1,1,1603.7734749270003,None,1603.7734749270003,None,1,2.121428795999236,1603.7734749270003,None,1605.9286312460008,None,1605.9286312460008,None,1608.4364078110011,None,1608.4364078110011,None,1.033812477000538,1610.234977831,None,1610.234977831,None,6,0,1.3693807199997536,1611.2553640700007,None,1611.2553640700007,None,1611.2553640700007,None,1612.641159529001,None,1,0.43479287500122155,1612.641159529001,None,148,1613.0920636970004,None,124,B,1,2021_May_27_1324,GazeFlow,2020.1.2,59.82753325549918,
15,Block807.xls,B,7,3,48,48,None,congruent,Right,Right,Left,39,38,1,blue,2,5,/home/docky/apps/exp/images/39Bi.jpeg,/home/docky/apps/exp/images/38B.jpeg,0,14,14,14,0,2,2,2,1614.0936457400003,None,1614.0936457400003,None,1,2.1049601689992414,1614.0936457400003,None,1616.232234485,None,1616.232234485,None,1618.7357283180008,None,1618.7357283180008,None,1.0670696679990215,1620.538615292,None,1620.538615292,None,5,1,1.336321760998544,1621.592380633001,None,1621.592380633001,None,1621.592380633001,None,1622.9447677340013,None,1,0.4511895720006578,1622.9447677340013,None,150,1623.4124281010008,None,124,B,1,2021_May_27_1324,GazeFlow,2020.1.2,59.82753325549918,
15,Block807.xls,B,7,4,113,17,None,incongruent,Right,Left,Right,72,77,5,yellow,2,6,/home/docky/apps/exp/images/72Yi.jpeg,/home/docky/apps/exp/images/77Y.jpeg,0,14,14,14,0,3,3,3,1624.414040740001,None,1624.414040740001,None,1,2.6394421460008743,1624.414040740001,None,1627.0869405700014,None,1627.0869405700014,None,1629.5919696180008,None,1629.5919696180008,None,1.0501290779993724,1631.392756651001,None,1631.392756651001,None,6,1,0.9679036159996031,1632.430401777001,None,1632.430401777001,None,1632.430401777001,None,1633.4150102370004,None,1,0.38512755800002196,1633.4150102370004,None,152,1633.8161593230016,None,124,B,1,2021_May_27_1324,GazeFlow,2020.1.2,59.82753325549918,
15,Block807.xls,B,7,5,69,69,None,congruent,Left,Left,Right,72,77,5,yellow,2,6,/home/docky/apps/exp/images/72Y.jpeg,/home/docky/apps/exp/images/77Yi.jpeg,0,14,14,14,0,4,4,4,1634.8177347239998,None,1634.8177347239998,None,1,2.4386278780002613,1634.8177347239998,None,1637.2899747690008,None,1637.2899747690008,None,1639.7935786480011,None,1639.7935786480011,None,1.0004704290004156,1641.5988121240007,None,1641.5988121240007,None,6,1,0.8677297899994301,1642.583705553001,None,1642.583705553001,None,1642.583705553001,None,1643.468175420001,None,1,0.35103375899961975,1643.468175420001,None,154,1643.8353819889999,None,124,B,1,2021_May_27_1324,GazeFlow,2020.1.2,59.82753325549918,
15,Block807.xls,B,7,6,39,39,None,congruent,Right,Right,Left,79,76,3,blue,2,5,/home/docky/apps/exp/images/79B.jpeg,/home/docky/apps/exp/images/76Bi.jpeg,0,14,14,14,0,5,5,5,1644.8376305560014,None,1644.8376305560014,None,1,2.6228409619998274,1644.8376305560014,None,1647.4940182760001,None,1647.4940182760001,None,1649.998824966,None,1649.998824966,None,0.9832287160006672,1651.7949646770012,None,1651.7949646770012,None,5,1,0.9181545040009951,1652.7703428550012,None,1652.7703428550012,None,1652.7703428550012,None,1653.7049902460003,None,1,1.286047030998816,1653.7049902460003,None,156,1655.0076887310006,None,124,B,1,2021_May_27_1324,GazeFlow,2020.1.2,59.82753325549918,
15,Block807.xls,B,7,7,50,50,None,congruent,Left,Left,Right,33,35,2,yellow,2,6,/home/docky/apps/exp/images/33Y.jpeg,/home/docky/apps/exp/images/35Yi.jpeg,0,14,14,14,0,6,6,6,1656.009499625001,None,1656.009499625001,None,1,3.090605871999287,1656.009499625001,None,1659.1409136710008,None,1659.1409136710008,None,1661.638381789,None,1661.638381789,None,1.1503904220007826,1663.4397776300011,None,1663.4397776300011,None,6,1,0.8843637929985562,1664.5770393300008,None,1664.5770393300008,None,1664.5770393300008,None,1665.4782251280012,None,1,0.36793984599898977,1665.4782251280012,None,158,1665.8626329530016,None,124,B,1,2021_May_27_1324,GazeFlow,2020.1.2,59.82753325549918,
15,Block807.xls,B,7,8,19,19,None,congruent,Left,Left,Right,76,79,3,blue,2,6,/home/docky/apps/exp/images/76B.jpeg,/home/docky/apps/exp/images/79Bi.jpeg,0,14,14,14,0,7,7,7,1666.8642880570005,None,1666.8642880570005,None,1,2.3219216729994514,1666.8642880570005,None,1669.220305013001,None,1669.220305013001,None,1671.7232064050004,None,1671.7232064050004,None,1.0169689119993564,1673.5268495480013,None,1673.5268495480013,None,6,1,0.8509513669996522,1674.5299674710004,None,1674.5299674710004,None,1674.5299674710004,None,1675.397755975,None,1,0.41777619599997706,1675.397755975,None,160,1675.8319624230007,None,124,B,1,2021_May_27_1324,GazeFlow,2020.1.2,59.82753325549918,
15,Block807.xls,B,,,,,,,,,,,,,,,,,,0,14,14,14,,,,,,,,,,,,,,,,,,,,,,,,,,,,,,,,,,,,,,,,,,,,124,B,1,2021_May_27_1324,GazeFlow,2020.1.2,59.82753325549918,
