Nblock,condsFile,grouping,Block,TrialBlock,N,trialN,trialCond,gazeCon,gazedirR,corrBinR,corrBinP,valLBY,valRBY,diff,colorCube,feedbacktext,corrAns,imageL,imageR,SelBlocks.thisRepN,SelBlocks.thisTrialN,SelBlocks.thisN,SelBlocks.thisIndex,Trials.thisRepN,Trials.thisTrialN,Trials.thisN,Trials.thisIndex,waitCube.started,waitCube.stopped,text_3.started,text_3.stopped,StartKeyPress.keys,StartKeyPress.rt,StartKeyPress.started,StartKeyPress.stopped,StimL.started,StimL.stopped,StimR.started,StimR.stopped,imageStim2L.started,imageStim2L.stopped,imageStim2R.started,imageStim2R.stopped,RTkeyRelease,imageStim3L.started,imageStim3L.stopped,imageStim3R.started,imageStim3R.stopped,dropResp.keys,dropResp.corr,dropResp.rt,dropResp.started,dropResp.stopped,imageStim5L.started,imageStim5L.stopped,imageStim5R.started,imageStim5R.stopped,text_2.started,text_2.stopped,ReturnSpace.keys,ReturnSpace.rt,ReturnSpace.started,ReturnSpace.stopped,totalpoints,textFeedback.started,textFeedback.stopped,participant,group,session,date,expName,psychopyVersion,frameRate,
1,Block502.xls,A,2,1,93,33,22,incongruent,Left,Right,Left,38,35,3,blue,2,5,/home/docky/apps/exp/images/38B.jpeg,/home/docky/apps/exp/images/35Bi.jpeg,0,0,0,0,0,0,0,0,44.6970911540011,None,44.6970911540011,None,1,28.15762284200173,44.6970911540011,None,72.89412313200228,None,72.89412313200228,None,75.40898807299891,None,75.40898807299891,None,1.350457942000503,77.2100718239999,None,77.2100718239999,None,5,1,1.5195391660017776,78.54379829800018,None,78.54379829800018,None,78.54379829800018,None,80.07978999700208,None,1,0.7679669300014211,80.07978999700208,None,2,80.8640679630007,None,125,A,1,2021_May_27_1508,GazeFlow,2020.1.2,59.87680001165658,
1,Block502.xls,A,2,2,42,42,12,congruent,Right,Right,Left,83,80,3,blue,2,5,/home/docky/apps/exp/images/83Bi.jpeg,/home/docky/apps/exp/images/80B.jpeg,0,0,0,0,0,1,1,1,81.86692775600022,None,81.86692775600022,None,1,5.760726514999988,81.86692775600022,None,87.66181764000066,None,87.66181764000066,None,90.16786476100242,None,90.16786476100242,None,1.6179287140002998,91.96846914699927,None,91.96846914699927,None,5,1,1.6691577620003955,93.5725703470016,None,93.5725703470016,None,93.5725703470016,None,95.25825292900117,None,1,0.7022790199989686,95.25825292900117,None,4,95.97676081100144,None,125,A,1,2021_May_27_1508,GazeFlow,2020.1.2,59.87680001165658,
1,Block502.xls,A,2,3,9,9,11,congruent,Left,Left,Right,38,39,1,blue,2,6,/home/docky/apps/exp/images/38Bi.jpeg,/home/docky/apps/exp/images/39B.jpeg,0,0,0,0,0,2,2,2,96.97894872899997,None,96.97894872899997,None,1,5.495247352999286,96.97894872899997,None,102.5078568630015,None,102.5078568630015,None,105.01172828600102,None,105.01172828600102,None,5.158580234998226,106.81346801100153,None,106.81346801100153,None,6,1,1.4033183959982125,111.97357749100047,None,111.97357749100047,None,111.97357749100047,None,113.39340593399902,None,1,0.6681633909975062,113.39340593399902,None,6,114.07795533900207,None,125,A,1,2021_May_27_1508,GazeFlow,2020.1.2,59.87680001165658,
1,Block502.xls,A,2,4,23,23,11,congruent,Left,Left,Right,38,39,1,yellow,2,6,/home/docky/apps/exp/images/38Yi.jpeg,/home/docky/apps/exp/images/39Y.jpeg,0,0,0,0,0,3,3,3,115.08051333299954,None,115.08051333299954,None,1,6.329335897997225,115.08051333299954,None,121.44371554800091,None,121.44371554800091,None,123.95002626100177,None,123.95002626100177,None,2.252687223000976,125.75169106999965,None,125.75169106999965,None,6,1,1.5529318150001927,127.98882788600167,None,127.98882788600167,None,127.98882788600167,None,129.55819449400224,None,1,0.6676417679991573,129.55819449400224,None,8,130.242658354,None,125,A,1,2021_May_27_1508,GazeFlow,2020.1.2,59.87680001165658,
1,Block502.xls,A,2,5,57,57,12,congruent,Right,Right,Left,77,72,5,yellow,2,5,/home/docky/apps/exp/images/77Y.jpeg,/home/docky/apps/exp/images/72Yi.jpeg,0,0,0,0,0,4,4,4,131.24506149100125,None,131.24506149100125,None,1,5.828566119002062,131.24506149100125,None,137.10703492600078,None,137.10703492600078,None,139.61165175000133,None,139.61165175000133,None,1.5344424709983286,141.4081070409993,None,141.4081070409993,None,5,1,1.43554087099983,142.9343793859989,None,142.9343793859989,None,142.9343793859989,None,144.38662355799897,None,1,0.768168065998907,144.38662355799897,None,10,145.17171846900237,None,125,A,1,2021_May_27_1508,GazeFlow,2020.1.2,59.87680001165658,
1,Block502.xls,A,2,6,118,58,22,incongruent,Left,Right,Left,80,79,1,yellow,2,5,/home/docky/apps/exp/images/80Yi.jpeg,/home/docky/apps/exp/images/79Y.jpeg,0,0,0,0,0,5,5,5,146.17383248999977,None,146.17383248999977,None,1,6.245638762000453,146.17383248999977,None,152.45326889599892,None,152.45326889599892,None,154.95769513300183,None,154.95769513300183,None,7.195752937001089,156.75994862100197,None,156.75994862100197,None,5,1,1.235922120999021,163.95743158000187,None,163.95743158000187,None,163.95743158000187,None,165.21014727700094,None,1,0.7185694100007822,165.21014727700094,None,12,165.94516149799892,None,125,A,1,2021_May_27_1508,GazeFlow,2020.1.2,59.87680001165658,
1,Block502.xls,A,2,7,101,41,22,incongruent,Left,Right,Left,83,80,3,blue,2,5,/home/docky/apps/exp/images/83Bi.jpeg,/home/docky/apps/exp/images/80B.jpeg,0,0,0,0,0,6,6,6,166.9472492060013,None,166.9472492060013,None,1,6.629668785000831,166.9472492060013,None,173.6119100470023,None,173.6119100470023,None,176.11391758900209,None,176.11391758900209,None,1.8518284579986357,177.91882921700017,None,177.91882921700017,None,5,1,1.4856661119993078,179.75542816400048,None,179.75542816400048,None,179.75542816400048,None,181.25751519199912,None,1,0.7351638870022725,181.25751519199912,None,14,182.00902245100224,None,125,A,1,2021_May_27_1508,GazeFlow,2020.1.2,59.87680001165658,
1,Block502.xls,A,2,8,69,9,21,incongruent,Right,Left,Right,73,76,3,blue,2,6,/home/docky/apps/exp/images/73B.jpeg,/home/docky/apps/exp/images/76Bi.jpeg,0,0,0,0,0,7,7,7,183.01130775899946,None,183.01130775899946,None,1,5.727998798000044,183.01130775899946,None,188.7732547630003,None,188.7732547630003,None,191.27779064800052,None,191.27779064800052,None,2.3364143379985762,193.07969044200217,None,193.07969044200217,None,6,1,2.4379822179980692,195.41905394700007,None,195.41905394700007,None,195.41905394700007,None,197.87352224400092,None,1,0.7686899279979116,197.87352224400092,None,16,198.6581480800014,None,125,A,1,2021_May_27_1508,GazeFlow,2020.1.2,59.87680001165658,
1,Block502.xls,A,,,,,,,,,,,,,,,,,,0,0,0,0,,,,,,,,,,,,,,,,,,,,,,,,,,,,,,,,,,,,,,,,,,,,125,A,1,2021_May_27_1508,GazeFlow,2020.1.2,59.87680001165658,
2,Block506.xls,A,6,1,120,60,22,incongruent,Left,Right,Left,80,79,1,yellow,2,5,/home/docky/apps/exp/images/80Yi.jpeg,/home/docky/apps/exp/images/79Y.jpeg,0,1,1,1,0,0,0,0,215.9599081990018,None,215.9599081990018,None,1,7.551739741000347,215.9599081990018,None,223.54657689300075,None,223.54657689300075,None,226.06201692600007,None,226.06201692600007,None,2.202054387998942,227.8653694429995,None,227.8653694429995,None,5,1,1.686413518000336,230.05231430099957,None,230.05231430099957,None,230.05231430099957,None,231.7550313790016,None,1,0.6853728409987525,231.7550313790016,None,18,232.45663618600156,None,125,A,1,2021_May_27_1508,GazeFlow,2020.1.2,59.87680001165658,
2,Block506.xls,A,6,2,51,51,12,congruent,Right,Right,Left,66,65,1,yellow,2,5,/home/docky/apps/exp/images/66Y.jpeg,/home/docky/apps/exp/images/35Bi.jpeg,0,1,1,1,0,1,1,1,233.45895241900143,None,233.45895241900143,None,1,5.4440082459987025,233.45895241900143,None,238.9366994100019,None,238.9366994100019,None,241.439819782001,None,241.439819782001,None,4.540846932999557,243.2383593150007,None,243.2383593150007,None,6,0,1.6686954910001077,247.78724898899964,None,247.78724898899964,None,247.78724898899964,None,249.47286065500157,None,1,0.6514363340029377,249.47286065500157,None,16,250.14085836099912,None,125,A,1,2021_May_27_1508,GazeFlow,2020.1.2,59.87680001165658,
2,Block506.xls,A,6,3,119,59,22,incongruent,Left,Right,Left,80,79,1,yellow,2,5,/home/docky/apps/exp/images/80Y.jpeg,/home/docky/apps/exp/images/79Yi.jpeg,0,1,1,1,0,2,2,2,251.14304362999974,None,251.14304362999974,None,1,7.765255983998941,251.14304362999974,None,258.94200283300233,None,258.94200283300233,None,261.44677020400195,None,261.44677020400195,None,2.4870532589993672,263.242821445001,None,263.242821445001,None,5,1,3.840016784000909,265.7391949970006,None,265.7391949970006,None,265.7391949970006,None,269.5953210840016,None,1,0.7015240119981172,269.5953210840016,None,18,270.3135043789989,None,125,A,1,2021_May_27_1508,GazeFlow,2020.1.2,59.87680001165658,
2,Block506.xls,A,6,4,28,28,11,congruent,Left,Left,Right,72,77,5,yellow,2,6,/home/docky/apps/exp/images/72Y.jpeg,/home/docky/apps/exp/images/77Yi.jpeg,0,1,1,1,0,3,3,3,271.3153984470009,None,271.3153984470009,None,1,6.546651702999952,271.3153984470009,None,277.8953003070019,None,277.8953003070019,None,280.3984174819998,None,280.3984174819998,None,1.8349270549988432,282.2015658090022,None,282.2015658090022,None,6,1,1.268708012998104,284.0234195609992,None,284.0234195609992,None,284.0234195609992,None,285.308656145,None,1,0.6182817230001092,285.308656145,None,20,285.94318103299884,None,125,A,1,2021_May_27_1508,GazeFlow,2020.1.2,59.87680001165658,
2,Block506.xls,A,6,5,85,25,21,incongruent,Right,Left,Right,69,75,6,yellow,2,6,/home/docky/apps/exp/images/69Y.jpeg,/home/docky/apps/exp/images/76Yi.jpeg,0,1,1,1,0,4,4,4,286.9454823320011,None,286.9454823320011,None,1,4.625966885996604,286.9454823320011,None,291.60530375800226,None,291.60530375800226,None,294.1086520030003,None,294.1086520030003,None,1.2674862009989738,295.9117979570001,None,295.9117979570001,None,6,1,1.1695176749999519,297.165338392002,None,297.165338392002,None,297.165338392002,None,298.3508502650002,None,1,0.5339917240016803,298.3508502650002,None,22,298.901530815001,None,125,A,1,2021_May_27_1508,GazeFlow,2020.1.2,59.87680001165658,
2,Block506.xls,A,6,6,71,11,21,incongruent,Right,Left,Right,76,79,3,blue,2,6,/home/docky/apps/exp/images/76B.jpeg,/home/docky/apps/exp/images/79Bi.jpeg,0,1,1,1,0,5,5,5,299.90346142400085,None,299.90346142400085,None,1,4.309326091002731,299.90346142400085,None,304.2461898210022,None,304.2461898210022,None,306.74942022600226,None,306.74942022600226,None,2.1021948070010694,308.55285209700014,None,308.55285209700014,None,6,1,1.385817379999935,310.6413442720004,None,310.6413442720004,None,310.6413442720004,None,312.0436588320008,None,1,0.5009197129984386,312.0436588320008,None,24,312.56119640199904,None,125,A,1,2021_May_27_1508,GazeFlow,2020.1.2,59.87680001165658,
2,Block506.xls,A,6,7,56,56,12,congruent,Right,Right,Left,76,69,7,yellow,2,5,/home/docky/apps/exp/images/76Yi.jpeg,/home/docky/apps/exp/images/69Y.jpeg,0,1,1,1,0,6,6,6,313.56355324000106,None,313.56355324000106,None,1,5.361244432999229,313.56355324000106,None,318.9586897629997,None,318.9586897629997,None,321.4629041900007,None,321.4629041900007,None,1.5345275959989522,323.26000741200187,None,323.26000741200187,None,5,1,1.6359182670021255,324.78566698899886,None,324.78566698899886,None,324.78566698899886,None,326.4377647520014,None,1,0.6016550540007302,326.4377647520014,None,26,327.05582147899986,None,125,A,1,2021_May_27_1508,GazeFlow,2020.1.2,59.87680001165658,
2,Block506.xls,A,6,8,33,33,12,congruent,Right,Right,Left,38,35,3,blue,2,5,/home/docky/apps/exp/images/38B.jpeg,/home/docky/apps/exp/images/35Bi.jpeg,0,1,1,1,0,7,7,7,328.0596462470021,None,328.0596462470021,None,1,5.359286390001216,328.0596462470021,None,333.4528083389996,None,333.4528083389996,None,335.9556899670024,None,335.9556899670024,None,1.2004399120014568,337.7590397189997,None,337.7590397189997,None,5,1,1.18573393999759,338.9461574570014,None,338.9461574570014,None,338.9461574570014,None,340.14850507600204,None,1,0.501413779998984,340.14850507600204,None,28,340.66609754800083,None,125,A,1,2021_May_27_1508,GazeFlow,2020.1.2,59.87680001165658,
2,Block506.xls,A,,,,,,,,,,,,,,,,,,0,1,1,1,,,,,,,,,,,,,,,,,,,,,,,,,,,,,,,,,,,,,,,,,,,,125,A,1,2021_May_27_1508,GazeFlow,2020.1.2,59.87680001165658,
3,Block505.xls,A,5,1,1,1,11,congruent,Left,Left,Right,16,19,3,blue,2,6,/home/docky/apps/exp/images/16Bi.jpeg,/home/docky/apps/exp/images/19B.jpeg,0,2,2,2,0,0,0,0,359.21977254500234,None,359.21977254500234,None,1,5.937419462999969,359.21977254500234,None,365.1807167750012,None,365.1807167750012,None,367.7022643420023,None,367.7022643420023,None,1.7007924480021757,369.50415324999994,None,369.50415324999994,None,6,1,1.3018198400022811,371.1919871829996,None,371.1919871829996,None,371.1919871829996,None,372.5103598909991,None,1,0.6016500949990586,372.5103598909991,None,30,373.1282699229996,None,125,A,1,2021_May_27_1508,GazeFlow,2020.1.2,59.87680001165658,
3,Block505.xls,A,5,2,10,10,11,congruent,Left,Left,Right,73,76,3,blue,2,6,/home/docky/apps/exp/images/73B.jpeg,/home/docky/apps/exp/images/76Bi.jpeg,0,2,2,2,0,1,1,1,374.13016641300055,None,374.13016641300055,None,1,11.156238690000464,374.13016641300055,None,385.3195907920017,None,385.3195907920017,None,387.8245906129996,None,387.8245906129996,None,1.283704420999129,389.628128974,None,389.628128974,None,6,1,1.3023308970005019,390.89670936699986,None,390.89670936699986,None,390.89670936699986,None,392.21570768699894,None,1,0.46706631499910145,392.21570768699894,None,32,392.699569892,None,125,A,1,2021_May_27_1508,GazeFlow,2020.1.2,59.87680001165658,
3,Block505.xls,A,5,3,95,35,22,incongruent,Left,Right,Left,66,65,1,blue,2,5,/home/docky/apps/exp/images/66B.jpeg,/home/docky/apps/exp/images/35Yi.jpeg,0,2,2,2,0,2,2,2,393.70143499700134,None,393.70143499700134,None,1,5.34485696900083,393.70143499700134,None,399.07978826199906,None,399.07978826199906,None,401.58437639399926,None,401.58437639399926,None,2.4030903009988833,403.38184777100105,None,403.38184777100105,None,6,0,1.902863848998095,405.7761498590007,None,405.7761498590007,None,405.7761498590007,None,407.6951255130007,None,1,0.5187582279977505,407.6951255130007,None,30,408.2300024940014,None,125,A,1,2021_May_27_1508,GazeFlow,2020.1.2,59.87680001165658,
3,Block505.xls,A,5,4,46,46,12,congruent,Right,Right,Left,35,33,2,yellow,2,5,/home/docky/apps/exp/images/35Yi.jpeg,/home/docky/apps/exp/images/33Y.jpeg,0,2,2,2,0,3,3,3,409.23203385300076,None,409.23203385300076,None,1,7.815908185999433,409.23203385300076,None,417.0812364170015,None,417.0812364170015,None,419.5861730510005,None,419.5861730510005,None,1.7018512000031478,421.3824725890008,None,421.3824725890008,None,5,1,1.2352756379987113,423.0755945380006,None,423.0755945380006,None,423.0755945380006,None,424.327308922002,None,1,0.6344168269970396,424.327308922002,None,32,424.97874803599916,None,125,A,1,2021_May_27_1508,GazeFlow,2020.1.2,59.87680001165658,
3,Block505.xls,A,5,5,78,18,21,incongruent,Right,Left,Right,65,66,1,yellow,2,6,/home/docky/apps/exp/images/35Bi.jpeg,/home/docky/apps/exp/images/66Y.jpeg,0,2,2,2,0,4,4,4,425.9810069790001,None,425.9810069790001,None,1,11.305980376000662,425.9810069790001,None,437.3204757200001,None,437.3204757200001,None,439.8251361010007,None,439.8251361010007,None,7.863566674001049,441.6267736410009,None,441.6267736410009,None,5,0,1.2352215769969916,449.49356709399945,None,449.49356709399945,None,449.49356709399945,None,450.7454725790012,None,1,0.6016480449980008,450.7454725790012,None,30,451.362981221002,None,125,A,1,2021_May_27_1508,GazeFlow,2020.1.2,59.87680001165658,
3,Block505.xls,A,5,6,43,43,12,congruent,Right,Right,Left,83,80,3,blue,2,5,/home/docky/apps/exp/images/83B.jpeg,/home/docky/apps/exp/images/80Bi.jpeg,0,2,2,2,0,5,5,5,452.3654736360004,None,452.3654736360004,None,1,8.316779675998987,452.3654736360004,None,460.71614438300094,None,460.71614438300094,None,463.2184405730004,None,463.2184405730004,None,1.3675843050004914,465.0225142670024,None,465.0225142670024,None,5,1,1.2016827859988553,466.3761299960024,None,466.3761299960024,None,466.3761299960024,None,467.5941924760009,None,1,0.51799617800134,467.5941924760009,None,32,468.12890975900154,None,125,A,1,2021_May_27_1508,GazeFlow,2020.1.2,59.87680001165658,
3,Block505.xls,A,5,7,44,44,12,congruent,Right,Right,Left,39,38,1,blue,2,5,/home/docky/apps/exp/images/39Bi.jpeg,/home/docky/apps/exp/images/38B.jpeg,0,2,2,2,0,6,6,6,469.13073493499905,None,469.13073493499905,None,1,7.3149585600003775,469.13073493499905,None,476.48096027800057,None,476.48096027800057,None,478.98234715700164,None,478.98234715700164,None,2.369751723999798,480.7858196310008,None,480.7858196310008,None,5,1,1.5019285559974378,483.1424392100016,None,483.1424392100016,None,483.1424392100016,None,484.66081174400097,None,1,0.6184043100001873,484.66081174400097,None,34,485.2956721160008,None,125,A,1,2021_May_27_1508,GazeFlow,2020.1.2,59.87680001165658,
3,Block505.xls,A,5,8,116,56,22,incongruent,Left,Right,Left,77,72,5,yellow,2,5,/home/docky/apps/exp/images/77Y.jpeg,/home/docky/apps/exp/images/72Y.jpeg,0,2,2,2,0,7,7,7,486.29791682799987,None,486.29791682799987,None,1,5.360497261001001,486.29791682799987,None,491.69235146400024,None,491.69235146400024,None,494.1952390639999,None,494.1952390639999,None,1.20047451299979,495.9987266850003,None,495.9987266850003,None,5,1,1.452577244999702,497.18576523700176,None,497.18576523700176,None,497.18576523700176,None,498.654586593002,None,1,0.818341624999448,498.654586593002,None,36,499.4897119929992,None,125,A,1,2021_May_27_1508,GazeFlow,2020.1.2,59.87680001165658,
3,Block505.xls,A,,,,,,,,,,,,,,,,,,0,2,2,2,,,,,,,,,,,,,,,,,,,,,,,,,,,,,,,,,,,,,,,,,,,,125,A,1,2021_May_27_1508,GazeFlow,2020.1.2,59.87680001165658,
4,Block509.xls,A,9,1,34,34,12,congruent,Right,Right,Left,38,35,3,blue,2,5,/home/docky/apps/exp/images/38Bi.jpeg,/home/docky/apps/exp/images/35B.jpeg,0,3,3,3,0,0,0,0,533.0388683210003,None,533.0388683210003,None,1,6.335257148002711,533.0388683210003,None,539.3989237499991,None,539.3989237499991,None,541.9228042819996,None,541.9228042819996,None,1.867300437999802,543.7264697680002,None,543.7264697680002,None,5,1,1.5858107579988427,545.5796049580022,None,545.5796049580022,None,545.5796049580022,None,547.1821375030013,None,1,0.5346283649996622,547.1821375030013,None,38,547.7334173300005,None,125,A,1,2021_May_27_1508,GazeFlow,2020.1.2,59.87680001165658,
4,Block509.xls,A,9,2,7,7,11,congruent,Left,Left,Right,65,66,1,blue,2,6,/home/docky/apps/exp/images/35Yi.jpeg,/home/docky/apps/exp/images/66B.jpeg,0,3,3,3,0,1,1,1,548.7354497560009,None,548.7354497560009,None,1,7.816008524998324,548.7354497560009,None,556.584697172002,None,556.584697172002,None,559.0879405779997,None,559.0879405779997,None,1.5514421590014535,560.8911477830006,None,560.8911477830006,None,6,1,1.4688487739986158,562.4287628120001,None,562.4287628120001,None,562.4287628120001,None,563.9144633809992,None,1,0.5510794429974339,563.9144633809992,None,40,564.4820678590004,None,125,A,1,2021_May_27_1508,GazeFlow,2020.1.2,59.87680001165658,
4,Block509.xls,A,9,3,74,14,21,incongruent,Right,Left,Right,80,83,3,blue,2,6,/home/docky/apps/exp/images/80B.jpeg,/home/docky/apps/exp/images/83Bi.jpeg,0,3,3,3,0,2,2,2,565.484057796999,None,565.484057796999,None,1,5.995704870998452,565.484057796999,None,571.5139290709994,None,571.5139290709994,None,574.0165556920001,None,574.0165556920001,None,1.100120708997565,575.8197681339989,None,575.8197681339989,None,6,1,1.4029611850019137,576.9068129770021,None,576.9068129770021,None,576.9068129770021,None,578.3260814189998,None,1,0.5173428630005219,578.3260814189998,None,42,578.8600211910016,None,125,A,1,2021_May_27_1508,GazeFlow,2020.1.2,59.87680001165658,
4,Block509.xls,A,9,4,19,19,11,congruent,Left,Left,Right,65,66,1,yellow,2,6,/home/docky/apps/exp/images/35Bi.jpeg,/home/docky/apps/exp/images/66Y.jpeg,0,3,3,3,0,3,3,3,579.8620325270022,None,579.8620325270022,None,1,6.763801246001094,579.8620325270022,None,586.6594530080001,None,586.6594530080001,None,589.1646848300006,None,589.1646848300006,None,1.1002180010000302,590.9665360450017,None,590.9665360450017,None,6,1,1.2519635370008473,592.0527808920015,None,592.0527808920015,None,592.0527808920015,None,593.3218544720003,None,1,0.5176732090003497,593.3218544720003,None,44,593.8561006560012,None,125,A,1,2021_May_27_1508,GazeFlow,2020.1.2,59.87680001165658,
4,Block509.xls,A,9,5,60,60,12,congruent,Right,Right,Left,80,79,1,yellow,2,5,/home/docky/apps/exp/images/80Yi.jpeg,/home/docky/apps/exp/images/79Y.jpeg,0,3,3,3,0,4,4,4,594.8577250449998,None,594.8577250449998,None,1,5.611554008999519,594.8577250449998,None,600.5030359170014,None,600.5030359170014,None,603.0063498550007,None,603.0063498550007,None,2.5704299680000986,604.8098229790012,None,604.8098229790012,None,5,1,1.654026017000433,607.3816819080021,None,607.3816819080021,None,607.3816819080021,None,609.0520943650008,None,1,0.5343550809993758,609.0520943650008,None,46,609.6030369,None,125,A,1,2021_May_27_1508,GazeFlow,2020.1.2,59.87680001165658,
4,Block509.xls,A,9,6,83,23,21,incongruent,Right,Left,Right,38,39,1,yellow,2,6,/home/docky/apps/exp/images/38Yi.jpeg,/home/docky/apps/exp/images/39Y.jpeg,0,3,3,3,0,5,5,5,610.6054258340009,None,610.6054258340009,None,1,6.596390413000336,610.6054258340009,None,617.233838821001,None,617.233838821001,None,619.740209243002,None,619.740209243002,None,1.267239384997083,621.5420254010023,None,621.5420254010023,None,5,0,1.3358368820008764,622.7956289260001,None,622.7956289260001,None,622.7956289260001,None,624.1485624150009,None,1,0.4671837090027111,624.1485624150009,None,44,624.6321595150002,None,125,A,1,2021_May_27_1508,GazeFlow,2020.1.2,59.87680001165658,
4,Block509.xls,A,9,7,4,4,11,congruent,Left,Left,Right,35,38,3,blue,2,6,/home/docky/apps/exp/images/35B.jpeg,/home/docky/apps/exp/images/38Bi.jpeg,0,3,3,3,0,6,6,6,625.6342358440015,None,625.6342358440015,None,1,8.951712431000487,625.6342358440015,None,634.6188515520007,None,634.6188515520007,None,637.1237970020011,None,637.1237970020011,None,1.1336321749986382,638.9260400470012,None,638.9260400470012,None,6,1,1.385923283000011,640.0458411670006,None,640.0458411670006,None,640.0458411670006,None,641.4484447550021,None,1,0.5006806710007368,641.4484447550021,None,46,641.9655156260014,None,125,A,1,2021_May_27_1508,GazeFlow,2020.1.2,59.87680001165658,
4,Block509.xls,A,9,8,24,24,11,congruent,Left,Left,Right,38,39,1,yellow,2,6,/home/docky/apps/exp/images/38Y.jpeg,/home/docky/apps/exp/images/39Yi.jpeg,0,3,3,3,0,7,7,7,642.9678947550019,None,642.9678947550019,None,1,5.878357182002219,642.9678947550019,None,648.8802701570021,None,648.8802701570021,None,651.3830060229993,None,651.3830060229993,None,9.951589288000832,653.1883766239989,None,653.1883766239989,None,6,1,1.8024051840002357,663.1414389359998,None,663.1414389359998,None,663.1414389359998,None,664.9601533550012,None,1,0.4177678490013932,664.9601533550012,None,48,665.3950900810014,None,125,A,1,2021_May_27_1508,GazeFlow,2020.1.2,59.87680001165658,
4,Block509.xls,A,,,,,,,,,,,,,,,,,,0,3,3,3,,,,,,,,,,,,,,,,,,,,,,,,,,,,,,,,,,,,,,,,,,,,125,A,1,2021_May_27_1508,GazeFlow,2020.1.2,59.87680001165658,
5,Block504.xls,A,4,1,11,11,11,congruent,Left,Left,Right,73,76,3,blue,2,6,/home/docky/apps/exp/images/73Bi.jpeg,/home/docky/apps/exp/images/76B.jpeg,0,4,4,4,0,0,0,0,687.2380355419991,None,687.2380355419991,None,1,6.5515081960002135,687.2380355419991,None,693.8156324250012,None,693.8156324250012,None,696.3371770750018,None,696.3371770750018,None,1.6839640469988808,698.1406575069996,None,698.1406575069996,None,6,1,2.0871352510002907,699.811690606999,None,699.811690606999,None,699.811690606999,None,701.9154506760024,None,1,0.6677519689983455,701.9154506760024,None,50,702.599916940002,None,125,A,1,2021_May_27_1508,GazeFlow,2020.1.2,59.87680001165658,
5,Block504.xls,A,4,2,87,27,21,incongruent,Right,Left,Right,72,77,5,yellow,2,6,/home/docky/apps/exp/images/72Y.jpeg,/home/docky/apps/exp/images/77Yi.jpeg,0,4,4,4,0,1,1,1,703.6023703259998,None,703.6023703259998,None,1,5.727956255002937,703.6023703259998,None,709.3642468030012,None,709.3642468030012,None,711.8675725130015,None,711.8675725130015,None,1.7681257639997057,713.6706569779999,None,713.6706569779999,None,6,1,2.1369273889977194,715.425467686,None,715.425467686,None,715.425467686,None,717.5789435459992,None,1,1.0027342289977241,717.5789435459992,None,52,718.5980643430012,None,125,A,1,2021_May_27_1508,GazeFlow,2020.1.2,59.87680001165658,
5,Block504.xls,A,4,3,48,48,12,congruent,Right,Right,Left,39,38,1,yellow,2,5,/home/docky/apps/exp/images/39Yi.jpeg,/home/docky/apps/exp/images/38Y.jpeg,0,4,4,4,0,2,2,2,719.5998920560014,None,719.5998920560014,None,1,6.630361705003452,719.5998920560014,None,726.2636748730001,None,726.2636748730001,None,728.7678511400009,None,728.7678511400009,None,1.517872776999866,730.5703047530005,None,730.5703047530005,None,6,0,1.3529114720004145,732.0742371900014,None,732.0742371900014,None,732.0742371900014,None,733.4435560450002,None,1,0.5009017609991133,733.4435560450002,None,50,733.9606996110015,None,125,A,1,2021_May_27_1508,GazeFlow,2020.1.2,59.87680001165658,
5,Block504.xls,A,4,4,38,38,12,congruent,Right,Right,Left,79,73,6,blue,2,5,/home/docky/apps/exp/images/79B.jpeg,/home/docky/apps/exp/images/73Bi.jpeg,0,4,4,4,0,3,3,3,734.9626730010023,None,734.9626730010023,None,1,6.279560522001702,734.9626730010023,None,741.2762541789998,None,741.2762541789998,None,743.7792730690016,None,743.7792730690016,None,0.983713000001444,745.5822601190011,None,745.5822601190011,None,5,1,5.0604004569977405,746.5524069060011,None,746.5524069060011,None,746.5524069060011,None,751.628710121,None,1,0.8857166960005998,751.628710121,None,52,752.5305931770017,None,125,A,1,2021_May_27_1508,GazeFlow,2020.1.2,59.87680001165658,
5,Block504.xls,A,4,5,2,2,11,congruent,Left,Left,Right,16,19,3,blue,2,6,/home/docky/apps/exp/images/16B.jpeg,/home/docky/apps/exp/images/19Bi.jpeg,0,4,4,4,0,4,4,4,753.5324336230005,None,753.5324336230005,None,1,6.312502819000656,753.5324336230005,None,759.8787806340006,None,759.8787806340006,None,762.3837082730024,None,762.3837082730024,None,1.2338911879996886,764.1855142310014,None,764.1855142310014,None,6,1,1.2030388679995667,765.405691832002,None,765.405691832002,None,765.405691832002,None,766.6244674430018,None,1,0.6341656349977711,766.6244674430018,None,54,767.2752454540023,None,125,A,1,2021_May_27_1508,GazeFlow,2020.1.2,59.87680001165658,
5,Block504.xls,A,4,6,73,13,21,incongruent,Right,Left,Right,80,83,3,blue,2,6,/home/docky/apps/exp/images/80Bi.jpeg,/home/docky/apps/exp/images/83B.jpeg,0,4,4,4,0,5,5,5,768.277696985002,None,768.277696985002,None,1,5.02726384700145,768.277696985002,None,773.3427748159993,None,773.3427748159993,None,775.840653072999,None,775.840653072999,None,1.167251581002347,777.6444489349997,None,777.6444489349997,None,6,1,1.2358821599991643,778.7983160850017,None,778.7983160850017,None,778.7983160850017,None,780.0506755630013,None,1,0.4680635850018007,780.0506755630013,None,56,780.5349368630013,None,125,A,1,2021_May_27_1508,GazeFlow,2020.1.2,59.87680001165658,
5,Block504.xls,A,4,7,63,3,21,incongruent,Right,Left,Right,35,38,3,blue,2,6,/home/docky/apps/exp/images/35B.jpeg,/home/docky/apps/exp/images/38Bi.jpeg,0,4,4,4,0,6,6,6,781.5365307249995,None,781.5365307249995,None,1,6.362916755999322,781.5365307249995,None,787.9330535580011,None,787.9330535580011,None,790.4380342020013,None,790.4380342020013,None,1.150492321998172,792.2340585320017,None,792.2340585320017,None,6,1,1.3362397060009243,793.3766435319994,None,793.3766435319994,None,793.3766435319994,None,794.7291270940004,None,1,0.5173277809990395,794.7291270940004,None,58,795.2629372240008,None,125,A,1,2021_May_27_1508,GazeFlow,2020.1.2,59.87680001165658,
5,Block504.xls,A,4,8,86,26,21,incongruent,Right,Left,Right,72,77,5,yellow,2,6,/home/docky/apps/exp/images/72Yi.jpeg,/home/docky/apps/exp/images/77Y.jpeg,0,4,4,4,0,7,7,7,796.2650655239995,None,796.2650655239995,None,1,5.277549064001505,796.2650655239995,None,801.5764362379996,None,801.5764362379996,None,804.0798345200019,None,804.0798345200019,None,1.0508494230016368,805.8823538809993,None,805.8823538809993,None,6,1,1.151581845999317,806.9196581159995,None,806.9196581159995,None,806.9196581159995,None,808.0879177390016,None,1,0.968636906996835,808.0879177390016,None,60,809.0732642990006,None,125,A,1,2021_May_27_1508,GazeFlow,2020.1.2,59.87680001165658,
5,Block504.xls,A,,,,,,,,,,,,,,,,,,0,4,4,4,,,,,,,,,,,,,,,,,,,,,,,,,,,,,,,,,,,,,,,,,,,,125,A,1,2021_May_27_1508,GazeFlow,2020.1.2,59.87680001165658,
6,Block511.xls,A,11,1,15,15,11,congruent,Left,Left,Right,80,83,3,blue,2,6,/home/docky/apps/exp/images/80Bi.jpeg,/home/docky/apps/exp/images/83B.jpeg,0,5,5,5,0,0,0,0,828.7136310120004,None,828.7136310120004,None,1,4.729529530999571,828.7136310120004,None,833.4699974020004,None,833.4699974020004,None,835.9915458569994,None,835.9915458569994,None,1.1160719899999094,837.7941785280018,None,837.7941785280018,None,6,1,1.3856123789992125,838.8981834430015,None,838.8981834430015,None,838.8981834430015,None,840.3003531460017,None,1,0.5009014360002766,840.3003531460017,None,62,840.8179978410008,None,125,A,1,2021_May_27_1508,GazeFlow,2020.1.2,59.87680001165658,
6,Block511.xls,A,11,2,105,45,22,incongruent,Left,Right,Left,39,38,1,blue,2,5,/home/docky/apps/exp/images/39Bi.jpeg,/home/docky/apps/exp/images/38B.jpeg,0,5,5,5,0,1,1,1,841.8198795489989,None,841.8198795489989,None,1,5.395147884002654,841.8198795489989,None,847.2484040990021,None,847.2484040990021,None,849.7507171830002,None,849.7507171830002,None,1.450960871999996,851.5550009030012,None,851.5550009030012,None,5,1,1.4363523869978962,852.9925371940008,None,852.9925371940008,None,852.9925371940008,None,854.4449807849996,None,1,0.5507715739986452,854.4449807849996,None,64,855.0122523120008,None,125,A,1,2021_May_27_1508,GazeFlow,2020.1.2,59.87680001165658,
6,Block511.xls,A,11,3,68,8,21,incongruent,Right,Left,Right,38,39,1,blue,2,6,/home/docky/apps/exp/images/38B.jpeg,/home/docky/apps/exp/images/39Bi.jpeg,0,5,5,5,0,2,2,2,856.0144079890015,None,856.0144079890015,None,1,7.081075851001515,856.0144079890015,None,863.1292550969993,None,863.1292550969993,None,865.6326314530015,None,865.6326314530015,None,1.7684361149986216,867.4334387929994,None,867.4334387929994,None,6,1,1.2687484519992722,869.1906007260004,None,869.1906007260004,None,869.1906007260004,None,870.4757103439988,None,1,0.5179189650007174,870.4757103439988,None,66,871.0098850230024,None,125,A,1,2021_May_27_1508,GazeFlow,2020.1.2,59.87680001165658,
6,Block511.xls,A,11,4,80,20,21,incongruent,Right,Left,Right,62,65,3,yellow,2,6,/home/docky/apps/exp/images/38Bi.jpeg,/home/docky/apps/exp/images/35B.jpeg,0,5,5,5,0,3,3,3,872.0125273630001,None,872.0125273630001,None,1,6.813900187997206,872.0125273630001,None,878.8596966719997,None,878.8596966719997,None,881.3623811770012,None,881.3623811770012,None,1.8520166009984678,883.1654163769999,None,883.1654163769999,None,6,1,1.1351167149987305,885.0045313850023,None,885.0045313850023,None,885.0045313850023,None,886.1559733909999,None,1,0.5346374389991979,886.1559733909999,None,68,886.707038515,None,125,A,1,2021_May_27_1508,GazeFlow,2020.1.2,59.87680001165658,
6,Block511.xls,A,11,5,5,5,11,congruent,Left,Left,Right,65,66,1,blue,2,6,/home/docky/apps/exp/images/35Yi.jpeg,/home/docky/apps/exp/images/66B.jpeg,0,5,5,5,0,4,4,4,887.7097003650015,None,887.7097003650015,None,1,4.625806307998573,887.7097003650015,None,892.3700490379997,None,892.3700490379997,None,894.8764532000023,None,894.8764532000023,None,1.8351247030004743,896.675886129,None,896.675886129,None,5,0,1.552478196001175,898.4973161630005,None,898.4973161630005,None,898.4973161630005,None,900.066530463002,None,1,0.5010622769987094,900.066530463002,None,66,900.5840300220007,None,125,A,1,2021_May_27_1508,GazeFlow,2020.1.2,59.87680001165658,
6,Block511.xls,A,11,6,18,18,11,congruent,Left,Left,Right,65,66,1,yellow,2,6,/home/docky/apps/exp/images/35B.jpeg,/home/docky/apps/exp/images/66Yi.jpeg,0,5,5,5,0,5,5,5,901.5866168899993,None,901.5866168899993,None,1,5.761738798999431,901.5866168899993,None,907.3816661019991,None,907.3816661019991,None,909.886169043999,None,909.886169043999,None,0.9835967540020647,911.6885256589994,None,911.6885256589994,None,6,1,1.1516267609986244,912.6581959870018,None,912.6581959870018,None,912.6581959870018,None,913.8267233709994,None,1,0.5515613110001141,913.8267233709994,None,68,914.3947231919992,None,125,A,1,2021_May_27_1508,GazeFlow,2020.1.2,59.87680001165658,
6,Block511.xls,A,11,7,25,25,11,congruent,Left,Left,Right,69,75,6,yellow,2,6,/home/docky/apps/exp/images/69Yi.jpeg,/home/docky/apps/exp/images/76Y.jpeg,0,5,5,5,0,6,6,6,915.3965178639992,None,915.3965178639992,None,1,6.095879825999873,915.3965178639992,None,921.5257844510015,None,921.5257844510015,None,924.0288210910003,None,924.0288210910003,None,1.0169767919978767,925.8319489019996,None,925.8319489019996,None,6,1,1.1183285110018915,926.8356794460014,None,926.8356794460014,None,926.8356794460014,None,927.9706717410008,None,1,0.4516239280019363,927.9706717410008,None,70,928.4386626900014,None,125,A,1,2021_May_27_1508,GazeFlow,2020.1.2,59.87680001165658,
6,Block511.xls,A,11,8,3,3,11,congruent,Left,Left,Right,35,38,3,blue,2,6,/home/docky/apps/exp/images/35Bi.jpeg,/home/docky/apps/exp/images/38B.jpeg,0,5,5,5,0,7,7,7,929.4400314570012,None,929.4400314570012,None,1,4.025338340001326,929.4400314570012,None,933.4995306400015,None,933.4995306400015,None,936.002069582999,None,936.002069582999,None,0.9500908220034034,937.8056095550019,None,937.8056095550019,None,6,1,1.0514646119991085,938.7420325439998,None,938.7420325439998,None,938.7420325439998,None,939.8100361479992,None,1,0.3853457770019304,939.8100361479992,None,72,940.211445424,None,125,A,1,2021_May_27_1508,GazeFlow,2020.1.2,59.87680001165658,
6,Block511.xls,A,,,,,,,,,,,,,,,,,,0,5,5,5,,,,,,,,,,,,,,,,,,,,,,,,,,,,,,,,,,,,,,,,,,,,125,A,1,2021_May_27_1508,GazeFlow,2020.1.2,59.87680001165658,
7,Block508.xls,A,8,1,13,13,11,congruent,Left,Left,Right,76,79,3,blue,2,6,/home/docky/apps/exp/images/76Bi.jpeg,/home/docky/apps/exp/images/79B.jpeg,0,6,6,6,0,0,0,0,959.7680433249989,None,959.7680433249989,None,1,6.365698935998807,959.7680433249989,None,966.1632567790002,None,966.1632567790002,None,968.6825878240015,None,968.6825878240015,None,1.0496619890000147,970.4878646600009,None,970.4878646600009,None,6,1,1.1185032260000298,971.5225207490003,None,971.5225207490003,None,971.5225207490003,None,972.6573206770008,None,1,0.3684575990009762,972.6573206770008,None,74,973.0419799219999,None,125,A,1,2021_May_27_1508,GazeFlow,2020.1.2,59.87680001165658,
7,Block508.xls,A,8,2,21,21,11,congruent,Left,Left,Right,62,65,3,yellow,2,6,/home/docky/apps/exp/images/38B.jpeg,/home/docky/apps/exp/images/35Bi.jpeg,0,6,6,6,0,1,1,1,974.0437152490013,None,974.0437152490013,None,1,7.832241353000427,974.0437152490013,None,981.909808466,None,981.909808466,None,984.4132473419995,None,984.4132473419995,None,1.0337400470016291,986.216116186999,None,986.216116186999,None,5,0,1.1514604999974836,987.2364386059999,None,987.2364386059999,None,987.2364386059999,None,988.4045977040005,None,1,0.5181167400005506,988.4045977040005,None,72,988.9395249750014,None,125,A,1,2021_May_27_1508,GazeFlow,2020.1.2,59.87680001165658,
7,Block508.xls,A,8,3,99,39,22,incongruent,Left,Right,Left,79,76,3,blue,2,5,/home/docky/apps/exp/images/79Bi.jpeg,/home/docky/apps/exp/images/76B.jpeg,0,6,6,6,0,2,2,2,989.9411076510005,None,989.9411076510005,None,1,4.54251284899874,989.9411076510005,None,994.5174314460019,None,994.5174314460019,None,997.0208663279991,None,997.0208663279991,None,1.2674589149974054,998.8239540920003,None,998.8239540920003,None,5,1,1.1187964279997686,1000.0779252970024,None,1000.0779252970024,None,1000.0779252970024,None,1001.2132460739995,None,1,0.5677096289982728,1001.2132460739995,None,74,1001.7972465189996,None,125,A,1,2021_May_27_1508,GazeFlow,2020.1.2,59.87680001165658,
7,Block508.xls,A,8,4,37,37,12,congruent,Right,Right,Left,66,65,1,blue,2,5,/home/docky/apps/exp/images/66Bi.jpeg,/home/docky/apps/exp/images/35Y.jpeg,0,6,6,6,0,3,3,3,1002.7991093720011,None,1002.7991093720011,None,1,5.611559338001825,1002.7991093720011,None,1008.4445670940004,None,1008.4445670940004,None,1010.9478516240015,None,1010.9478516240015,None,1.3341920019993267,1012.7513276499994,None,1012.7513276499994,None,5,1,1.1689576930002659,1014.0717292469999,None,1014.0717292469999,None,1014.0717292469999,None,1015.2572622270018,None,1,0.4672406060017238,1015.2572622270018,None,76,1015.7412767599999,None,125,A,1,2021_May_27_1508,GazeFlow,2020.1.2,59.87680001165658,
7,Block508.xls,A,8,5,82,22,21,incongruent,Right,Left,Right,38,39,1,yellow,2,6,/home/docky/apps/exp/images/38Y.jpeg,/home/docky/apps/exp/images/39Yi.jpeg,0,6,6,6,0,4,4,4,1016.7429899900017,None,1016.7429899900017,None,1,5.344894838999608,1016.7429899900017,None,1022.1214158260009,None,1022.1214158260009,None,1024.6258497880008,None,1024.6258497880008,None,1.334069245000137,1026.4228980160005,None,1026.4228980160005,None,6,1,1.1191286419998505,1027.748432575001,None,1027.748432575001,None,1027.748432575001,None,1028.8834667949995,None,1,0.4348713909967046,1028.8834667949995,None,78,1029.334668380001,None,125,A,1,2021_May_27_1508,GazeFlow,2020.1.2,59.87680001165658,
7,Block508.xls,A,8,6,104,44,22,incongruent,Left,Right,Left,39,38,1,blue,2,5,/home/docky/apps/exp/images/39B.jpeg,/home/docky/apps/exp/images/38Bi.jpeg,0,6,6,6,0,5,5,5,1030.335976868002,None,1030.335976868002,None,1,4.710476577998634,1030.335976868002,None,1035.0797117410002,None,1035.0797117410002,None,1037.584451357001,None,1037.584451357001,None,1.1168976970002404,1039.3815780619989,None,1039.3815780619989,None,6,0,1.0177637950000644,1040.4898533250016,None,1040.4898533250016,None,1040.4898533250016,None,1041.5246118960022,None,1,0.45130021200020565,1041.5246118960022,None,76,1041.9923898920024,None,125,A,1,2021_May_27_1508,GazeFlow,2020.1.2,59.87680001165658,
7,Block508.xls,A,8,7,39,39,12,congruent,Right,Right,Left,79,73,6,blue,2,5,/home/docky/apps/exp/images/79B.jpeg,/home/docky/apps/exp/images/73Bi.jpeg,0,6,6,6,0,6,6,6,1042.994178158002,None,1042.994178158002,None,1,6.129194027998892,1042.994178158002,None,1049.1611895060014,None,1049.1611895060014,None,1051.6601664280024,None,1051.6601664280024,None,0.7499062110000523,1053.4654240070013,None,1053.4654240070013,None,5,1,1.0845401600017794,1054.1999195749995,None,1054.1999195749995,None,1054.1999195749995,None,1055.3012998119993,None,1,0.46785741400162806,1055.3012998119993,None,78,1055.7858044669993,None,125,A,1,2021_May_27_1508,GazeFlow,2020.1.2,59.87680001165658,
7,Block508.xls,A,8,8,36,36,12,congruent,Right,Right,Left,66,65,1,blue,2,5,/home/docky/apps/exp/images/66B.jpeg,/home/docky/apps/exp/images/35Yi.jpeg,0,6,6,6,0,7,7,7,1056.7872031590014,None,1056.7872031590014,None,1,5.99643536000076,1056.7872031590014,None,1062.8170854960008,None,1062.8170854960008,None,1065.3200621700016,None,1065.3200621700016,None,2.7210238849984307,1067.122811551999,None,1067.122811551999,None,5,1,1.3182716729970707,1069.8470791780019,None,1069.8470791780019,None,1069.8470791780019,None,1071.1820359880003,None,1,0.4676080440003716,1071.1820359880003,None,80,1071.6665563120005,None,125,A,1,2021_May_27_1508,GazeFlow,2020.1.2,59.87680001165658,
7,Block508.xls,A,,,,,,,,,,,,,,,,,,0,6,6,6,,,,,,,,,,,,,,,,,,,,,,,,,,,,,,,,,,,,,,,,,,,,125,A,1,2021_May_27_1508,GazeFlow,2020.1.2,59.87680001165658,
8,Block510.xls,A,10,1,102,42,22,incongruent,Left,Right,Left,83,80,3,blue,2,5,/home/docky/apps/exp/images/83B.jpeg,/home/docky/apps/exp/images/80Bi.jpeg,0,7,7,7,0,0,0,0,1099.1888131840024,None,1099.1888131840024,None,1,4.616588426997623,1099.1888131840024,None,1103.830046154002,None,1103.830046154002,None,1106.3514021590017,None,1106.3514021590017,None,1.0664231709997694,1108.1531576300004,None,1108.1531576300004,None,5,1,1.2184818009991432,1109.206452489001,None,1109.206452489001,None,1109.206452489001,None,1110.441570818999,None,1,0.5344997879983566,1110.441570818999,None,82,1110.9928131060005,None,125,A,1,2021_May_27_1508,GazeFlow,2020.1.2,59.87680001165658,
8,Block510.xls,A,10,2,114,54,22,incongruent,Left,Right,Left,76,69,7,yellow,2,5,/home/docky/apps/exp/images/76Yi.jpeg,/home/docky/apps/exp/images/69Y.jpeg,0,7,7,7,0,1,1,1,1111.994875717999,None,1111.994875717999,None,1,6.229870809998829,1111.994875717999,None,1118.2579227999995,None,1118.2579227999995,None,1120.7609783389998,None,1120.7609783389998,None,0.8999105620023329,1122.5645261930003,None,1122.5645261930003,None,5,1,3.72414322899931,1123.4508217370021,None,1123.4508217370021,None,1123.4508217370021,None,1127.1913761270007,None,1,0.6348173149999639,1127.1913761270007,None,84,1127.8426625220018,None,125,A,1,2021_May_27_1508,GazeFlow,2020.1.2,59.87680001165658,
8,Block510.xls,A,10,3,72,12,21,incongruent,Right,Left,Right,76,79,3,blue,2,6,/home/docky/apps/exp/images/76Bi.jpeg,/home/docky/apps/exp/images/79B.jpeg,0,7,7,7,0,2,2,2,1128.8446349229998,None,1128.8446349229998,None,1,4.859963350001635,1128.8446349229998,None,1133.738036693001,None,1133.738036693001,None,1136.2424199060006,None,1136.2424199060006,None,0.9502073709991237,1138.0443006700007,None,1138.0443006700007,None,6,1,2.203688986999623,1138.9810819680024,None,1138.9810819680024,None,1138.9810819680024,None,1141.2014183899992,None,1,0.7349165460000222,1141.2014183899992,None,86,1141.9528692800013,None,125,A,1,2021_May_27_1508,GazeFlow,2020.1.2,59.87680001165658,
8,Block510.xls,A,10,4,112,52,22,incongruent,Left,Right,Left,75,69,6,yellow,2,5,/home/docky/apps/exp/images/76Y.jpeg,/home/docky/apps/exp/images/69Yi.jpeg,0,7,7,7,0,3,3,3,1142.9551461510018,None,1142.9551461510018,None,1,5.177686300001369,1142.9551461510018,None,1148.165815045002,None,1148.165815045002,None,1150.6690310740014,None,1150.6690310740014,None,1.2671195200018701,1152.472095297002,None,1152.472095297002,None,5,1,1.5197005980007816,1153.7263367230007,None,1153.7263367230007,None,1153.7263367230007,None,1155.2623887670015,None,1,0.5841187480000372,1155.2623887670015,None,88,1155.8629931530013,None,125,A,1,2021_May_27_1508,GazeFlow,2020.1.2,59.87680001165658,
8,Block510.xls,A,10,5,17,17,11,congruent,Left,Left,Right,33,35,2,yellow,2,6,/home/docky/apps/exp/images/33Y.jpeg,/home/docky/apps/exp/images/35Yi.jpeg,0,7,7,7,0,4,4,4,1156.8653404040015,None,1156.8653404040015,None,1,4.376207149998663,1156.8653404040015,None,1161.2749700759996,None,1161.2749700759996,None,1163.778159409001,None,1163.778159409001,None,7.630095905999042,1165.581627464002,None,1165.581627464002,None,6,1,1.2850334809991182,1173.2147994369989,None,1173.2147994369989,None,1173.2147994369989,None,1174.5162632899992,None,1,0.5010865650001506,1174.5162632899992,None,90,1175.0338413909994,None,125,A,1,2021_May_27_1508,GazeFlow,2020.1.2,59.87680001165658,
8,Block510.xls,A,10,6,31,31,12,congruent,Right,Right,Left,19,16,3,blue,2,5,/home/docky/apps/exp/images/19Bi.jpeg,/home/docky/apps/exp/images/16B.jpeg,0,7,7,7,0,5,5,5,1176.0362430669993,None,1176.0362430669993,None,1,4.309073232001538,1176.0362430669993,None,1180.3788077030003,None,1180.3788077030003,None,1182.8814909920002,None,1182.8814909920002,None,1.5177629820027505,1184.6848766969997,None,1184.6848766969997,None,5,1,2.1536920069993357,1186.189522675002,None,1186.189522675002,None,1186.189522675002,None,1188.3597082470005,None,1,0.684825775999343,1188.3597082470005,None,92,1189.0614676020014,None,125,A,1,2021_May_27_1508,GazeFlow,2020.1.2,59.87680001165658,
8,Block510.xls,A,10,7,61,1,21,incongruent,Right,Left,Right,16,19,3,blue,2,6,/home/docky/apps/exp/images/16Bi.jpeg,/home/docky/apps/exp/images/19B.jpeg,0,7,7,7,0,6,6,6,1190.0635288080011,None,1190.0635288080011,None,1,4.091715942999144,1190.0635288080011,None,1194.188961887001,None,1194.188961887001,None,1196.692137779999,None,1196.692137779999,None,1.2336776410011225,1198.4971367280014,None,1198.4971367280014,None,6,1,1.1354104150013882,1199.7159573860008,None,1199.7159573860008,None,1199.7159573860008,None,1200.867782202,None,1,0.45144297699880553,1200.867782202,None,94,1201.3353849779996,None,125,A,1,2021_May_27_1508,GazeFlow,2020.1.2,59.87680001165658,
8,Block510.xls,A,10,8,94,34,22,incongruent,Left,Right,Left,38,35,3,blue,2,5,/home/docky/apps/exp/images/38Bi.jpeg,/home/docky/apps/exp/images/35B.jpeg,0,7,7,7,0,7,7,7,1202.3368969490002,None,1202.3368969490002,None,1,3.9255511640003533,1202.3368969490002,None,1206.2958336529991,None,1206.2958336529991,None,1208.8005464390008,None,1208.8005464390008,None,1.5014209800028766,1210.603820815999,None,1210.603820815999,None,5,1,1.3196907470010046,1212.089706687002,None,1212.089706687002,None,1212.089706687002,None,1213.4254466509992,None,1,0.5008164400023816,1213.4254466509992,None,96,1213.9429515320007,None,125,A,1,2021_May_27_1508,GazeFlow,2020.1.2,59.87680001165658,
8,Block510.xls,A,,,,,,,,,,,,,,,,,,0,7,7,7,,,,,,,,,,,,,,,,,,,,,,,,,,,,,,,,,,,,,,,,,,,,125,A,1,2021_May_27_1508,GazeFlow,2020.1.2,59.87680001165658,
9,Block507.xls,A,7,1,110,50,22,incongruent,Left,Right,Left,66,65,1,yellow,2,5,/home/docky/apps/exp/images/66Y.jpeg,/home/docky/apps/exp/images/35Bi.jpeg,0,8,8,8,0,0,0,0,1233.582111830001,None,1233.582111830001,None,1,5.117960863000917,1233.582111830001,None,1238.7277477460011,None,1238.7277477460011,None,1241.2468898539992,None,1241.2468898539992,None,7.796570375998272,1243.0506409070003,None,1243.0506409070003,None,6,0,1.8029183390026446,1250.8490709290018,None,1250.8490709290018,None,1250.8490709290018,None,1252.6681320960015,None,1,0.48467637900103,1252.6681320960015,None,94,1253.1697582039997,None,125,A,1,2021_May_27_1508,GazeFlow,2020.1.2,59.87680001165658,
9,Block507.xls,A,7,2,90,30,22,incongruent,Right,Left,Right,16,19,3,blue,2,6,/home/docky/apps/exp/images/16Bi.jpeg,/home/docky/apps/exp/images/19B.jpeg,0,8,8,8,0,1,1,1,1254.1714831460013,None,1254.1714831460013,None,1,6.111834103001456,1254.1714831460013,None,1260.3168650770021,None,1260.3168650770021,None,1262.8202067940001,None,1262.8202067940001,None,1.1166878399999405,1264.6231291680015,None,1264.6231291680015,None,6,1,2.086904906998825,1265.7273305000017,None,1265.7273305000017,None,1265.7273305000017,None,1267.830568278001,None,1,0.48466034900047816,1267.830568278001,None,96,1268.332035981999,None,125,A,1,2021_May_27_1508,GazeFlow,2020.1.2,59.87680001165658,
9,Block507.xls,A,7,3,16,16,11,congruent,Left,Left,Right,33,35,2,yellow,2,6,/home/docky/apps/exp/images/33Yi.jpeg,/home/docky/apps/exp/images/35Y.jpeg,0,8,8,8,0,2,2,2,1269.3341917910002,None,1269.3341917910002,None,1,6.429257871997834,1269.3341917910002,None,1275.795392033,None,1275.795392033,None,1278.3021925440007,None,1278.3021925440007,None,1.8020208890011418,1280.1031141999993,None,1280.1031141999993,None,6,1,4.642681010001979,1281.891978587002,None,1281.891978587002,None,1281.891978587002,None,1286.5508305080002,None,1,0.28402434500094387,1286.5508305080002,None,98,1286.8515375900024,None,125,A,1,2021_May_27_1508,GazeFlow,2020.1.2,59.87680001165658,
9,Block507.xls,A,7,4,117,57,22,incongruent,Left,Right,Left,77,72,5,yellow,2,5,/home/docky/apps/exp/images/77Y.jpeg,/home/docky/apps/exp/images/72Yi.jpeg,0,8,8,8,0,3,3,3,1287.853526220999,None,1287.853526220999,None,1,4.5590906600009475,1287.853526220999,None,1292.446524029001,None,1292.446524029001,None,1294.950854570001,None,1294.950854570001,None,0.9501702299967292,1296.7528576619989,None,1296.7528576619989,None,5,1,0.9847328819996619,1297.6895277440017,None,1297.6895277440017,None,1297.6895277440017,None,1298.6907101530014,None,1,0.40147118599998066,1298.6907101530014,None,100,1299.1087925870015,None,125,A,1,2021_May_27_1508,GazeFlow,2020.1.2,59.87680001165658,
9,Block507.xls,A,7,5,53,53,12,congruent,Right,Right,Left,75,69,6,yellow,2,5,/home/docky/apps/exp/images/76Yi.jpeg,/home/docky/apps/exp/images/69Y.jpeg,0,8,8,8,0,4,4,4,1300.1105945730014,None,1300.1105945730014,None,1,3.6574847740012046,1300.1105945730014,None,1303.8057523650023,None,1303.8057523650023,None,1306.3065032090017,None,1306.3065032090017,None,1.0504143190009927,1308.108375791002,None,1308.108375791002,None,5,1,1.1849547720012197,1309.1450911809989,None,1309.1450911809989,None,1309.1450911809989,None,1310.346640134001,None,1,0.4851612010024837,1310.346640134001,None,102,1310.8481330089999,None,125,A,1,2021_May_27_1508,GazeFlow,2020.1.2,59.87680001165658,
9,Block507.xls,A,7,6,96,36,22,incongruent,Left,Right,Left,66,65,1,blue,2,5,/home/docky/apps/exp/images/66Bi.jpeg,/home/docky/apps/exp/images/35Y.jpeg,0,8,8,8,0,5,5,5,1311.8496514079998,None,1311.8496514079998,None,1,5.07783997399747,1311.8496514079998,None,1316.9603963360023,None,1316.9603963360023,None,1319.4518344980024,None,1319.4518344980024,None,1.818635137999081,1321.2619913929993,None,1321.2619913929993,None,6,0,1.151656436999474,1323.0722662900007,None,1323.0722662900007,None,1323.0722662900007,None,1324.2403546259993,None,1,0.4344485980000172,1324.2403546259993,None,100,1324.6913910229996,None,125,A,1,2021_May_27_1508,GazeFlow,2020.1.2,59.87680001165658,
9,Block507.xls,A,7,7,58,58,12,congruent,Right,Right,Left,77,72,5,yellow,2,5,/home/docky/apps/exp/images/77Yi.jpeg,/home/docky/apps/exp/images/72Y.jpeg,0,8,8,8,0,6,6,6,1325.693249472999,None,1325.693249472999,None,1,4.593054084998585,1325.693249472999,None,1330.3199455600006,None,1330.3199455600006,None,1332.8234023650002,None,1332.8234023650002,None,1.150737461000972,1334.6266771990013,None,1334.6266771990013,None,5,1,1.1182520799993654,1335.7635348580006,None,1335.7635348580006,None,1335.7635348580006,None,1336.898580044999,None,1,0.5515770359997987,1336.898580044999,None,102,1337.466767471,None,125,A,1,2021_May_27_1508,GazeFlow,2020.1.2,59.87680001165658,
9,Block507.xls,A,7,8,41,41,12,congruent,Right,Right,Left,79,76,3,blue,2,5,/home/docky/apps/exp/images/79Bi.jpeg,/home/docky/apps/exp/images/76B.jpeg,0,8,8,8,0,7,7,7,1338.468190615,None,1338.468190615,None,1,5.04378485000052,1338.468190615,None,1343.548539716001,None,1343.548539716001,None,1346.0488194520003,None,1346.0488194520003,None,0.8498976539995056,1347.8540117049997,None,1347.8540117049997,None,5,1,1.1851462199992966,1348.6885000969996,None,1348.6885000969996,None,1348.6885000969996,None,1349.8904808980005,None,1,0.5020869369982393,1349.8904808980005,None,104,1350.4083449210011,None,125,A,1,2021_May_27_1508,GazeFlow,2020.1.2,59.87680001165658,
9,Block507.xls,A,,,,,,,,,,,,,,,,,,0,8,8,8,,,,,,,,,,,,,,,,,,,,,,,,,,,,,,,,,,,,,,,,,,,,125,A,1,2021_May_27_1508,GazeFlow,2020.1.2,59.87680001165658,
10,Block515.xls,A,15,1,107,47,22,incongruent,Left,Right,Left,35,33,2,yellow,2,5,/home/docky/apps/exp/images/35Yi.jpeg,/home/docky/apps/exp/images/33Y.jpeg,0,9,9,9,0,0,0,0,1375.2238564719992,None,1375.2238564719992,None,1,3.8137992759984627,1375.2238564719992,None,1379.0685872729991,None,1379.0685872729991,None,1381.5839518499997,None,1381.5839518499997,None,1.1834724020009162,1383.383736259002,None,1383.383736259002,None,5,1,1.0851818139999523,1384.5582311399994,None,1384.5582311399994,None,1384.5582311399994,None,1385.6599896430016,None,1,0.5015534000012849,1385.6599896430016,None,106,1386.1779503729995,None,125,A,1,2021_May_27_1508,GazeFlow,2020.1.2,59.87680001165658,
10,Block515.xls,A,15,2,55,55,12,congruent,Right,Right,Left,76,69,7,yellow,2,5,/home/docky/apps/exp/images/76Yi.jpeg,/home/docky/apps/exp/images/69Y.jpeg,0,9,9,9,0,1,1,1,1387.1791642140015,None,1387.1791642140015,None,1,4.0588541420002,1387.1791642140015,None,1391.271851043999,None,1391.271851043999,None,1393.7752719410018,None,1393.7752719410018,None,0.8164143690009951,1395.5777300699992,None,1395.5777300699992,None,5,1,0.9680174269997224,1396.3812585449996,None,1396.3812585449996,None,1396.3812585449996,None,1397.3661212570005,None,1,0.45072859300125856,1397.3661212570005,None,108,1397.8335236070016,None,125,A,1,2021_May_27_1508,GazeFlow,2020.1.2,59.87680001165658,
10,Block515.xls,A,15,3,75,15,21,incongruent,Right,Left,Right,33,35,2,yellow,2,6,/home/docky/apps/exp/images/33Yi.jpeg,/home/docky/apps/exp/images/35Y.jpeg,0,9,9,9,0,2,2,2,1398.8355906940014,None,1398.8355906940014,None,1,3.641338099998393,1398.8355906940014,None,1402.5105908250007,None,1402.5105908250007,None,1405.0151542890017,None,1405.0151542890017,None,1.1176373960006458,1406.8186733410002,None,1406.8186733410002,None,6,1,2.2371944320002513,1407.920265257002,None,1407.920265257002,None,1407.920265257002,None,1410.173920928999,None,1,0.4848579190002056,1410.173920928999,None,110,1410.6752358109989,None,125,A,1,2021_May_27_1508,GazeFlow,2020.1.2,59.87680001165658,
10,Block515.xls,A,15,4,62,2,21,incongruent,Right,Left,Right,35,38,3,blue,2,6,/home/docky/apps/exp/images/35Bi.jpeg,/home/docky/apps/exp/images/38B.jpeg,0,9,9,9,0,3,3,3,1411.6775077380007,None,1411.6775077380007,None,1,4.375372990001779,1411.6775077380007,None,1416.0869997830014,None,1416.0869997830014,None,1418.5917285270007,None,1418.5917285270007,None,0.9500059310012148,1420.3883452420014,None,1420.3883452420014,None,6,1,1.1016465979992063,1421.3298627650001,None,1421.3298627650001,None,1421.3298627650001,None,1422.448194859,None,1,0.418462735000503,1422.448194859,None,112,1422.8823798049998,None,125,A,1,2021_May_27_1508,GazeFlow,2020.1.2,59.87680001165658,
10,Block515.xls,A,15,5,100,40,22,incongruent,Left,Right,Left,79,76,3,blue,2,5,/home/docky/apps/exp/images/79Bi.jpeg,/home/docky/apps/exp/images/76B.jpeg,0,9,9,9,0,4,4,4,1423.8840958440014,None,1423.8840958440014,None,1,3.7414825779997045,1423.8840958440014,None,1427.6593834420019,None,1427.6593834420019,None,1430.1618423260006,None,1430.1618423260006,None,0.8331112980013131,1431.9660303790006,None,1431.9660303790006,None,5,1,1.085154132997559,1432.785334651002,None,1432.785334651002,None,1432.785334651002,None,1433.8871332550007,None,1,0.45122829799947795,1433.8871332550007,None,114,1434.3549668000014,None,125,A,1,2021_May_27_1508,GazeFlow,2020.1.2,59.87680001165658,
10,Block515.xls,A,15,6,108,48,22,incongruent,Left,Right,Left,39,38,1,yellow,2,5,/home/docky/apps/exp/images/39Y.jpeg,/home/docky/apps/exp/images/38Yi.jpeg,0,9,9,9,0,5,5,5,1435.3565000449998,None,1435.3565000449998,None,1,4.2590216569988115,1435.3565000449998,None,1439.6492169779995,None,1439.6492169779995,None,1442.1541400060014,None,1442.1541400060014,None,0.9164352520019747,1443.9559362010004,None,1443.9559362010004,None,5,1,0.9849054339974828,1444.8590488830014,None,1444.8590488830014,None,1444.8590488830014,None,1445.8602324130006,None,1,0.4009683039985248,1445.8602324130006,None,116,1446.277578985002,None,125,A,1,2021_May_27_1508,GazeFlow,2020.1.2,59.87680001165658,
10,Block515.xls,A,15,7,59,59,12,congruent,Right,Right,Left,80,79,1,yellow,2,5,/home/docky/apps/exp/images/80Y.jpeg,/home/docky/apps/exp/images/79Yi.jpeg,0,9,9,9,0,6,6,6,1447.279563160002,None,1447.279563160002,None,1,4.593427277999581,1447.279563160002,None,1451.9063698649989,None,1451.9063698649989,None,1454.408658761,None,1454.408658761,None,1.067183011000452,1456.2126394260013,None,1456.2126394260013,None,5,1,0.9680476430003182,1457.2663856239997,None,1457.2663856239997,None,1457.2663856239997,None,1458.2508122559993,None,1,0.4352770359982969,1458.2508122559993,None,118,1458.702247641002,None,125,A,1,2021_May_27_1508,GazeFlow,2020.1.2,59.87680001165658,
10,Block515.xls,A,15,8,8,8,11,congruent,Left,Left,Right,38,39,1,blue,2,6,/home/docky/apps/exp/images/38B.jpeg,/home/docky/apps/exp/images/39Bi.jpeg,0,9,9,9,0,7,7,7,1459.7039092570012,None,1459.7039092570012,None,1,3.324256256000808,1459.7039092570012,None,1463.061046728002,None,1463.061046728002,None,1465.5662931250008,None,1465.5662931250008,None,1.4175355440020212,1467.3626110840014,None,1467.3626110840014,None,6,1,1.1354919019977388,1468.7721211060016,None,1468.7721211060016,None,1468.7721211060016,None,1469.9240655720023,None,1,0.38478350099831005,1469.9240655720023,None,120,1470.3248224029994,None,125,A,1,2021_May_27_1508,GazeFlow,2020.1.2,59.87680001165658,
10,Block515.xls,A,,,,,,,,,,,,,,,,,,0,9,9,9,,,,,,,,,,,,,,,,,,,,,,,,,,,,,,,,,,,,,,,,,,,,125,A,1,2021_May_27_1508,GazeFlow,2020.1.2,59.87680001165658,
11,Block512.xls,A,12,1,30,30,11,congruent,Left,Left,Right,79,82,3,yellow,2,6,/home/docky/apps/exp/images/79Yi.jpeg,/home/docky/apps/exp/images/80Y.jpeg,0,10,10,10,0,0,0,0,1490.8728878969996,None,1490.8728878969996,None,1,6.696818889002316,1490.8728878969996,None,1497.600809833999,None,1497.600809833999,None,1500.1168238169994,None,1500.1168238169994,None,1.0828592979996756,1501.9189161850009,None,1501.9189161850009,None,6,1,1.4529171760004829,1502.9885165790001,None,1502.9885165790001,None,1502.9885165790001,None,1504.4578524919998,None,1,0.4343269050004892,1504.4578524919998,None,122,1504.908776045002,None,125,A,1,2021_May_27_1508,GazeFlow,2020.1.2,59.87680001165658,
11,Block512.xls,A,12,2,115,55,22,incongruent,Left,Right,Left,76,69,7,yellow,2,5,/home/docky/apps/exp/images/76Yi.jpeg,/home/docky/apps/exp/images/69Y.jpeg,0,10,10,10,0,1,1,1,1505.9102275600017,None,1505.9102275600017,None,1,4.142090573001042,1505.9102275600017,None,1510.0862577449989,None,1510.0862577449989,None,1512.590745638001,None,1512.590745638001,None,1.0168371629988542,1514.3868714000018,None,1514.3868714000018,None,5,1,1.218491586001619,1515.3962188190017,None,1515.3962188190017,None,1515.3962188190017,None,1516.6313736010015,None,1,0.5018071810009133,1516.6313736010015,None,124,1517.1491188370019,None,125,A,1,2021_May_27_1508,GazeFlow,2020.1.2,59.87680001165658,
11,Block512.xls,A,12,3,66,6,21,incongruent,Right,Left,Right,38,39,1,blue,2,6,/home/docky/apps/exp/images/38B.jpeg,/home/docky/apps/exp/images/39Bi.jpeg,0,10,10,10,0,2,2,2,1518.1509080670003,None,1518.1509080670003,None,1,3.557814973999484,1518.1509080670003,None,1521.7421714869997,None,1521.7421714869997,None,1524.245609853002,None,1524.245609853002,None,0.8333239819985465,1526.0506234339991,None,1526.0506234339991,None,6,1,1.234904588000063,1526.868420142,None,1526.868420142,None,1526.868420142,None,1528.1201431219997,None,1,0.4676121089978551,1528.1201431219997,None,126,1528.6042492920024,None,125,A,1,2021_May_27_1508,GazeFlow,2020.1.2,59.87680001165658,
11,Block512.xls,A,12,4,35,35,12,congruent,Right,Right,Left,66,65,1,blue,2,5,/home/docky/apps/exp/images/66B.jpeg,/home/docky/apps/exp/images/35Yi.jpeg,0,10,10,10,0,3,3,3,1529.6061318700013,None,1529.6061318700013,None,1,3.1237423040001886,1529.6061318700013,None,1532.7640726249992,None,1532.7640726249992,None,1535.2661108270004,None,1535.2661108270004,None,0.7831476599967573,1537.069588491002,None,1537.069588491002,None,5,1,1.2012232720007887,1537.8400453440008,None,1537.8400453440008,None,1537.8400453440008,None,1539.0580060840002,None,1,0.4184508639991691,1539.0580060840002,None,128,1539.4925861750016,None,125,A,1,2021_May_27_1508,GazeFlow,2020.1.2,59.87680001165658,
11,Block512.xls,A,12,5,40,40,12,congruent,Right,Right,Left,79,76,3,blue,2,5,/home/docky/apps/exp/images/79Bi.jpeg,/home/docky/apps/exp/images/76B.jpeg,0,10,10,10,0,4,4,4,1540.494324907002,None,1540.494324907002,None,1,3.5741193249996286,1540.494324907002,None,1544.1065787760017,None,1544.1065787760017,None,1546.6067576780006,None,1546.6067576780006,None,0.8163725349986635,1548.4034720939999,None,1548.4034720939999,None,5,1,1.1854219359993294,1549.211517980002,None,1549.211517980002,None,1549.211517980002,None,1550.4136091399996,None,1,0.4687611970002763,1550.4136091399996,None,130,1550.898150126999,None,125,A,1,2021_May_27_1508,GazeFlow,2020.1.2,59.87680001165658,
11,Block512.xls,A,12,6,64,4,21,incongruent,Right,Left,Right,65,66,1,blue,2,6,/home/docky/apps/exp/images/35Yi.jpeg,/home/docky/apps/exp/images/66B.jpeg,0,10,10,10,0,5,5,5,1551.8996730010003,None,1551.8996730010003,None,1,4.025200875999872,1551.8996730010003,None,1555.9589127040017,None,1555.9589127040017,None,1558.4619159510003,None,1558.4619159510003,None,7.496137623998948,1560.2604293969998,None,1560.2604293969998,None,5,0,5.962555565998628,1567.7635945190013,None,1567.7635945190013,None,1567.7635945190013,None,1573.7426323190011,None,1,0.4515133579989197,1573.7426323190011,None,128,1574.2101295780012,None,125,A,1,2021_May_27_1508,GazeFlow,2020.1.2,59.87680001165658,
11,Block512.xls,A,12,7,12,12,11,congruent,Left,Left,Right,76,79,3,blue,2,6,/home/docky/apps/exp/images/76B.jpeg,/home/docky/apps/exp/images/79Bi.jpeg,0,10,10,10,0,6,6,6,1575.212081951002,None,1575.212081951002,None,1,6.279278238002007,1575.212081951002,None,1581.5252677999997,None,1581.5252677999997,None,1584.0297748500016,None,1584.0297748500016,None,0.9004910869989544,1585.8316453740008,None,1585.8316453740008,None,6,1,1.0850038009994023,1586.7179411489997,None,1586.7179411489997,None,1586.7179411489997,None,1587.8195269630014,None,1,0.48502832200028934,1587.8195269630014,None,130,1588.3208667170002,None,125,A,1,2021_May_27_1508,GazeFlow,2020.1.2,59.87680001165658,
11,Block512.xls,A,12,8,49,49,12,congruent,Right,Right,Left,39,38,1,yellow,2,5,/home/docky/apps/exp/images/39Y.jpeg,/home/docky/apps/exp/images/38Yi.jpeg,0,10,10,10,0,7,7,7,1589.3224394690005,None,1589.3224394690005,None,1,3.9081245269990177,1589.3224394690005,None,1593.2644361730017,None,1593.2644361730017,None,1595.7679502680003,None,1595.7679502680003,None,0.9331811359988933,1597.5711138389997,None,1597.5711138389997,None,5,1,1.068291973999294,1598.4905536369988,None,1598.4905536369988,None,1598.4905536369988,None,1599.5757007909997,None,1,0.5016510449968337,1599.5757007909997,None,132,1600.0938683060012,None,125,A,1,2021_May_27_1508,GazeFlow,2020.1.2,59.87680001165658,
11,Block512.xls,A,,,,,,,,,,,,,,,,,,0,10,10,10,,,,,,,,,,,,,,,,,,,,,,,,,,,,,,,,,,,,,,,,,,,,125,A,1,2021_May_27_1508,GazeFlow,2020.1.2,59.87680001165658,
12,Block503.xls,A,3,1,22,22,11,congruent,Left,Left,Right,62,65,3,yellow,2,6,/home/docky/apps/exp/images/38Bi.jpeg,/home/docky/apps/exp/images/35B.jpeg,0,11,11,11,0,0,0,0,1621.2534950709996,None,1621.2534950709996,None,1,5.966035256002215,1621.2534950709996,None,1627.2531008879996,None,1627.2531008879996,None,1629.7690217790005,None,1629.7690217790005,None,1.5838931719990796,1631.5725891110014,None,1631.5725891110014,None,6,1,1.4856231839985412,1633.1417083740016,None,1633.1417083740016,None,1633.1417083740016,None,1634.6440169320013,None,1,0.7348243260021263,1634.6440169320013,None,134,1635.3954702320007,None,125,A,1,2021_May_27_1508,GazeFlow,2020.1.2,59.87680001165658,
12,Block503.xls,A,3,2,65,5,21,incongruent,Right,Left,Right,65,66,1,blue,2,6,/home/docky/apps/exp/images/35Y.jpeg,/home/docky/apps/exp/images/66Bi.jpeg,0,11,11,11,0,1,1,1,1636.3977186310003,None,1636.3977186310003,None,1,3.3572188390025985,1636.3977186310003,None,1639.7884120300005,None,1639.7884120300005,None,1642.2904771329995,None,1642.2904771329995,None,1.0004866759991273,1644.0940856230009,None,1644.0940856230009,None,6,1,1.0348588849992666,1645.0814878830024,None,1645.0814878830024,None,1645.0814878830024,None,1646.1329698650006,None,1,0.43518449800103554,1646.1329698650006,None,136,1646.584209894001,None,125,A,1,2021_May_27_1508,GazeFlow,2020.1.2,59.87680001165658,
12,Block503.xls,A,3,3,76,16,21,incongruent,Right,Left,Right,33,35,2,yellow,2,6,/home/docky/apps/exp/images/33Y.jpeg,/home/docky/apps/exp/images/35Yi.jpeg,0,11,11,11,0,2,2,2,1647.585429720999,None,1647.585429720999,None,1,2.321965496001212,1647.585429720999,None,1649.9410904489996,None,1649.9410904489996,None,1652.444272675999,None,1652.444272675999,None,9.3170103070006,1654.2421280000017,None,1654.2421280000017,None,5,0,12.073003920999327,1663.5678846180017,None,1663.5678846180017,None,1663.5678846180017,None,1675.6575342690012,None,1,0.6514131379990431,1675.6575342690012,None,134,1676.325561141999,None,125,A,1,2021_May_27_1508,GazeFlow,2020.1.2,59.87680001165658,
12,Block503.xls,A,3,4,29,29,11,congruent,Left,Left,Right,79,82,3,yellow,2,6,/home/docky/apps/exp/images/79Y.jpeg,/home/docky/apps/exp/images/80Yi.jpeg,0,11,11,11,0,3,3,3,1677.327233119002,None,1677.327233119002,None,1,4.158489337998617,1677.327233119002,None,1681.5193673190006,None,1681.5193673190006,None,1684.0243522830024,None,1684.0243522830024,None,1.1672231480006303,1685.8257670120001,None,1685.8257670120001,None,6,1,1.202359038998111,1686.979672636,None,1686.979672636,None,1686.979672636,None,1688.1984572120018,None,1,0.43441460299800383,1688.1984572120018,None,136,1688.649338629999,None,125,A,1,2021_May_27_1508,GazeFlow,2020.1.2,59.87680001165658,
12,Block503.xls,A,3,5,103,43,22,incongruent,Left,Right,Left,39,38,1,blue,2,5,/home/docky/apps/exp/images/39Bi.jpeg,/home/docky/apps/exp/images/38B.jpeg,0,11,11,11,0,4,4,4,1689.6508927680006,None,1689.6508927680006,None,1,2.45551758199872,1689.6508927680006,None,1692.1401538050013,None,1692.1401538050013,None,1694.6434703020022,None,1694.6434703020022,None,1.1844622580028954,1696.444618272999,None,1696.444618272999,None,6,0,1.0518953309983772,1697.6167659790008,None,1697.6167659790008,None,1697.6167659790008,None,1698.685069987001,None,1,0.4180894180026371,1698.685069987001,None,134,1699.119445567001,None,125,A,1,2021_May_27_1508,GazeFlow,2020.1.2,59.87680001165658,
12,Block503.xls,A,3,6,47,47,12,congruent,Right,Right,Left,35,33,2,yellow,2,5,/home/docky/apps/exp/images/35Yi.jpeg,/home/docky/apps/exp/images/33Y.jpeg,0,11,11,11,0,5,5,5,1700.121212156002,None,1700.121212156002,None,1,3.440805607002403,1700.121212156002,None,1703.5941209500015,None,1703.5941209500015,None,1706.1026974320012,None,1706.1026974320012,None,1.0838998680010263,1707.902537588001,None,1707.902537588001,None,5,1,0.968216418998054,1708.9722083140005,None,1708.9722083140005,None,1708.9722083140005,None,1709.9568570520023,None,1,0.5178670170025725,1709.9568570520023,None,136,1710.4914583249993,None,125,A,1,2021_May_27_1508,GazeFlow,2020.1.2,59.87680001165658,
12,Block503.xls,A,3,7,20,20,11,congruent,Left,Left,Right,65,66,1,yellow,2,6,/home/docky/apps/exp/images/35Bi.jpeg,/home/docky/apps/exp/images/66Y.jpeg,0,11,11,11,0,6,6,6,1711.4936269259997,None,1711.4936269259997,None,1,4.442323725001188,1711.4936269259997,None,1715.9681376709996,None,1715.9681376709996,None,1718.4728484160005,None,1718.4728484160005,None,1.2674722019983165,1720.269890014999,None,1720.269890014999,None,5,0,1.101972250999097,1721.530184657,None,1721.530184657,None,1721.530184657,None,1722.648879692999,None,1,0.501146749000327,1722.648879692999,None,134,1723.1664685350006,None,125,A,1,2021_May_27_1508,GazeFlow,2020.1.2,59.87680001165658,
12,Block503.xls,A,3,8,27,27,11,congruent,Left,Left,Right,72,77,5,yellow,2,6,/home/docky/apps/exp/images/72Yi.jpeg,/home/docky/apps/exp/images/77Y.jpeg,0,11,11,11,0,7,7,7,1724.1681682070011,None,1724.1681682070011,None,1,4.509325481001724,1724.1681682070011,None,1728.7113423240007,None,1728.7113423240007,None,1731.2157105369988,None,1731.2157105369988,None,0.9168903419995331,1733.0176040250008,None,1733.0176040250008,None,6,1,0.9679009840001527,1733.920945979,None,1733.920945979,None,1733.920945979,None,1734.9055194510001,None,1,0.43430955199801247,1734.9055194510001,None,136,1735.356804056999,None,125,A,1,2021_May_27_1508,GazeFlow,2020.1.2,59.87680001165658,
12,Block503.xls,A,,,,,,,,,,,,,,,,,,0,11,11,11,,,,,,,,,,,,,,,,,,,,,,,,,,,,,,,,,,,,,,,,,,,,125,A,1,2021_May_27_1508,GazeFlow,2020.1.2,59.87680001165658,
13,Block501.xls,A,1,1,54,54,12,congruent,Right,Right,Left,75,69,6,yellow,2,5,/home/docky/apps/exp/images/76Y.jpeg,/home/docky/apps/exp/images/69Yi.jpeg,0,12,12,12,0,0,0,0,1755.0639794300005,None,1755.0639794300005,None,1,5.381667448997177,1755.0639794300005,None,1760.4723708509991,None,1760.4723708509991,None,1762.994572137999,None,1762.994572137999,None,0.9824396539988811,1764.7978311410006,None,1764.7978311410006,None,5,1,1.4698458439997921,1765.7661720590004,None,1765.7661720590004,None,1765.7661720590004,None,1767.2520981170019,None,1,0.6509147150027275,1767.2520981170019,None,138,1767.9197795690015,None,125,A,1,2021_May_27_1508,GazeFlow,2020.1.2,59.87680001165658,
13,Block501.xls,A,1,2,70,10,21,incongruent,Right,Left,Right,73,76,3,blue,2,6,/home/docky/apps/exp/images/73Bi.jpeg,/home/docky/apps/exp/images/76B.jpeg,0,12,12,12,0,1,1,1,1768.921677096001,None,1768.921677096001,None,1,4.643056180000713,1768.921677096001,None,1773.5982219760008,None,1773.5982219760008,None,1776.1014110329997,None,1776.1014110329997,None,1.3008391089970246,1777.9041964930002,None,1777.9041964930002,None,6,1,1.41963516299802,1779.192286534002,None,1779.192286534002,None,1779.192286534002,None,1780.6281798730015,None,1,0.48375644000043394,1780.6281798730015,None,140,1781.1287145829992,None,125,A,1,2021_May_27_1508,GazeFlow,2020.1.2,59.87680001165658,
13,Block501.xls,A,1,3,84,24,21,incongruent,Right,Left,Right,69,76,7,yellow,2,6,/home/docky/apps/exp/images/69Yi.jpeg,/home/docky/apps/exp/images/76Y.jpeg,0,12,12,12,0,2,2,2,1782.130616937,None,1782.130616937,None,1,4.776778977000504,1782.130616937,None,1786.9413118340017,None,1786.9413118340017,None,1789.4458734629989,None,1789.4458734629989,None,0.9834252310029115,1791.243128899001,None,1791.243128899001,None,6,1,1.1352162240000325,1792.2174114570007,None,1792.2174114570007,None,1792.2174114570007,None,1793.369099249001,None,1,0.5014972429999034,1793.369099249001,None,142,1793.886807138002,None,125,A,1,2021_May_27_1508,GazeFlow,2020.1.2,59.87680001165658,
13,Block501.xls,A,1,4,26,26,11,congruent,Left,Left,Right,69,75,6,yellow,2,6,/home/docky/apps/exp/images/69Y.jpeg,/home/docky/apps/exp/images/76Yi.jpeg,0,12,12,12,0,3,3,3,1794.8889056070002,None,1794.8889056070002,None,1,3.4329918780022126,1794.8889056070002,None,1798.3543650930005,None,1798.3543650930005,None,1800.866420454,None,1800.866420454,None,1.0169760930002667,1802.6690498860007,None,1802.6690498860007,None,6,1,1.4696714540004905,1803.6730785200016,None,1803.6730785200016,None,1803.6730785200016,None,1805.159250732002,None,1,0.4838603960015462,1805.159250732002,None,144,1805.6600454300024,None,125,A,1,2021_May_27_1508,GazeFlow,2020.1.2,59.87680001165658,
13,Block501.xls,A,1,5,97,37,22,incongruent,Left,Right,Left,79,73,6,blue,2,5,/home/docky/apps/exp/images/79B.jpeg,/home/docky/apps/exp/images/73Bi.jpeg,0,12,12,12,0,4,4,4,1806.661751132,None,1806.661751132,None,1,2.806417824001983,1806.661751132,None,1809.4995907010016,None,1809.4995907010016,None,1812.0043835470024,None,1812.0043835470024,None,1.150358808998135,1813.8073124969997,None,1813.8073124969997,None,5,1,1.3364099629980046,1814.9450350120023,None,1814.9450350120023,None,1814.9450350120023,None,1816.2976408649993,None,1,0.5003346199991938,1816.2976408649993,None,146,1816.8148363130022,None,125,A,1,2021_May_27_1508,GazeFlow,2020.1.2,59.87680001165658,
13,Block501.xls,A,1,6,98,38,22,incongruent,Left,Right,Left,79,73,6,blue,2,5,/home/docky/apps/exp/images/79B.jpeg,/home/docky/apps/exp/images/73Bi.jpeg,0,12,12,12,0,5,5,5,1817.8168269810012,None,1817.8168269810012,None,1,4.960322482002084,1817.8168269810012,None,1822.8093727630003,None,1822.8093727630003,None,1825.313592360002,None,1825.313592360002,None,1.4177274489993579,1827.1170272080017,None,1827.1170272080017,None,5,1,1.1355381299981673,1828.5216007960007,None,1828.5216007960007,None,1828.5216007960007,None,1829.673497742002,None,1,0.550779851997504,1829.673497742002,None,148,1830.2408192820003,None,125,A,1,2021_May_27_1508,GazeFlow,2020.1.2,59.87680001165658,
13,Block501.xls,A,1,7,77,17,21,incongruent,Right,Left,Right,65,66,1,yellow,2,6,/home/docky/apps/exp/images/35B.jpeg,/home/docky/apps/exp/images/66Yi.jpeg,0,12,12,12,0,6,6,6,1831.2431111699989,None,1831.2431111699989,None,1,4.308880098997179,1831.2431111699989,None,1835.5872722410022,None,1835.5872722410022,None,1838.0882888410015,None,1838.0882888410015,None,1.3841784120013472,1839.892372249,None,1839.892372249,None,6,1,1.0854186789983942,1841.2629650050003,None,1841.2629650050003,None,1841.2629650050003,None,1842.364870846999,None,1,0.4677913070008799,1842.364870846999,None,150,1842.8487702419989,None,125,A,1,2021_May_27_1508,GazeFlow,2020.1.2,59.87680001165658,
13,Block501.xls,A,1,8,50,50,12,congruent,Right,Right,Left,66,65,1,yellow,2,5,/home/docky/apps/exp/images/66Y.jpeg,/home/docky/apps/exp/images/35Bi.jpeg,0,12,12,12,0,7,7,7,1843.8504253890023,None,1843.8504253890023,None,1,3.9419658039987553,1843.8504253890023,None,1847.8241093120014,None,1847.8241093120014,None,1850.329724547999,None,1850.329724547999,None,1.1839124359976267,1852.1321202479994,None,1852.1321202479994,None,5,1,1.0517362390019116,1853.3028552470023,None,1853.3028552470023,None,1853.3028552470023,None,1854.3711053840016,None,1,0.535611733001133,1854.3711053840016,None,152,1854.922708039001,None,125,A,1,2021_May_27_1508,GazeFlow,2020.1.2,59.87680001165658,
13,Block501.xls,A,,,,,,,,,,,,,,,,,,0,12,12,12,,,,,,,,,,,,,,,,,,,,,,,,,,,,,,,,,,,,,,,,,,,,125,A,1,2021_May_27_1508,GazeFlow,2020.1.2,59.87680001165658,
14,Block513.xls,A,13,1,32,32,12,congruent,Right,Right,Left,19,16,3,blue,2,5,/home/docky/apps/exp/images/19B.jpeg,/home/docky/apps/exp/images/16Bi.jpeg,0,13,13,13,0,0,0,0,1878.1522542519997,None,1878.1522542519997,None,1,7.471295527997427,1878.1522542519997,None,1885.6541257249992,None,1885.6541257249992,None,1888.1712705909995,None,1888.1712705909995,None,0.8328400470018096,1889.975207456002,None,1889.975207456002,None,5,1,1.2186289970013604,1890.7925700240012,None,1890.7925700240012,None,1890.7925700240012,None,1892.027651479002,None,1,0.5021186550002312,1892.027651479002,None,154,1892.5454186019997,None,125,A,1,2021_May_27_1508,GazeFlow,2020.1.2,59.87680001165658,
14,Block513.xls,A,13,2,81,21,21,incongruent,Right,Left,Right,38,39,1,yellow,2,6,/home/docky/apps/exp/images/38Yi.jpeg,/home/docky/apps/exp/images/39Y.jpeg,0,13,13,13,0,1,1,1,1893.547377630999,None,1893.547377630999,None,1,5.227334202001657,1893.547377630999,None,1898.8117892629998,None,1898.8117892629998,None,1901.3134451709993,None,1901.3134451709993,None,2.9711782899976242,1903.115291989001,None,1903.115291989001,None,6,1,1.086633131999406,1906.0873448759994,None,1906.0873448759994,None,1906.0873448759994,None,1907.1903697929993,None,1,0.38432270400153357,1907.1903697929993,None,156,1907.5913750250002,None,125,A,1,2021_May_27_1508,GazeFlow,2020.1.2,59.87680001165658,
14,Block513.xls,A,13,3,92,32,22,incongruent,Left,Right,Left,19,16,3,blue,2,5,/home/docky/apps/exp/images/19B.jpeg,/home/docky/apps/exp/images/16Bi.jpeg,0,13,13,13,0,2,2,2,1908.5937932640009,None,1908.5937932640009,None,1,3.289945913002157,1908.5937932640009,None,1911.9173070680008,None,1911.9173070680008,None,1914.4202279839992,None,1914.4202279839992,None,1.4346378650006955,1916.2235682890023,None,1916.2235682890023,None,5,1,1.7359293589979643,1917.6449239579997,None,1917.6449239579997,None,1917.6449239579997,None,1919.3976743870007,None,1,0.5515531819983153,1919.3976743870007,None,158,1919.965357363999,None,125,A,1,2021_May_27_1508,GazeFlow,2020.1.2,59.87680001165658,
14,Block513.xls,A,13,4,6,6,11,congruent,Left,Left,Right,65,66,1,blue,2,6,/home/docky/apps/exp/images/35Y.jpeg,/home/docky/apps/exp/images/66Bi.jpeg,0,13,13,13,0,3,3,3,1920.967783805001,None,1920.967783805001,None,1,4.509015160998388,1920.967783805001,None,1925.510429774,None,1925.510429774,None,1928.017882766002,None,1928.017882766002,None,1.384103841999604,1929.8171577390021,None,1929.8171577390021,None,6,1,1.0185861179998028,1931.187824192999,None,1931.187824192999,None,1931.187824192999,None,1932.2229519190005,None,1,0.434459751999384,1932.2229519190005,None,160,1932.6739232229993,None,125,A,1,2021_May_27_1508,GazeFlow,2020.1.2,59.87680001165658,
14,Block513.xls,A,13,5,67,7,21,incongruent,Right,Left,Right,38,39,1,blue,2,6,/home/docky/apps/exp/images/38Bi.jpeg,/home/docky/apps/exp/images/39B.jpeg,0,13,13,13,0,4,4,4,1933.6753925779994,None,1933.6753925779994,None,1,3.825282469002559,1933.6753925779994,None,1937.5338703880007,None,1937.5338703880007,None,1940.0364473299996,None,1940.0364473299996,None,1.1338159480001195,1941.8402489110013,None,1941.8402489110013,None,6,1,1.018140141000913,1942.9606977500007,None,1942.9606977500007,None,1942.9606977500007,None,1943.995505572002,None,1,0.33506888299962156,1943.995505572002,None,162,1944.3465124329996,None,125,A,1,2021_May_27_1508,GazeFlow,2020.1.2,59.87680001165658,
14,Block513.xls,A,13,6,111,51,22,incongruent,Left,Right,Left,66,65,1,yellow,2,5,/home/docky/apps/exp/images/66Yi.jpeg,/home/docky/apps/exp/images/35B.jpeg,0,13,13,13,0,5,5,5,1945.3481035780023,None,1945.3481035780023,None,1,3.023082810002961,1945.3481035780023,None,1948.409470216,None,1948.409470216,None,1950.9083972490007,None,1950.9083972490007,None,1.7348891049987287,1952.7116265969998,None,1952.7116265969998,None,5,1,3.2903264520027733,1954.4328182249992,None,1954.4328182249992,None,1954.4328182249992,None,1957.7391931650018,None,1,0.5515949830005411,1957.7391931650018,None,164,1958.306897642,None,125,A,1,2021_May_27_1508,GazeFlow,2020.1.2,59.87680001165658,
14,Block513.xls,A,13,7,88,28,21,incongruent,Right,Left,Right,79,82,3,yellow,2,6,/home/docky/apps/exp/images/79Y.jpeg,/home/docky/apps/exp/images/80Yi.jpeg,0,13,13,13,0,6,6,6,1959.3088178229991,None,1959.3088178229991,None,1,4.0586022839997895,1959.3088178229991,None,1963.4008018390014,None,1963.4008018390014,None,1965.9043404219992,None,1965.9043404219992,None,1.2336958660016535,1967.707150033999,None,1967.707150033999,None,6,1,1.0178268899981049,1968.9278205150003,None,1968.9278205150003,None,1968.9278205150003,None,1969.9625749129991,None,1,0.41777678899961757,1969.9625749129991,None,166,1970.3975224759997,None,125,A,1,2021_May_27_1508,GazeFlow,2020.1.2,59.87680001165658,
14,Block513.xls,A,13,8,14,14,11,congruent,Left,Left,Right,80,83,3,blue,2,6,/home/docky/apps/exp/images/80B.jpeg,/home/docky/apps/exp/images/83Bi.jpeg,0,13,13,13,0,7,7,7,1971.3985155379996,None,1971.3985155379996,None,1,3.507382616000541,1971.3985155379996,None,1974.939845969002,None,1974.939845969002,None,1977.4429664119998,None,1977.4429664119998,None,1.5343694369985315,1979.2415803149997,None,1979.2415803149997,None,6,1,1.0019325590001245,1980.767533877999,None,1980.767533877999,None,1980.767533877999,None,1981.7856347980014,None,1,0.45053937199918437,1981.7856347980014,None,168,1982.2527767600004,None,125,A,1,2021_May_27_1508,GazeFlow,2020.1.2,59.87680001165658,
14,Block513.xls,A,,,,,,,,,,,,,,,,,,0,13,13,13,,,,,,,,,,,,,,,,,,,,,,,,,,,,,,,,,,,,,,,,,,,,125,A,1,2021_May_27_1508,GazeFlow,2020.1.2,59.87680001165658,
15,Block514.xls,A,14,1,113,53,22,incongruent,Left,Right,Left,75,69,6,yellow,2,5,/home/docky/apps/exp/images/76Y.jpeg,/home/docky/apps/exp/images/69Yi.jpeg,0,14,14,14,0,0,0,0,2003.7961310360006,None,2003.7961310360006,None,1,4.782074278999062,2003.7961310360006,None,2008.6064282840016,None,2008.6064282840016,None,2011.1262975520003,None,2011.1262975520003,None,1.0997010410028452,2012.9297372299989,None,2012.9297372299989,None,5,1,1.1684086899986141,2014.014847284001,None,2014.014847284001,None,2014.014847284001,None,2015.1996985610022,None,1,0.5024444920018141,2015.1996985610022,None,170,2015.7178432750006,None,125,A,1,2021_May_27_1508,GazeFlow,2020.1.2,59.87680001165658,
15,Block514.xls,A,14,2,45,45,12,congruent,Right,Right,Left,39,38,1,blue,2,5,/home/docky/apps/exp/images/39B.jpeg,/home/docky/apps/exp/images/38Bi.jpeg,0,14,14,14,0,1,1,1,2016.7193092000016,None,2016.7193092000016,None,1,3.8414537089993246,2016.7193092000016,None,2020.5947961759994,None,2020.5947961759994,None,2023.0992996210007,None,2023.0992996210007,None,2.6537546509971435,2024.901591119,None,2024.901591119,None,5,1,1.034273368997674,2027.5581527370014,None,2027.5581527370014,None,2027.5581527370014,None,2028.6090102609996,None,1,0.4509819539998716,2028.6090102609996,None,172,2029.0766521040023,None,125,A,1,2021_May_27_1508,GazeFlow,2020.1.2,59.87680001165658,
15,Block514.xls,A,14,3,52,52,12,congruent,Right,Right,Left,75,69,6,yellow,2,5,/home/docky/apps/exp/images/76Y.jpeg,/home/docky/apps/exp/images/69Yi.jpeg,0,14,14,14,0,2,2,2,2030.0789977929999,None,2030.0789977929999,None,1,4.826226890996622,2030.0789977929999,None,2034.9391941930007,None,2034.9391941930007,None,2037.4440351859994,None,2037.4440351859994,None,1.9017997779992584,2039.2396403470011,None,2039.2396403470011,None,5,1,2.25429736300066,2041.1338360420013,None,2041.1338360420013,None,2041.1338360420013,None,2043.4042525850018,None,1,0.48490932200002135,2043.4042525850018,None,174,2043.9055963060018,None,125,A,1,2021_May_27_1508,GazeFlow,2020.1.2,59.87680001165658,
15,Block514.xls,A,14,4,106,46,22,incongruent,Left,Right,Left,35,33,2,yellow,2,5,/home/docky/apps/exp/images/35Yi.jpeg,/home/docky/apps/exp/images/33Y.jpeg,0,14,14,14,0,3,3,3,2044.9077381589996,None,2044.9077381589996,None,1,4.275647211001342,2044.9077381589996,None,2049.2167358219995,None,2049.2167358219995,None,2051.719587218002,None,2051.719587218002,None,1.0501179710008728,2053.522873271999,None,2053.522873271999,None,5,1,0.9346005500010506,2054.5598840640014,None,2054.5598840640014,None,2054.5598840640014,None,2055.510967418999,None,1,0.434869920998608,2055.510967418999,None,176,2055.9623080830024,None,125,A,1,2021_May_27_1508,GazeFlow,2020.1.2,59.87680001165658,
15,Block514.xls,A,14,5,109,49,22,incongruent,Left,Right,Left,39,38,1,yellow,2,5,/home/docky/apps/exp/images/39Yi.jpeg,/home/docky/apps/exp/images/38Y.jpeg,0,14,14,14,0,4,4,4,2056.963933121002,None,2056.963933121002,None,1,4.793582127000263,2056.963933121002,None,2061.790883313999,None,2061.790883313999,None,2064.2936567489996,None,2064.2936567489996,None,4.958467731001292,2066.0966730639993,None,2066.0966730639993,None,5,1,4.525287045002187,2071.058556594002,None,2071.058556594002,None,2071.058556594002,None,2075.600239018,None,1,0.48483969299923046,2075.600239018,None,178,2076.1012975070007,None,125,A,1,2021_May_27_1508,GazeFlow,2020.1.2,59.87680001165658,
15,Block514.xls,A,14,6,89,29,21,incongruent,Right,Left,Right,79,82,3,yellow,2,6,/home/docky/apps/exp/images/79Yi.jpeg,/home/docky/apps/exp/images/80Y.jpeg,0,14,14,14,0,5,5,5,2077.103342647002,None,2077.103342647002,None,1,5.160065880001639,2077.103342647002,None,2082.2900936900005,None,2082.2900936900005,None,2084.800596917001,None,2084.800596917001,None,1.7179495450000104,2086.603675205002,None,2086.603675205002,None,6,1,1.4354772129991034,2088.308575551,None,2088.308575551,None,2088.308575551,None,2089.7604693370013,None,1,0.4343875630002003,2089.7604693370013,None,180,2090.2117685949997,None,125,A,1,2021_May_27_1508,GazeFlow,2020.1.2,59.87680001165658,
15,Block514.xls,A,14,7,91,31,22,incongruent,Left,Right,Left,19,16,3,blue,2,5,/home/docky/apps/exp/images/19Bi.jpeg,/home/docky/apps/exp/images/16B.jpeg,0,14,14,14,0,6,6,6,2091.2139458679994,None,2091.2139458679994,None,1,3.7574726099992404,2091.2139458679994,None,2095.005327578001,None,2095.005327578001,None,2097.510347301999,None,2097.510347301999,None,2.820559013001912,2099.307512894,None,2099.307512894,None,5,1,1.8526568980014417,2102.135655473001,None,2102.135655473001,None,2102.135655473001,None,2104.0049214739993,None,1,0.551551376000134,2104.0049214739993,None,182,2104.572917867001,None,125,A,1,2021_May_27_1508,GazeFlow,2020.1.2,59.87680001165658,
15,Block514.xls,A,14,8,79,19,21,incongruent,Right,Left,Right,62,65,3,yellow,2,6,/home/docky/apps/exp/images/38B.jpeg,/home/docky/apps/exp/images/35Bi.jpeg,0,14,14,14,0,7,7,7,2105.5750036339996,None,2105.5750036339996,None,1,4.141615065000224,2105.5750036339996,None,2109.7477881199993,None,2109.7477881199993,None,2112.2536474430017,None,2112.2536474430017,None,3.104792019999877,2114.056099059999,None,2114.056099059999,None,6,1,4.241151143000025,2117.164695165,None,2117.164695165,None,2117.164695165,None,2121.4223156000007,None,1,0.46774440000081086,2121.4223156000007,None,184,2121.9066261379994,None,125,A,1,2021_May_27_1508,GazeFlow,2020.1.2,59.87680001165658,
15,Block514.xls,A,,,,,,,,,,,,,,,,,,0,14,14,14,,,,,,,,,,,,,,,,,,,,,,,,,,,,,,,,,,,,,,,,,,,,125,A,1,2021_May_27_1508,GazeFlow,2020.1.2,59.87680001165658,
