Nblock,condsFile,grouping,Block,TrialBlock,N,trialN,trialCond,gazeCon,gazedirR,corrBinR,corrBinP,valLBY,valRBY,diff,colorCube,feedbacktext,corrAns,imageL,imageR,SelBlocks.thisRepN,SelBlocks.thisTrialN,SelBlocks.thisN,SelBlocks.thisIndex,Trials.thisRepN,Trials.thisTrialN,Trials.thisN,Trials.thisIndex,waitCube.started,waitCube.stopped,text_3.started,text_3.stopped,StartKeyPress.keys,StartKeyPress.rt,StartKeyPress.started,StartKeyPress.stopped,StimL.started,StimL.stopped,StimR.started,StimR.stopped,imageStim2L.started,imageStim2L.stopped,imageStim2R.started,imageStim2R.stopped,RTkeyRelease,imageStim3L.started,imageStim3L.stopped,imageStim3R.started,imageStim3R.stopped,dropResp.keys,dropResp.corr,dropResp.rt,dropResp.started,dropResp.stopped,imageStim5L.started,imageStim5L.stopped,imageStim5R.started,imageStim5R.stopped,text_2.started,text_2.stopped,ReturnSpace.keys,ReturnSpace.rt,ReturnSpace.started,ReturnSpace.stopped,totalpoints,textFeedback.started,textFeedback.stopped,participant,group,session,date,expName,psychopyVersion,frameRate,
1,Block809.xls,B,9,1,93,93,None,congruent,Right,Right,Left,80,79,1,yellow,2,5,/home/docky/apps/exp/images/80Y.jpeg,/home/docky/apps/exp/images/79Yi.jpeg,0,0,0,0,0,0,0,0,32.04328042199995,None,32.04328042199995,None,1,22.182923339001718,32.04328042199995,None,54.257577264001156,None,54.257577264001156,None,56.774116376000165,None,56.774116376000165,None,1.2499623779985995,58.57691818100284,None,58.57691818100284,None,5,1,0.9017485769982159,59.81018942300216,None,59.81018942300216,None,59.81018942300216,None,60.72811652400196,None,1,0.9185366650017386,60.72811652400196,None,2,61.663232995000726,None,126,B,1,2021_May_27_1626,GazeFlow,2020.1.2,59.86381496984097,
1,Block809.xls,B,9,2,15,15,None,congruent,Left,Left,Right,38,39,1,blue,2,6,/home/docky/apps/exp/images/38B.jpeg,/home/docky/apps/exp/images/39Bi.jpeg,0,0,0,0,0,1,1,1,62.665178889001254,None,62.665178889001254,None,1,4.860135205999541,62.665178889001254,None,67.55924353199953,None,67.55924353199953,None,70.06385101700289,None,70.06385101700289,None,1.2004045260000566,71.86030673300047,None,71.86030673300047,None,6,1,0.9678132280023419,73.05279815500035,None,73.05279815500035,None,73.05279815500035,None,74.03722476100302,None,1,0.7850381249991187,74.03722476100302,None,4,74.83884172000035,None,126,B,1,2021_May_27_1626,GazeFlow,2020.1.2,59.86381496984097,
1,Block809.xls,B,9,3,117,21,None,incongruent,Left,Right,Left,39,38,1,yellow,2,5,/home/docky/apps/exp/images/39Yi.jpeg,/home/docky/apps/exp/images/38Y.jpeg,0,0,0,0,0,2,2,2,75.84072216999994,None,75.84072216999994,None,1,4.6096973460007575,75.84072216999994,None,80.48433506700167,None,80.48433506700167,None,82.98753824800224,None,82.98753824800224,None,1.2507143000002543,84.78630166800212,None,84.78630166800212,None,5,1,0.8843331870011752,86.02811077700244,None,86.02811077700244,None,86.02811077700244,None,86.92911093800285,None,1,0.7186949890019605,86.92911093800285,None,6,87.66413404299965,None,126,B,1,2021_May_27_1626,GazeFlow,2020.1.2,59.86381496984097,
1,Block809.xls,B,9,4,94,94,None,congruent,Right,Right,Left,80,79,1,yellow,2,5,/home/docky/apps/exp/images/80Y.jpeg,/home/docky/apps/exp/images/79Yi.jpeg,0,0,0,0,0,3,3,3,88.66578325700175,None,88.66578325700175,None,1,4.96033388199794,88.66578325700175,None,93.6595842429997,None,93.6595842429997,None,96.16474059500251,None,96.16474059500251,None,1.2341360869977507,97.96835759100213,None,97.96835759100213,None,5,1,1.0013651219996973,99.18685191199984,None,99.18685191199984,None,99.18685191199984,None,100.20473796000078,None,1,0.7345608069990703,100.20473796000078,None,8,100.9563652220022,None,126,B,1,2021_May_27_1626,GazeFlow,2020.1.2,59.86381496984097,
1,Block809.xls,B,9,5,41,41,None,congruent,Right,Right,Left,79,76,3,blue,2,5,/home/docky/apps/exp/images/79Bi.jpeg,/home/docky/apps/exp/images/76B.jpeg,0,0,0,0,0,4,4,4,101.95852291300253,None,101.95852291300253,None,1,4.709657796000101,101.95852291300253,None,106.69969396000306,None,106.69969396000306,None,109.2049108650026,None,109.2049108650026,None,1.2504950460024702,111.007859698002,None,111.007859698002,None,6,0,0.9516354930019588,112.24545566000234,None,112.24545566000234,None,112.24545566000234,None,113.21336770000198,None,1,0.7351936640006898,113.21336770000198,None,6,113.96467010200286,None,126,B,1,2021_May_27_1626,GazeFlow,2020.1.2,59.86381496984097,
1,Block809.xls,B,9,6,36,36,None,congruent,Right,Right,Left,79,73,6,blue,2,5,/home/docky/apps/exp/images/79Bi.jpeg,/home/docky/apps/exp/images/73B.jpeg,0,0,0,0,0,5,5,5,114.96679836200201,None,114.96679836200201,None,1,4.409600651000801,114.96679836200201,None,119.40982058200098,None,119.40982058200098,None,121.91433888400206,None,121.91433888400206,None,1.3003740799977095,123.71086229300272,None,123.71086229300272,None,5,1,1.0190530389991181,125.00331574400116,None,125.00331574400116,None,125.00331574400116,None,126.03881065700261,None,1,0.8008927819973906,126.03881065700261,None,8,126.85653129400089,None,126,B,1,2021_May_27_1626,GazeFlow,2020.1.2,59.86381496984097,
1,Block809.xls,B,9,7,78,78,None,congruent,Right,Right,Left,39,38,1,yellow,2,5,/home/docky/apps/exp/images/39Yi.jpeg,/home/docky/apps/exp/images/38Y.jpeg,0,0,0,0,0,6,6,6,127.85828294800012,None,127.85828294800012,None,1,4.443288028000097,127.85828294800012,None,132.3351948890013,None,132.3351948890013,None,134.83848839100028,None,134.83848839100028,None,1.2674388609993912,136.6417587830001,None,136.6417587830001,None,5,1,1.1189123050025955,137.89529165500062,None,137.89529165500062,None,137.89529165500062,None,139.03070535900042,None,1,0.7343150330016215,139.03070535900042,None,10,139.78186743300103,None,126,B,1,2021_May_27_1626,GazeFlow,2020.1.2,59.86381496984097,
1,Block809.xls,B,9,8,29,29,None,congruent,Right,Right,Left,38,35,3,blue,2,5,/home/docky/apps/exp/images/38B.jpeg,/home/docky/apps/exp/images/35Bi.jpeg,0,0,0,0,0,7,7,7,140.78384606100008,None,140.78384606100008,None,1,4.609387129999959,140.78384606100008,None,145.42708648100233,None,145.42708648100233,None,147.93216408599983,None,147.93216408599983,None,1.2005761920008808,149.7281960319997,None,149.7281960319997,None,6,0,1.051297224003065,150.92061756100156,None,150.92061756100156,None,150.92061756100156,None,151.98891543900027,None,1,0.6518579779985885,151.98891543900027,None,8,152.65710482400027,None,126,B,1,2021_May_27_1626,GazeFlow,2020.1.2,59.86381496984097,
1,Block809.xls,B,,,,,,,,,,,,,,,,,,0,0,0,0,,,,,,,,,,,,,,,,,,,,,,,,,,,,,,,,,,,,,,,,,,,,126,B,1,2021_May_27_1626,GazeFlow,2020.1.2,59.86381496984097,
2,Block805.xls,B,5,1,16,16,None,congruent,Left,Left,Right,73,76,3,blue,2,6,/home/docky/apps/exp/images/73B.jpeg,/home/docky/apps/exp/images/76Bi.jpeg,0,1,1,1,0,0,0,0,173.41671823100114,None,173.41671823100114,None,1,5.663078843001131,173.41671823100114,None,179.1040761910008,None,179.1040761910008,None,181.63065727600042,None,181.63065727600042,None,1.283768601999327,183.43430910700044,None,183.43430910700044,None,6,1,1.035188460999052,184.70267281400083,None,184.70267281400083,None,184.70267281400083,None,185.75482099800138,None,1,0.7009719609995955,185.75482099800138,None,10,186.4721538949998,None,126,B,1,2021_May_27_1626,GazeFlow,2020.1.2,59.86381496984097,
2,Block805.xls,B,5,2,2,2,None,congruent,Left,Left,Right,16,19,3,blue,2,6,/home/docky/apps/exp/images/16B.jpeg,/home/docky/apps/exp/images/19Bi.jpeg,0,1,1,1,0,1,1,1,187.4744482060014,None,187.4744482060014,None,1,3.9749673299993447,187.4744482060014,None,191.48540844200033,None,191.48540844200033,None,193.98787299800097,None,193.98787299800097,None,1.300667126000917,195.78477451800063,None,195.78477451800063,None,6,1,1.03477131299951,197.07685561499966,None,197.07685561499966,None,197.07685561499966,None,198.1283837120027,None,1,0.6681331060026423,198.1283837120027,None,12,198.81290452800022,None,126,B,1,2021_May_27_1626,GazeFlow,2020.1.2,59.86381496984097,
2,Block805.xls,B,5,3,64,64,None,congruent,Left,Left,Right,69,76,7,yellow,2,6,/home/docky/apps/exp/images/69Y.jpeg,/home/docky/apps/exp/images/76Yi.jpeg,0,1,1,1,0,2,2,2,199.81505042700155,None,199.81505042700155,None,1,4.2759605329993065,199.81505042700155,None,204.12415715800307,None,204.12415715800307,None,206.6278940560005,None,206.6278940560005,None,1.3006206790014403,208.43257032900146,None,208.43257032900146,None,6,1,1.001580822001415,209.71806942799958,None,209.71806942799958,None,209.71806942799958,None,210.73612104300264,None,1,0.6354849430026661,210.73612104300264,None,14,211.38764113400248,None,126,B,1,2021_May_27_1626,GazeFlow,2020.1.2,59.86381496984097,
2,Block805.xls,B,5,4,61,61,None,congruent,Left,Left,Right,38,39,1,yellow,2,6,/home/docky/apps/exp/images/38Yi.jpeg,/home/docky/apps/exp/images/39Y.jpeg,0,1,1,1,0,3,3,3,212.38946420200227,None,212.38946420200227,None,1,4.308989951001422,212.38946420200227,None,216.73226024200267,None,216.73226024200267,None,219.23895785300192,None,219.23895785300192,None,1.350880499001505,221.03891324800134,None,221.03891324800134,None,5,0,1.0347082989974297,222.37609401300142,None,222.37609401300142,None,222.37609401300142,None,223.4283530160028,None,1,0.5675596090004547,223.4283530160028,None,12,224.01232293400244,None,126,B,1,2021_May_27_1626,GazeFlow,2020.1.2,59.86381496984097,
2,Block805.xls,B,5,5,23,23,None,congruent,Left,Left,Right,80,83,3,blue,2,6,/home/docky/apps/exp/images/80B.jpeg,/home/docky/apps/exp/images/83Bi.jpeg,0,1,1,1,0,4,4,4,225.01395384100033,None,225.01395384100033,None,1,4.726261629002693,225.01395384100033,None,229.77435851799964,None,229.77435851799964,None,232.28468847200202,None,232.28468847200202,None,1.4010147430017241,234.08026941299977,None,234.08026941299977,None,6,1,1.0019008410017705,235.46839182000258,None,235.46839182000258,None,235.46839182000258,None,236.48680158900243,None,1,0.5843367999987095,236.48680158900243,None,14,237.08729055000003,None,126,B,1,2021_May_27_1626,GazeFlow,2020.1.2,59.86381496984097,
2,Block805.xls,B,5,6,87,87,None,congruent,Right,Right,Left,76,69,7,yellow,2,5,/home/docky/apps/exp/images/76Yi.jpeg,/home/docky/apps/exp/images/69Y.jpeg,0,1,1,1,0,5,5,5,238.08946286500213,None,238.08946286500213,None,1,7.030907685999409,238.08946286500213,None,245.153925816001,None,245.153925816001,None,247.65889509000044,None,247.65889509000044,None,1.300818595002056,249.46033912300118,None,249.46033912300118,None,5,1,0.9685822430001281,250.74764207300177,None,250.74764207300177,None,250.74764207300177,None,251.73287751500175,None,1,0.7345477800008666,251.73287751500175,None,16,252.48400552100065,None,126,B,1,2021_May_27_1626,GazeFlow,2020.1.2,59.86381496984097,
2,Block805.xls,B,5,7,4,4,None,congruent,Left,Left,Right,35,38,3,blue,2,6,/home/docky/apps/exp/images/35B.jpeg,/home/docky/apps/exp/images/38Bi.jpeg,0,1,1,1,0,6,6,6,253.48607523800092,None,253.48607523800092,None,1,4.826412533999246,253.48607523800092,None,258.3463114410006,None,258.3463114410006,None,260.84973227700175,None,260.84973227700175,None,1.233750165996753,262.65253420299996,None,262.65253420299996,None,6,1,1.1016194339972571,263.87330768800166,None,263.87330768800166,None,263.87330768800166,None,264.99186579600064,None,1,0.7176747909979895,264.99186579600064,None,18,265.72641223699975,None,126,B,1,2021_May_27_1626,GazeFlow,2020.1.2,59.86381496984097,
2,Block805.xls,B,5,8,114,18,None,incongruent,Right,Left,Right,79,82,3,yellow,2,6,/home/docky/apps/exp/images/79Y.jpeg,/home/docky/apps/exp/images/80Yi.jpeg,0,1,1,1,0,7,7,7,266.72836701900087,None,266.72836701900087,None,1,4.509719276000396,266.72836701900087,None,271.27164174599966,None,271.27164174599966,None,273.77494419100185,None,273.77494419100185,None,1.1674634170012723,275.57969434500046,None,275.57969434500046,None,6,1,1.0858025849993282,276.7313293620027,None,276.7313293620027,None,276.7313293620027,None,277.8336823330028,None,1,0.6181495399978303,277.8336823330028,None,20,278.46767403000194,None,126,B,1,2021_May_27_1626,GazeFlow,2020.1.2,59.86381496984097,
2,Block805.xls,B,,,,,,,,,,,,,,,,,,0,1,1,1,,,,,,,,,,,,,,,,,,,,,,,,,,,,,,,,,,,,,,,,,,,,126,B,1,2021_May_27_1626,GazeFlow,2020.1.2,59.86381496984097,
3,Block804.xls,B,4,1,95,95,None,congruent,Right,Right,Left,80,79,1,yellow,2,5,/home/docky/apps/exp/images/80Yi.jpeg,/home/docky/apps/exp/images/79Y.jpeg,0,2,2,2,0,0,0,0,298.90771830200174,None,298.90771830200174,None,1,4.952313280999078,298.90771830200174,None,303.883708045003,None,303.883708045003,None,306.40650504600126,None,306.40650504600126,None,1.1833800610002072,308.2097805049998,None,308.2097805049998,None,5,1,1.0014155940007186,309.37831760300105,None,309.37831760300105,None,309.37831760300105,None,310.39642405900304,None,1,0.6856496629989124,310.39642405900304,None,22,311.0982603520024,None,126,B,1,2021_May_27_1626,GazeFlow,2020.1.2,59.86381496984097,
3,Block804.xls,B,4,2,107,11,None,incongruent,Left,Right,Left,83,80,3,blue,2,5,/home/docky/apps/exp/images/83Bi.jpeg,/home/docky/apps/exp/images/80B.jpeg,0,2,2,2,0,1,1,1,312.0996552510005,None,312.0996552510005,None,1,4.5763128519975,312.0996552510005,None,316.70918819000144,None,316.70918819000144,None,319.2144519950016,None,319.2144519950016,None,1.1836966319970088,321.0163527320001,None,321.0163527320001,None,5,1,1.0013448399986373,322.1865625110004,None,322.1865625110004,None,322.1865625110004,None,323.20456903000013,None,1,0.635592901999189,323.20456903000013,None,24,323.856247994001,None,126,B,1,2021_May_27_1626,GazeFlow,2020.1.2,59.86381496984097,
3,Block804.xls,B,4,3,27,27,None,congruent,Right,Right,Left,19,16,3,blue,2,5,/home/docky/apps/exp/images/19Bi.jpeg,/home/docky/apps/exp/images/16B.jpeg,0,2,2,2,0,2,2,2,324.85782065999956,None,324.85782065999956,None,1,5.060996315998636,324.85782065999956,None,329.95225213100275,None,329.95225213100275,None,332.4595656920028,None,332.4595656920028,None,1.2839345860011235,334.2589193929998,None,334.2589193929998,None,5,1,1.152326990999427,335.5291613210029,None,335.5291613210029,None,335.5291613210029,None,336.69794890400226,None,1,0.5672934289978002,336.69794890400226,None,26,337.282018889,None,126,B,1,2021_May_27_1626,GazeFlow,2020.1.2,59.86381496984097,
3,Block804.xls,B,4,4,101,5,None,incongruent,Right,Left,Right,76,79,3,blue,2,6,/home/docky/apps/exp/images/76B.jpeg,/home/docky/apps/exp/images/79Bi.jpeg,0,2,2,2,0,3,3,3,338.28390673800095,None,338.28390673800095,None,1,4.6773312669974985,338.28390673800095,None,342.99392263400296,None,342.99392263400296,None,345.5022009170025,None,345.5022009170025,None,1.3340974180027843,347.30025496300004,None,347.30025496300004,None,5,0,1.001977440999326,348.62122107400137,None,348.62122107400137,None,348.62122107400137,None,349.6397566100022,None,1,0.5840781980004977,349.6397566100022,None,24,350.2402862960007,None,126,B,1,2021_May_27_1626,GazeFlow,2020.1.2,59.86381496984097,
3,Block804.xls,B,4,5,47,47,None,congruent,Right,Right,Left,39,38,1,blue,2,5,/home/docky/apps/exp/images/39Bi.jpeg,/home/docky/apps/exp/images/38B.jpeg,0,2,2,2,0,4,4,4,351.2425687040013,None,351.2425687040013,None,1,4.676768164998066,351.2425687040013,None,355.9527756380012,None,355.9527756380012,None,358.4574590459997,None,358.4574590459997,None,1.3676041170001554,360.26121943100225,None,360.26121943100225,None,6,0,1.1013937419993454,361.61331824100125,None,361.61331824100125,None,361.61331824100125,None,362.731300063002,None,1,0.6516885019991605,362.731300063002,None,22,363.39926101600213,None,126,B,1,2021_May_27_1626,GazeFlow,2020.1.2,59.86381496984097,
3,Block804.xls,B,4,6,90,90,None,congruent,Right,Right,Left,77,72,5,yellow,2,5,/home/docky/apps/exp/images/77Yi.jpeg,/home/docky/apps/exp/images/72Y.jpeg,0,2,2,2,0,5,5,5,364.4017712950008,None,364.4017712950008,None,1,5.344405510997603,364.4017712950008,None,369.7807082690015,None,369.7807082690015,None,372.2843678540012,None,372.2843678540012,None,1.3175846559970523,374.08545484000206,None,374.08545484000206,None,5,1,1.0522740369997337,375.3898320770022,None,375.3898320770022,None,375.3898320770022,None,376.4584843940029,None,1,0.634052238001459,376.4584843940029,None,24,377.10946272,None,126,B,1,2021_May_27_1626,GazeFlow,2020.1.2,59.86381496984097,
3,Block804.xls,B,4,7,12,12,None,congruent,Left,Left,Right,38,39,1,blue,2,6,/home/docky/apps/exp/images/38B.jpeg,/home/docky/apps/exp/images/39Bi.jpeg,0,2,2,2,0,6,6,6,378.1113233390024,None,378.1113233390024,None,1,4.926934993000032,378.1113233390024,None,383.07194312499996,None,383.07194312499996,None,385.5767570630014,None,385.5767570630014,None,1.2337358639997547,387.3790465810016,None,387.3790465810016,None,6,1,1.0681890920022852,388.5986803859996,None,388.5986803859996,None,388.5986803859996,None,389.6837665640014,None,1,0.5520920339986333,389.6837665640014,None,26,390.2519675550029,None,126,B,1,2021_May_27_1626,GazeFlow,2020.1.2,59.86381496984097,
3,Block804.xls,B,4,8,20,20,None,congruent,Left,Left,Right,76,79,3,blue,2,6,/home/docky/apps/exp/images/76Bi.jpeg,/home/docky/apps/exp/images/79B.jpeg,0,2,2,2,0,7,7,7,391.25344164000126,None,391.25344164000126,None,1,4.392879046998132,391.25344164000126,None,395.6799625450003,None,395.6799625450003,None,398.1831022330007,None,398.1831022330007,None,1.1503954349973355,399.98598098300135,None,399.98598098300135,None,6,1,1.0181860420016164,401.12332915500156,None,401.12332915500156,None,401.12332915500156,None,402.1581307350025,None,1,0.6682864020003763,402.1581307350025,None,28,402.84306560200275,None,126,B,1,2021_May_27_1626,GazeFlow,2020.1.2,59.86381496984097,
3,Block804.xls,B,,,,,,,,,,,,,,,,,,0,2,2,2,,,,,,,,,,,,,,,,,,,,,,,,,,,,,,,,,,,,,,,,,,,,126,B,1,2021_May_27_1626,GazeFlow,2020.1.2,59.86381496984097,
4,Block814.xls,B,14,1,99,3,None,incongruent,Right,Left,Right,65,66,1,blue,2,6,/home/docky/apps/exp/images/35Yi.jpeg,/home/docky/apps/exp/images/66B.jpeg,0,3,3,3,0,0,0,0,423.6850940280019,None,423.6850940280019,None,1,4.395656802000303,423.6850940280019,None,428.09555478699986,None,428.09555478699986,None,430.6144055479999,None,430.6144055479999,None,1.0998269369993068,432.4164077610003,None,432.4164077610003,None,5,0,1.0850052440000582,433.50288584699956,None,433.50288584699956,None,433.50288584699956,None,434.60431264400177,None,1,0.635269046000758,434.60431264400177,None,26,435.2560653340006,None,126,B,1,2021_May_27_1626,GazeFlow,2020.1.2,59.86381496984097,
4,Block814.xls,B,14,2,34,34,None,congruent,Right,Right,Left,66,65,1,blue,2,5,/home/docky/apps/exp/images/66B.jpeg,/home/docky/apps/exp/images/35Yi.jpeg,0,3,3,3,0,1,1,1,436.25785471400013,None,436.25785471400013,None,1,4.693348353997862,436.25785471400013,None,440.9847451200003,None,440.9847451200003,None,443.48903272400275,None,443.48903272400275,None,1.2174128070000734,445.2912211310031,None,445.2912211310031,None,5,1,1.0516108960000565,446.494549072002,None,446.494549072002,None,446.494549072002,None,447.5633810140025,None,1,0.650685295000585,447.5633810140025,None,28,448.2307451980014,None,126,B,1,2021_May_27_1626,GazeFlow,2020.1.2,59.86381496984097,
4,Block814.xls,B,14,3,91,91,None,congruent,Right,Right,Left,77,72,5,yellow,2,5,/home/docky/apps/exp/images/77Yi.jpeg,/home/docky/apps/exp/images/72Y.jpeg,0,3,3,3,0,2,2,2,449.2329327059997,None,449.2329327059997,None,1,4.676182121998863,449.2329327059997,None,453.94280032000097,None,453.94280032000097,None,456.4460878960017,None,456.4460878960017,None,1.1003655649983557,458.2496272310018,None,458.2496272310018,None,5,1,1.0679830139997648,459.3364958530001,None,459.3364958530001,None,459.3364958530001,None,460.4213670420031,None,1,0.6520036239999172,460.4213670420031,None,30,461.0896754280002,None,126,B,1,2021_May_27_1626,GazeFlow,2020.1.2,59.86381496984097,
4,Block814.xls,B,14,4,68,68,None,congruent,Left,Left,Right,72,77,5,yellow,2,6,/home/docky/apps/exp/images/72Yi.jpeg,/home/docky/apps/exp/images/77Y.jpeg,0,3,3,3,0,3,3,3,462.09118349500204,None,462.09118349500204,None,1,4.3755630960004055,462.09118349500204,None,466.50125134799964,None,466.50125134799964,None,469.00341488900085,None,469.00341488900085,None,1.2675052029990184,470.802554099002,None,470.802554099002,None,6,1,1.2029242270000395,472.06096385300043,None,472.06096385300043,None,472.06096385300043,None,473.27991967100024,None,1,0.8515894009979093,473.27991967100024,None,32,474.1477987970029,None,126,B,1,2021_May_27_1626,GazeFlow,2020.1.2,59.86381496984097,
4,Block814.xls,B,14,5,66,66,None,congruent,Left,Left,Right,69,76,7,yellow,2,6,/home/docky/apps/exp/images/69Yi.jpeg,/home/docky/apps/exp/images/76Y.jpeg,0,3,3,3,0,4,4,4,475.14979674999995,None,475.14979674999995,None,1,4.926945071998489,475.14979674999995,None,480.11056867300067,None,480.11056867300067,None,482.6138383960024,None,482.6138383960024,None,1.0668595310016826,484.41657708300045,None,484.41657708300045,None,6,1,1.1183258399978513,485.4704207870018,None,485.4704207870018,None,485.4704207870018,None,486.60523613999976,None,1,0.6020131270015554,486.60523613999976,None,34,487.2237733639995,None,126,B,1,2021_May_27_1626,GazeFlow,2020.1.2,59.86381496984097,
4,Block814.xls,B,14,6,115,19,None,incongruent,Left,Right,Left,80,79,1,yellow,2,5,/home/docky/apps/exp/images/80Yi.jpeg,/home/docky/apps/exp/images/79Y.jpeg,0,3,3,3,0,5,5,5,488.2251410830031,None,488.2251410830031,None,1,4.977086515002156,488.2251410830031,None,493.2360284530005,None,493.2360284530005,None,495.7407677400006,None,495.7407677400006,None,1.000410053999076,497.54209992600227,None,497.54209992600227,None,5,1,1.0514978239989432,498.5292261550021,None,498.5292261550021,None,498.5292261550021,None,499.5974448920024,None,1,0.6346971710008802,499.5974448920024,None,36,500.24848053499954,None,126,B,1,2021_May_27_1626,GazeFlow,2020.1.2,59.86381496984097,
4,Block814.xls,B,14,7,9,9,None,congruent,Left,Left,Right,65,66,1,blue,2,6,/home/docky/apps/exp/images/35Yi.jpeg,/home/docky/apps/exp/images/66B.jpeg,0,3,3,3,0,6,6,6,501.2506472599998,None,501.2506472599998,None,1,4.492558501999156,501.2506472599998,None,505.7769214740001,None,505.7769214740001,None,508.2819458220001,None,508.2819458220001,None,1.3175675560014497,510.08577058500305,None,510.08577058500305,None,6,1,1.1019237990003603,511.3874341390001,None,511.3874341390001,None,511.3874341390001,None,512.506126237,None,1,0.551765145999525,512.506126237,None,38,513.0738692750019,None,126,B,1,2021_May_27_1626,GazeFlow,2020.1.2,59.86381496984097,
4,Block814.xls,B,14,8,14,14,None,congruent,Left,Left,Right,38,39,1,blue,2,6,/home/docky/apps/exp/images/38Bi.jpeg,/home/docky/apps/exp/images/39B.jpeg,0,3,3,3,0,7,7,7,514.0755045590013,None,514.0755045590013,None,1,4.209194262002711,514.0755045590013,None,518.3180101300022,None,518.3180101300022,None,520.822803670002,None,520.822803670002,None,1.2676644829989527,522.6249681570007,None,522.6249681570007,None,5,0,1.0515752939973027,523.8783256690003,None,523.8783256690003,None,523.8783256690003,None,524.9465143720008,None,1,0.6024752110024565,524.9465143720008,None,36,525.5648120510014,None,126,B,1,2021_May_27_1626,GazeFlow,2020.1.2,59.86381496984097,
4,Block814.xls,B,,,,,,,,,,,,,,,,,,0,3,3,3,,,,,,,,,,,,,,,,,,,,,,,,,,,,,,,,,,,,,,,,,,,,126,B,1,2021_May_27_1626,GazeFlow,2020.1.2,59.86381496984097,
5,Block812.xls,B,12,1,18,18,None,congruent,Left,Left,Right,73,76,3,blue,2,6,/home/docky/apps/exp/images/73B.jpeg,/home/docky/apps/exp/images/76Bi.jpeg,0,4,4,4,0,0,0,0,551.1459468970024,None,551.1459468970024,None,1,5.469828755998606,551.1459468970024,None,556.6410967890006,None,556.6410967890006,None,559.164157301002,None,559.164157301002,None,1.1326720789984392,560.9674946790001,None,560.9674946790001,None,6,1,0.9842093710030895,562.0862947170026,None,562.0862947170026,None,562.0862947170026,None,563.0870329550016,None,1,0.6187006680011109,563.0870329550016,None,38,563.7221951480024,None,126,B,1,2021_May_27_1626,GazeFlow,2020.1.2,59.86381496984097,
5,Block812.xls,B,12,2,3,3,None,congruent,Left,Left,Right,16,19,3,blue,2,6,/home/docky/apps/exp/images/16Bi.jpeg,/home/docky/apps/exp/images/19B.jpeg,0,4,4,4,0,1,1,1,564.7238150720004,None,564.7238150720004,None,1,4.926989358998981,564.7238150720004,None,569.6846473850019,None,569.6846473850019,None,572.1877692100024,None,572.1877692100024,None,1.2840101759975369,573.9927413650003,None,573.9927413650003,None,6,1,1.0686115530006646,575.2614629640011,None,575.2614629640011,None,575.2614629640011,None,576.3460613269999,None,1,0.7015070540001034,576.3460613269999,None,40,577.0644191259998,None,126,B,1,2021_May_27_1626,GazeFlow,2020.1.2,59.86381496984097,
5,Block812.xls,B,12,3,56,56,None,congruent,Left,Left,Right,62,65,3,yellow,2,6,/home/docky/apps/exp/images/38Bi.jpeg,/home/docky/apps/exp/images/35B.jpeg,0,4,4,4,0,2,2,2,578.0665367450019,None,578.0665367450019,None,1,4.726877903001878,578.0665367450019,None,582.8267445290003,None,582.8267445290003,None,585.3297767530021,None,585.3297767530021,None,1.2340351279999595,587.1328276530003,None,587.1328276530003,None,6,1,1.034874012999353,588.3537089180027,None,588.3537089180027,None,588.3537089180027,None,589.4050359419998,None,1,0.7019096930016531,589.4050359419998,None,42,590.1235990670029,None,126,B,1,2021_May_27_1626,GazeFlow,2020.1.2,59.86381496984097,
5,Block812.xls,B,12,4,11,11,None,congruent,Left,Left,Right,38,39,1,blue,2,6,/home/docky/apps/exp/images/38B.jpeg,/home/docky/apps/exp/images/39Bi.jpeg,0,4,4,4,0,3,3,3,591.1251165470021,None,591.1251165470021,None,1,4.192737412999122,591.1251165470021,None,595.3511782740025,None,595.3511782740025,None,597.8538789390004,None,597.8538789390004,None,1.1673488970009203,599.6593980790021,None,599.6593980790021,None,6,1,0.9678072589995281,600.8112125510015,None,600.8112125510015,None,600.8112125510015,None,601.7959604150019,None,1,0.5507745340000838,601.7959604150019,None,44,602.363462456,None,126,B,1,2021_May_27_1626,GazeFlow,2020.1.2,59.86381496984097,
5,Block812.xls,B,12,5,116,20,None,incongruent,Left,Right,Left,35,33,2,yellow,2,5,/home/docky/apps/exp/images/35Yi.jpeg,/home/docky/apps/exp/images/33Y.jpeg,0,4,4,4,0,4,4,4,603.3657595950026,None,603.3657595950026,None,1,4.443005668999831,603.3657595950026,None,607.8419066220013,None,607.8419066220013,None,610.3446944900024,None,610.3446944900024,None,1.1168769730029453,612.1482646010008,None,612.1482646010008,None,5,1,1.0181279159987753,613.2521047760019,None,613.2521047760019,None,613.2521047760019,None,614.2867661470009,None,1,0.5677714630000992,614.2867661470009,None,46,614.8712841570014,None,126,B,1,2021_May_27_1626,GazeFlow,2020.1.2,59.86381496984097,
5,Block812.xls,B,12,6,40,40,None,congruent,Right,Right,Left,79,76,3,blue,2,5,/home/docky/apps/exp/images/79Bi.jpeg,/home/docky/apps/exp/images/76B.jpeg,0,4,4,4,0,5,5,5,615.8732082630013,None,615.8732082630013,None,1,4.643014295001194,615.8732082630013,None,620.5479659699995,None,620.5479659699995,None,623.0548664920025,None,623.0548664920025,None,1.1004081320024852,624.8510412520009,None,624.8510412520009,None,5,1,1.0851196360017639,625.9432813530002,None,625.9432813530002,None,625.9432813530002,None,627.0448142250025,None,1,0.6186010890014586,627.0448142250025,None,48,627.6798740810009,None,126,B,1,2021_May_27_1626,GazeFlow,2020.1.2,59.86381496984097,
5,Block812.xls,B,12,7,76,76,None,congruent,Right,Right,Left,39,38,1,yellow,2,5,/home/docky/apps/exp/images/39Yi.jpeg,/home/docky/apps/exp/images/38Y.jpeg,0,4,4,4,0,6,6,6,628.6815759910023,None,628.6815759910023,None,1,4.609475309000118,628.6815759910023,None,633.3253162250003,None,633.3253162250003,None,635.8275180460005,None,635.8275180460005,None,1.3840896770016116,637.630997925,None,637.630997925,None,6,0,1.0187322700003278,639.0019856489998,None,639.0019856489998,None,639.0019856489998,None,640.0372637020009,None,1,0.5014005829980306,640.0372637020009,None,46,640.5545044350001,None,126,B,1,2021_May_27_1626,GazeFlow,2020.1.2,59.86381496984097,
5,Block812.xls,B,12,8,77,77,None,congruent,Right,Right,Left,39,38,1,yellow,2,5,/home/docky/apps/exp/images/39Y.jpeg,/home/docky/apps/exp/images/38Yi.jpeg,0,4,4,4,0,7,7,7,641.5564866950008,None,641.5564866950008,None,1,3.9587968309970165,641.5564866950008,None,645.5488583340011,None,645.5488583340011,None,648.0535528530017,None,648.0535528530017,None,1.083795710997947,649.8501759080027,None,649.8501759080027,None,6,0,1.001224668998475,650.9252234190026,None,650.9252234190026,None,650.9252234190026,None,651.9435136829998,None,1,0.5181044770033623,651.9435136829998,None,44,652.4783162010026,None,126,B,1,2021_May_27_1626,GazeFlow,2020.1.2,59.86381496984097,
5,Block812.xls,B,,,,,,,,,,,,,,,,,,0,4,4,4,,,,,,,,,,,,,,,,,,,,,,,,,,,,,,,,,,,,,,,,,,,,126,B,1,2021_May_27_1626,GazeFlow,2020.1.2,59.86381496984097,
6,Block803.xls,B,3,1,84,84,None,congruent,Right,Right,Left,75,69,6,yellow,2,5,/home/docky/apps/exp/images/76Yi.jpeg,/home/docky/apps/exp/images/69Y.jpeg,0,5,5,5,0,0,0,0,676.0356795549997,None,676.0356795549997,None,1,5.287308611998014,676.0356795549997,None,681.3558766080023,None,681.3558766080023,None,683.871505952,None,683.871505952,None,0.9827918590017362,685.6765692840017,None,685.6765692840017,None,5,1,1.0346652150001319,686.6446098520028,None,686.6446098520028,None,686.6446098520028,None,687.6960078750017,None,1,0.6014495430026727,687.6960078750017,None,46,688.3144714290029,None,126,B,1,2021_May_27_1626,GazeFlow,2020.1.2,59.86381496984097,
6,Block803.xls,B,3,2,82,82,None,congruent,Right,Right,Left,66,65,1,yellow,2,5,/home/docky/apps/exp/images/66Y.jpeg,/home/docky/apps/exp/images/35Bi.jpeg,0,5,5,5,0,1,1,1,689.316038617002,None,689.316038617002,None,1,4.660045951000939,689.316038617002,None,694.0096389200007,None,694.0096389200007,None,696.5127860700013,None,696.5127860700013,None,1.0670249719987623,698.3155842449996,None,698.3155842449996,None,5,1,1.03488216599726,699.3694188400004,None,699.3694188400004,None,699.3694188400004,None,700.4207915229999,None,1,0.6189001390011981,700.4207915229999,None,48,701.055783672,None,126,B,1,2021_May_27_1626,GazeFlow,2020.1.2,59.86381496984097,
6,Block803.xls,B,3,3,80,80,None,congruent,Right,Right,Left,66,65,1,yellow,2,5,/home/docky/apps/exp/images/66Yi.jpeg,/home/docky/apps/exp/images/35B.jpeg,0,5,5,5,0,2,2,2,702.0571303800025,None,702.0571303800025,None,1,4.9772508409987495,702.0571303800025,None,707.0715554250019,None,707.0715554250019,None,709.5729031629999,None,709.5729031629999,None,1.2339416060021904,711.3766137310013,None,711.3766137310013,None,5,1,1.0855480280006304,712.5949390750029,None,712.5949390750029,None,712.5949390750029,None,713.696932386003,None,1,0.784727947000647,713.696932386003,None,50,714.497819821001,None,126,B,1,2021_May_27_1626,GazeFlow,2020.1.2,59.86381496984097,
6,Block803.xls,B,3,4,79,79,None,congruent,Right,Right,Left,66,65,1,yellow,2,5,/home/docky/apps/exp/images/66Y.jpeg,/home/docky/apps/exp/images/35Bi.jpeg,0,5,5,5,0,3,3,3,715.5001226109998,None,715.5001226109998,None,1,4.276047024999571,715.5001226109998,None,719.809632448003,None,719.809632448003,None,722.3121290000017,None,722.3121290000017,None,1.1505847449989233,724.1158519260025,None,724.1158519260025,None,5,1,1.0346950359999028,725.2530446119999,None,725.2530446119999,None,725.2530446119999,None,726.3043139250003,None,1,0.6190765120009019,726.3043139250003,None,52,726.9394440810029,None,126,B,1,2021_May_27_1626,GazeFlow,2020.1.2,59.86381496984097,
6,Block803.xls,B,3,5,92,92,None,congruent,Right,Right,Left,77,72,5,yellow,2,5,/home/docky/apps/exp/images/77Y.jpeg,/home/docky/apps/exp/images/72Yi.jpeg,0,5,5,5,0,4,4,4,727.9409753800028,None,727.9409753800028,None,1,4.175603458999831,727.9409753800028,None,732.1502039690022,None,732.1502039690022,None,734.6530016830002,None,734.6530016830002,None,1.100300864000019,736.4562161739996,None,736.4562161739996,None,5,1,1.0182596560007369,737.543490688,None,737.543490688,None,737.543490688,None,738.5784277420025,None,1,0.5849831049999921,738.5784277420025,None,54,739.1797032470022,None,126,B,1,2021_May_27_1626,GazeFlow,2020.1.2,59.86381496984097,
6,Block803.xls,B,3,6,106,10,None,incongruent,Left,Right,Left,79,76,3,blue,2,5,/home/docky/apps/exp/images/79Bi.jpeg,/home/docky/apps/exp/images/76B.jpeg,0,5,5,5,0,5,5,5,740.1815682910019,None,740.1815682910019,None,1,4.125684165002895,740.1815682910019,None,744.3406123390014,None,744.3406123390014,None,746.8440121590029,None,746.8440121590029,None,1.2840224190003937,748.6473615169998,None,748.6473615169998,None,5,1,1.0517843390007329,749.9176455500019,None,749.9176455500019,None,749.9176455500019,None,750.9863938060007,None,1,0.551112147000822,750.9863938060007,None,56,751.553942747003,None,126,B,1,2021_May_27_1626,GazeFlow,2020.1.2,59.86381496984097,
6,Block803.xls,B,3,7,25,25,None,congruent,Right,Right,Left,19,16,3,blue,2,5,/home/docky/apps/exp/images/19Bi.jpeg,/home/docky/apps/exp/images/16B.jpeg,0,5,5,5,0,6,6,6,752.5557950620023,None,752.5557950620023,None,1,4.442407370999717,752.5557950620023,None,757.0316856650024,None,757.0316856650024,None,759.5378020099997,None,759.5378020099997,None,1.317356629002461,761.3385118850019,None,761.3385118850019,None,5,1,1.185517133999383,762.6423044229996,None,762.6423044229996,None,762.6423044229996,None,763.844437548003,None,1,0.6509686520003015,763.844437548003,None,58,764.51193977,None,126,B,1,2021_May_27_1626,GazeFlow,2020.1.2,59.86381496984097,
6,Block803.xls,B,3,8,46,46,None,congruent,Right,Right,Left,39,38,1,blue,2,5,/home/docky/apps/exp/images/39B.jpeg,/home/docky/apps/exp/images/38Bi.jpeg,0,5,5,5,0,7,7,7,765.5139477550001,None,765.5139477550001,None,1,5.828966134999064,765.5139477550001,None,771.3763725830031,None,771.3763725830031,None,773.8791919080031,None,773.8791919080031,None,1.3176749080012087,775.6827686020006,None,775.6827686020006,None,5,1,0.9847832220002601,776.986721684003,None,776.986721684003,None,776.986721684003,None,777.988210882002,None,1,0.6014468260000285,777.988210882002,None,60,778.6061449510016,None,126,B,1,2021_May_27_1626,GazeFlow,2020.1.2,59.86381496984097,
6,Block803.xls,B,,,,,,,,,,,,,,,,,,0,5,5,5,,,,,,,,,,,,,,,,,,,,,,,,,,,,,,,,,,,,,,,,,,,,126,B,1,2021_May_27_1626,GazeFlow,2020.1.2,59.86381496984097,
7,Block810.xls,B,10,1,119,23,None,incongruent,Left,Right,Left,76,69,7,yellow,2,5,/home/docky/apps/exp/images/76Yi.jpeg,/home/docky/apps/exp/images/69Y.jpeg,0,6,6,6,0,0,0,0,799.5830145569998,None,799.5830145569998,None,1,4.512656971000979,799.5830145569998,None,804.1208705270001,None,804.1208705270001,None,806.6451475680005,None,806.6451475680005,None,1.1329825190005067,808.4486178000006,None,808.4486178000006,None,5,1,1.101821602002019,809.5667461910016,None,809.5667461910016,None,809.5667461910016,None,810.6852346890009,None,1,0.7682976700016297,810.6852346890009,None,62,811.4696851440021,None,126,B,1,2021_May_27_1626,GazeFlow,2020.1.2,59.86381496984097,
7,Block810.xls,B,10,2,43,43,None,congruent,Right,Right,Left,83,80,3,blue,2,5,/home/docky/apps/exp/images/83B.jpeg,/home/docky/apps/exp/images/80Bi.jpeg,0,6,6,6,0,1,1,1,812.4721192329998,None,812.4721192329998,None,1,5.19428445900121,812.4721192329998,None,817.6999021040028,None,817.6999021040028,None,820.2029520880023,None,820.2029520880023,None,1.1669148100008897,822.0079758360007,None,822.0079758360007,None,5,1,1.1188584470000933,823.1598975470006,None,823.1598975470006,None,823.1598975470006,None,824.2951866260009,None,1,0.7510962250016746,824.2951866260009,None,64,825.0628225280016,None,126,B,1,2021_May_27_1626,GazeFlow,2020.1.2,59.86381496984097,
7,Block810.xls,B,10,3,53,53,None,congruent,Left,Left,Right,65,66,1,yellow,2,6,/home/docky/apps/exp/images/35Bi.jpeg,/home/docky/apps/exp/images/66Y.jpeg,0,6,6,6,0,2,2,2,826.0649880410019,None,826.0649880410019,None,1,4.442615972999192,826.0649880410019,None,830.5411924010004,None,830.5411924010004,None,833.0448597650029,None,833.0448597650029,None,1.35090453399971,834.8435533930024,None,834.8435533930024,None,5,0,1.0187728100027016,836.1851540669995,None,836.1851540669995,None,836.1851540669995,None,837.2201102690015,None,1,0.6011646500010102,837.2201102690015,None,62,837.8377525280011,None,126,B,1,2021_May_27_1626,GazeFlow,2020.1.2,59.86381496984097,
7,Block810.xls,B,10,4,74,74,None,congruent,Right,Right,Left,35,33,2,yellow,2,5,/home/docky/apps/exp/images/35Y.jpeg,/home/docky/apps/exp/images/33Yi.jpeg,0,6,6,6,0,3,3,3,838.8399925190024,None,838.8399925190024,None,1,4.375704390000465,838.8399925190024,None,843.2495047820012,None,843.2495047820012,None,845.7528066400009,None,845.7528066400009,None,1.5513443160016323,847.5578621610002,None,847.5578621610002,None,5,1,1.0348362349977833,849.0934334750018,None,849.0934334750018,None,849.0934334750018,None,850.1448459510029,None,1,0.6348785640002461,850.1448459510029,None,64,850.7961930150013,None,126,B,1,2021_May_27_1626,GazeFlow,2020.1.2,59.86381496984097,
7,Block810.xls,B,10,5,21,21,None,congruent,Left,Left,Right,76,79,3,blue,2,6,/home/docky/apps/exp/images/76B.jpeg,/home/docky/apps/exp/images/79Bi.jpeg,0,6,6,6,0,4,4,4,851.7979569060008,None,851.7979569060008,None,1,4.326038372000767,851.7979569060008,None,856.1562664970006,None,856.1562664970006,None,858.6606312630029,None,858.6606312630029,None,1.1671153879979101,860.4643120649998,None,860.4643120649998,None,6,1,1.1688576729975466,861.617911022,None,861.617911022,None,861.617911022,None,862.802903672,None,1,0.5351850669976557,862.802903672,None,66,863.3544109819995,None,126,B,1,2021_May_27_1626,GazeFlow,2020.1.2,59.86381496984097,
7,Block810.xls,B,10,6,85,85,None,congruent,Right,Right,Left,75,69,6,yellow,2,5,/home/docky/apps/exp/images/76Y.jpeg,/home/docky/apps/exp/images/69Yi.jpeg,0,6,6,6,0,5,5,5,864.3559984210005,None,864.3559984210005,None,1,4.242249230999732,864.3559984210005,None,868.6317432320029,None,868.6317432320029,None,871.1369975939997,None,871.1369975939997,None,1.2168830660011736,872.9365759900029,None,872.9365759900029,None,5,1,0.9348845959975733,874.1422757470027,None,874.1422757470027,None,874.1422757470027,None,875.0935869599998,None,1,0.53527906599993,875.0935869599998,None,68,875.6449559770008,None,126,B,1,2021_May_27_1626,GazeFlow,2020.1.2,59.86381496984097,
7,Block810.xls,B,10,7,49,49,None,congruent,Left,Left,Right,33,35,2,yellow,2,6,/home/docky/apps/exp/images/33Yi.jpeg,/home/docky/apps/exp/images/35Y.jpeg,0,6,6,6,0,6,6,6,876.6467172770026,None,876.6467172770026,None,1,4.291904918998625,876.6467172770026,None,880.972888039003,None,880.972888039003,None,883.477319267,None,883.477319267,None,1.4846311989967944,885.278839988001,None,885.278839988001,None,5,0,1.002040865001618,886.7499840590026,None,886.7499840590026,None,886.7499840590026,None,887.7684635020014,None,1,0.5674001959996531,887.7684635020014,None,66,888.3524958830021,None,126,B,1,2021_May_27_1626,GazeFlow,2020.1.2,59.86381496984097,
7,Block810.xls,B,10,8,63,63,None,congruent,Left,Left,Right,38,39,1,yellow,2,6,/home/docky/apps/exp/images/38Y.jpeg,/home/docky/apps/exp/images/39Yi.jpeg,0,6,6,6,0,7,7,7,889.354519069002,None,889.354519069002,None,1,4.576815147000161,889.354519069002,None,893.9686627190022,None,893.9686627190022,None,896.4680633099997,None,896.4680633099997,None,1.3507040600015898,898.273035907001,None,898.273035907001,None,6,1,1.0688400509970961,899.6084312560015,None,899.6084312560015,None,899.6084312560015,None,900.6937767410018,None,1,0.5340254369984905,900.6937767410018,None,68,901.2441248840005,None,126,B,1,2021_May_27_1626,GazeFlow,2020.1.2,59.86381496984097,
7,Block810.xls,B,,,,,,,,,,,,,,,,,,0,6,6,6,,,,,,,,,,,,,,,,,,,,,,,,,,,,,,,,,,,,,,,,,,,,126,B,1,2021_May_27_1626,GazeFlow,2020.1.2,59.86381496984097,
8,Block801.xls,B,1,1,1,1,None,congruent,Left,Left,Right,16,19,3,blue,2,6,/home/docky/apps/exp/images/16Bi.jpeg,/home/docky/apps/exp/images/19B.jpeg,0,7,7,7,0,0,0,0,922.9389437660029,None,922.9389437660029,None,1,4.830382393000036,922.9389437660029,None,927.8023872600024,None,927.8023872600024,None,930.3185478920022,None,930.3185478920022,None,0.9162171269999817,932.1205307010023,None,932.1205307010023,None,6,1,0.9513214100006735,933.0232319880015,None,933.0232319880015,None,933.0232319880015,None,933.9912800540005,None,1,0.5514688930015836,933.9912800540005,None,70,934.5593933439995,None,126,B,1,2021_May_27_1626,GazeFlow,2020.1.2,59.86381496984097,
8,Block801.xls,B,1,2,105,9,None,incongruent,Left,Right,Left,79,73,6,blue,2,5,/home/docky/apps/exp/images/79B.jpeg,/home/docky/apps/exp/images/73Bi.jpeg,0,7,7,7,0,1,1,1,935.5609003589998,None,935.5609003589998,None,1,4.0420029159977275,935.5609003589998,None,939.6365913970003,None,939.6365913970003,None,942.1396443640006,None,942.1396443640006,None,1.017976423001528,943.9297998969996,None,943.9297998969996,None,5,1,1.0020933150008204,944.946382604001,None,944.946382604001,None,944.946382604001,None,945.9644006070012,None,1,0.617977649999375,945.9644006070012,None,72,946.5994412960026,None,126,B,1,2021_May_27_1626,GazeFlow,2020.1.2,59.86381496984097,
8,Block801.xls,B,1,3,62,62,None,congruent,Left,Left,Right,38,39,1,yellow,2,6,/home/docky/apps/exp/images/38Y.jpeg,/home/docky/apps/exp/images/39Yi.jpeg,0,7,7,7,0,2,2,2,947.6012542240023,None,947.6012542240023,None,1,4.159011138999631,947.6012542240023,None,951.7937740960006,None,951.7937740960006,None,954.2968601680004,None,954.2968601680004,None,1.21720116600045,956.1019840740009,None,956.1019840740009,None,6,1,1.068300962997455,957.3038397240016,None,957.3038397240016,None,957.3038397240016,None,958.3887757880002,None,1,0.5182835300001898,958.3887757880002,None,74,958.9234174750018,None,126,B,1,2021_May_27_1626,GazeFlow,2020.1.2,59.86381496984097,
8,Block801.xls,B,1,4,38,38,None,congruent,Right,Right,Left,79,73,6,blue,2,5,/home/docky/apps/exp/images/79B.jpeg,/home/docky/apps/exp/images/73Bi.jpeg,0,7,7,7,0,3,3,3,959.9249489350004,None,959.9249489350004,None,1,4.509559263999108,959.9249489350004,None,964.4683027070023,None,964.4683027070023,None,966.9728488030014,None,966.9728488030014,None,0.9834757600001467,968.7702018900018,None,968.7702018900018,None,5,1,1.0180566029994225,969.744586011002,None,969.744586011002,None,969.744586011002,None,970.7793649940031,None,1,0.6518004489989835,970.7793649940031,None,76,971.4478204469997,None,126,B,1,2021_May_27_1626,GazeFlow,2020.1.2,59.86381496984097,
8,Block801.xls,B,1,5,6,6,None,congruent,Left,Left,Right,35,38,3,blue,2,6,/home/docky/apps/exp/images/35Bi.jpeg,/home/docky/apps/exp/images/38B.jpeg,0,7,7,7,0,4,4,4,972.4494421150011,None,972.4494421150011,None,1,4.192009270998824,972.4494421150011,None,976.6754956040022,None,976.6754956040022,None,979.1802465440014,None,979.1802465440014,None,1.267107906001911,980.9818658430013,None,980.9818658430013,None,6,1,1.0177094049977313,982.2358698540011,None,982.2358698540011,None,982.2358698540011,None,983.2700942810006,None,1,0.4856694849986525,983.2700942810006,None,78,983.771828844001,None,126,B,1,2021_May_27_1626,GazeFlow,2020.1.2,59.86381496984097,
8,Block801.xls,B,1,6,51,51,None,congruent,Left,Left,Right,33,35,2,yellow,2,6,/home/docky/apps/exp/images/33Yi.jpeg,/home/docky/apps/exp/images/35Y.jpeg,0,7,7,7,0,5,5,5,984.7734252980008,None,984.7734252980008,None,1,4.309015804003138,984.7734252980008,None,989.1160587740014,None,989.1160587740014,None,991.6210509090015,None,991.6210509090015,None,1.2170054359994538,993.422350443001,None,993.422350443001,None,6,1,1.1347035729995696,994.626530548001,None,994.626530548001,None,994.626530548001,None,995.7785252480026,None,1,0.7341585670001223,995.7785252480026,None,80,996.5295141380011,None,126,B,1,2021_May_27_1626,GazeFlow,2020.1.2,59.86381496984097,
8,Block801.xls,B,1,7,73,73,None,congruent,Right,Right,Left,35,33,2,yellow,2,5,/home/docky/apps/exp/images/35Yi.jpeg,/home/docky/apps/exp/images/33Y.jpeg,0,7,7,7,0,6,6,6,997.5314478390028,None,997.5314478390028,None,1,4.326108051001938,997.5314478390028,None,1001.8907680090015,None,1001.8907680090015,None,1004.3986710620011,None,1004.3986710620011,None,1.0170412179977575,1006.1994187540004,None,1006.1994187540004,None,5,1,1.118325757997809,1007.2007623490026,None,1007.2007623490026,None,1007.2007623490026,None,1008.3357816090029,None,1,0.6684590990007564,1008.3357816090029,None,82,1009.0207995199999,None,126,B,1,2021_May_27_1626,GazeFlow,2020.1.2,59.86381496984097,
8,Block801.xls,B,1,8,96,96,None,congruent,Right,Right,Left,80,79,1,yellow,2,5,/home/docky/apps/exp/images/80Yi.jpeg,/home/docky/apps/exp/images/79Y.jpeg,0,7,7,7,0,7,7,7,1010.0225283380023,None,1010.0225283380023,None,1,4.225216107999586,1010.0225283380023,None,1014.2835253900012,None,1014.2835253900012,None,1016.7864743179998,None,1016.7864743179998,None,1.1672211859986419,1018.5886223520029,None,1018.5886223520029,None,5,1,1.0015348039996752,1019.7418531479998,None,1019.7418531479998,None,1019.7418531479998,None,1020.7596701620023,None,1,0.685508040998684,1020.7596701620023,None,84,1021.4617519350031,None,126,B,1,2021_May_27_1626,GazeFlow,2020.1.2,59.86381496984097,
8,Block801.xls,B,,,,,,,,,,,,,,,,,,0,7,7,7,,,,,,,,,,,,,,,,,,,,,,,,,,,,,,,,,,,,,,,,,,,,126,B,1,2021_May_27_1626,GazeFlow,2020.1.2,59.86381496984097,
9,Block802.xls,B,2,1,30,30,None,congruent,Right,Right,Left,38,35,3,blue,2,5,/home/docky/apps/exp/images/38B.jpeg,/home/docky/apps/exp/images/35Bi.jpeg,0,8,8,8,0,0,0,0,1043.5231825949995,None,1043.5231825949995,None,1,4.796844008000335,1043.5231825949995,None,1048.3484595500013,None,1048.3484595500013,None,1050.8695349440022,None,1050.8695349440022,None,1.066524888999993,1052.6734996600026,None,1052.6734996600026,None,5,1,0.985043532000418,1053.724443168001,None,1053.724443168001,None,1053.724443168001,None,1054.7258043149996,None,1,0.5686922940003569,1054.7258043149996,None,86,1055.310473466001,None,126,B,1,2021_May_27_1626,GazeFlow,2020.1.2,59.86381496984097,
9,Block802.xls,B,2,2,5,5,None,congruent,Left,Left,Right,35,38,3,blue,2,6,/home/docky/apps/exp/images/35B.jpeg,/home/docky/apps/exp/images/38Bi.jpeg,0,8,8,8,0,1,1,1,1056.3123961080018,None,1056.3123961080018,None,1,4.091939131998515,1056.3123961080018,None,1060.4348417580004,None,1060.4348417580004,None,1062.9413017400002,None,1062.9413017400002,None,1.3175954910002474,1064.740163280003,None,1064.740163280003,None,5,0,0.9846964190001017,1066.0484553490023,None,1066.0484553490023,None,1066.0484553490023,None,1067.0497740770006,None,1,0.5851457950011536,1067.0497740770006,None,84,1067.6513791450016,None,126,B,1,2021_May_27_1626,GazeFlow,2020.1.2,59.86381496984097,
9,Block802.xls,B,2,3,103,7,None,incongruent,Left,Right,Left,19,16,3,blue,2,5,/home/docky/apps/exp/images/19Bi.jpeg,/home/docky/apps/exp/images/16B.jpeg,0,8,8,8,0,2,2,2,1068.653016196,None,1068.653016196,None,1,4.642937378001079,1068.653016196,None,1073.3297352010013,None,1073.3297352010013,None,1075.8346120900023,None,1075.8346120900023,None,1.0002605670015328,1077.636102034001,None,1077.636102034001,None,5,1,0.9843891040000017,1078.6230331840015,None,1078.6230331840015,None,1078.6230331840015,None,1079.6240771560006,None,1,0.6680266589974053,1079.6240771560006,None,86,1080.3092927120015,None,126,B,1,2021_May_27_1626,GazeFlow,2020.1.2,59.86381496984097,
9,Block802.xls,B,2,4,35,35,None,congruent,Right,Right,Left,66,65,1,blue,2,5,/home/docky/apps/exp/images/66B.jpeg,/home/docky/apps/exp/images/35Yi.jpeg,0,8,8,8,0,3,3,3,1081.3105743859996,None,1081.3105743859996,None,1,4.5436325750015385,1081.3105743859996,None,1085.8870974640013,None,1085.8870974640013,None,1088.390467512003,None,1088.390467512003,None,1.1673215460032225,1090.1934659239996,None,1090.1934659239996,None,5,1,1.0514843849996396,1091.3476863510004,None,1091.3476863510004,None,1091.3476863510004,None,1092.415952358002,None,1,0.5351889330013364,1092.415952358002,None,88,1092.967267592001,None,126,B,1,2021_May_27_1626,GazeFlow,2020.1.2,59.86381496984097,
9,Block802.xls,B,2,5,42,42,None,congruent,Right,Right,Left,83,80,3,blue,2,5,/home/docky/apps/exp/images/83Bi.jpeg,/home/docky/apps/exp/images/80B.jpeg,0,8,8,8,0,4,4,4,1093.9690341040005,None,1093.9690341040005,None,1,4.208522111999628,1093.9690341040005,None,1098.1948209729999,None,1098.1948209729999,None,1100.7161238400004,None,1100.7161238400004,None,1.1502805199997965,1102.5194411209995,None,1102.5194411209995,None,5,1,0.968056276000425,1103.6550153410026,None,1103.6550153410026,None,1103.6550153410026,None,1104.63958336,None,1,0.5512618060020031,1104.63958336,None,90,1105.2074012340017,None,126,B,1,2021_May_27_1626,GazeFlow,2020.1.2,59.86381496984097,
9,Block802.xls,B,2,6,104,8,None,incongruent,Left,Right,Left,38,35,3,blue,2,5,/home/docky/apps/exp/images/38B.jpeg,/home/docky/apps/exp/images/35Bi.jpeg,0,8,8,8,0,5,5,5,1106.2093812090025,None,1106.2093812090025,None,1,4.693079566000961,1106.2093812090025,None,1110.9369071690016,None,1110.9369071690016,None,1113.4391904540025,None,1113.4391904540025,None,1.1671707700006664,1115.2430954949996,None,1115.2430954949996,None,5,1,0.9349311619989749,1116.396320652002,None,1116.396320652002,None,1116.396320652002,None,1117.3475129230028,None,1,0.5188147599983495,1117.3475129230028,None,92,1117.8819376790016,None,126,B,1,2021_May_27_1626,GazeFlow,2020.1.2,59.86381496984097,
9,Block802.xls,B,2,7,22,22,None,congruent,Left,Left,Right,80,83,3,blue,2,6,/home/docky/apps/exp/images/80Bi.jpeg,/home/docky/apps/exp/images/83B.jpeg,0,8,8,8,0,6,6,6,1118.8839083040002,None,1118.8839083040002,None,1,5.0606044699998165,1118.8839083040002,None,1123.9783052120001,None,1123.9783052120001,None,1126.4829354350004,None,1126.4829354350004,None,0.7495919899993169,1128.2847404269996,None,1128.2847404269996,None,6,1,1.0516222910009674,1129.0207130760027,None,1129.0207130760027,None,1129.0207130760027,None,1130.0888879459999,None,1,0.5517876140002045,1130.0888879459999,None,94,1130.6571974510007,None,126,B,1,2021_May_27_1626,GazeFlow,2020.1.2,59.86381496984097,
9,Block802.xls,B,2,8,54,54,None,congruent,Left,Left,Right,65,66,1,yellow,2,6,/home/docky/apps/exp/images/35Bi.jpeg,/home/docky/apps/exp/images/66Y.jpeg,0,8,8,8,0,7,7,7,1131.6586899290014,None,1131.6586899290014,None,1,4.56012583300253,1131.6586899290014,None,1136.2523412980008,None,1136.2523412980008,None,1138.7567021730029,None,1138.7567021730029,None,1.250548980999156,1140.558740894001,None,1140.558740894001,None,5,0,1.0015585479995934,1141.7959365630013,None,1141.7959365630013,None,1141.7959365630013,None,1142.813683391003,None,1,0.6020891650005069,1142.813683391003,None,92,1143.4320326600027,None,126,B,1,2021_May_27_1626,GazeFlow,2020.1.2,59.86381496984097,
9,Block802.xls,B,,,,,,,,,,,,,,,,,,0,8,8,8,,,,,,,,,,,,,,,,,,,,,,,,,,,,,,,,,,,,,,,,,,,,126,B,1,2021_May_27_1626,GazeFlow,2020.1.2,59.86381496984097,
10,Block813.xls,B,13,1,70,70,None,congruent,Left,Left,Right,79,82,3,yellow,2,6,/home/docky/apps/exp/images/79Yi.jpeg,/home/docky/apps/exp/images/80Y.jpeg,0,9,9,9,0,0,0,0,1164.307868205,None,1164.307868205,None,1,4.515834407000511,1164.307868205,None,1168.8561878190012,None,1168.8561878190012,None,1171.370518273001,None,1171.370518273001,None,1.0164429360011127,1173.1723659240015,None,1173.1723659240015,None,6,1,1.018503002000216,1174.1750165779995,None,1174.1750165779995,None,1174.1750165779995,None,1175.2101701690008,None,1,0.5347786940001242,1175.2101701690008,None,94,1175.761424679,None,126,B,1,2021_May_27_1626,GazeFlow,2020.1.2,59.86381496984097,
10,Block813.xls,B,13,2,60,60,None,congruent,Left,Left,Right,38,39,1,yellow,2,6,/home/docky/apps/exp/images/38Yi.jpeg,/home/docky/apps/exp/images/39Y.jpeg,0,9,9,9,0,1,1,1,1176.762961165001,None,1176.762961165001,None,1,4.509502529999736,1176.762961165001,None,1181.3060407090015,None,1181.3060407090015,None,1183.8093880900014,None,1183.8093880900014,None,1.2005158430001757,1185.6122042790012,None,1185.6122042790012,None,6,1,1.0014456330027315,1186.7996798500026,None,1186.7996798500026,None,1186.7996798500026,None,1187.8176845670023,None,1,0.5513137060006557,1187.8176845670023,None,96,1188.3856818530003,None,126,B,1,2021_May_27_1626,GazeFlow,2020.1.2,59.86381496984097,
10,Block813.xls,B,13,3,81,81,None,congruent,Right,Right,Left,66,65,1,yellow,2,5,/home/docky/apps/exp/images/66Y.jpeg,/home/docky/apps/exp/images/35Bi.jpeg,0,9,9,9,0,2,2,2,1189.387690898002,None,1189.387690898002,None,1,4.359514138002851,1189.387690898002,None,1193.780378028001,None,1193.780378028001,None,1196.2839561069995,None,1196.2839561069995,None,1.3505477329999849,1198.089049735001,None,1198.089049735001,None,5,1,1.135657060000085,1199.424475728003,None,1199.424475728003,None,1199.424475728003,None,1200.5762609840021,None,1,0.8179609159997199,1200.5762609840021,None,98,1201.410749818002,None,126,B,1,2021_May_27_1626,GazeFlow,2020.1.2,59.86381496984097,
10,Block813.xls,B,13,4,110,14,None,incongruent,Right,Left,Right,65,66,1,yellow,2,6,/home/docky/apps/exp/images/35B.jpeg,/home/docky/apps/exp/images/66Yi.jpeg,0,9,9,9,0,3,3,3,1202.4132076679998,None,1202.4132076679998,None,1,4.927034776002984,1202.4132076679998,None,1207.374639730002,None,1207.374639730002,None,1209.8783839930002,None,1209.8783839930002,None,1.0336005540011683,1211.6797591020004,None,1211.6797591020004,None,6,1,1.0013702950018342,1212.7000983560029,None,1212.7000983560029,None,1212.7000983560029,None,1213.7181090800004,None,1,0.6522734509999282,1213.7181090800004,None,100,1214.386474316001,None,126,B,1,2021_May_27_1626,GazeFlow,2020.1.2,59.86381496984097,
10,Block813.xls,B,13,5,17,17,None,congruent,Left,Left,Right,73,76,3,blue,2,6,/home/docky/apps/exp/images/73Bi.jpeg,/home/docky/apps/exp/images/76B.jpeg,0,9,9,9,0,4,4,4,1215.3880021870027,None,1215.3880021870027,None,1,4.059088914000313,1215.3880021870027,None,1219.4802107480027,None,1219.4802107480027,None,1221.9837779170011,None,1221.9837779170011,None,1.1505211040021095,1223.781572795,None,1223.781572795,None,6,1,1.1018989250005689,1224.9236226230023,None,1224.9236226230023,None,1224.9236226230023,None,1226.041864783001,None,1,0.5523724909980956,1226.041864783001,None,102,1226.610146711002,None,126,B,1,2021_May_27_1626,GazeFlow,2020.1.2,59.86381496984097,
10,Block813.xls,B,13,6,111,15,None,incongruent,Right,Left,Right,62,65,3,yellow,2,6,/home/docky/apps/exp/images/38B.jpeg,/home/docky/apps/exp/images/35Bi.jpeg,0,9,9,9,0,5,5,5,1227.611733859001,None,1227.611733859001,None,1,4.409326314998907,1227.611733859001,None,1232.055521330003,None,1232.055521330003,None,1234.558012864003,None,1234.558012864003,None,1.1502500409987988,1236.361745266,None,1236.361745266,None,6,1,1.0348117119974631,1237.4981670460002,None,1237.4981670460002,None,1237.4981670460002,None,1238.549837032002,None,1,0.5515164919997915,1238.549837032002,None,104,1239.1178995869996,None,126,B,1,2021_May_27_1626,GazeFlow,2020.1.2,59.86381496984097,
10,Block813.xls,B,13,7,55,55,None,congruent,Left,Left,Right,65,66,1,yellow,2,6,/home/docky/apps/exp/images/35B.jpeg,/home/docky/apps/exp/images/66Yi.jpeg,0,9,9,9,0,6,6,6,1240.1194083610026,None,1240.1194083610026,None,1,4.343129532000603,1240.1194083610026,None,1244.4955785290003,None,1244.4955785290003,None,1246.9987157620017,None,1246.9987157620017,None,1.133741834997636,1248.7970533280022,None,1248.7970533280022,None,6,1,0.9847770409978693,1249.922425441,None,1249.922425441,None,1249.922425441,None,1250.923661767003,None,1,0.5016561100019317,1250.923661767003,None,106,1251.4413805580007,None,126,B,1,2021_May_27_1626,GazeFlow,2020.1.2,59.86381496984097,
10,Block813.xls,B,13,8,26,26,None,congruent,Right,Right,Left,19,16,3,blue,2,5,/home/docky/apps/exp/images/19B.jpeg,/home/docky/apps/exp/images/16Bi.jpeg,0,9,9,9,0,7,7,7,1252.4433206350004,None,1252.4433206350004,None,1,4.359685753999656,1252.4433206350004,None,1256.8361156009996,None,1256.8361156009996,None,1259.34138437,None,1259.34138437,None,1.384362038999825,1261.1430769489998,None,1261.1430769489998,None,5,1,1.018722680000792,1262.513518975,None,1262.513518975,None,1262.513518975,None,1263.5486342270015,None,1,0.6510516899979848,1263.5486342270015,None,108,1264.2161076049997,None,126,B,1,2021_May_27_1626,GazeFlow,2020.1.2,59.86381496984097,
10,Block813.xls,B,,,,,,,,,,,,,,,,,,0,9,9,9,,,,,,,,,,,,,,,,,,,,,,,,,,,,,,,,,,,,,,,,,,,,126,B,1,2021_May_27_1626,GazeFlow,2020.1.2,59.86381496984097,
11,Block806.xls,B,6,1,10,10,None,congruent,Left,Left,Right,65,66,1,blue,2,6,/home/docky/apps/exp/images/35Y.jpeg,/home/docky/apps/exp/images/66Bi.jpeg,0,10,10,10,0,0,0,0,1284.1901481540008,None,1284.1901481540008,None,1,5.11239179200129,1284.1901481540008,None,1289.3286326960006,None,1289.3286326960006,None,1291.8528487420008,None,1291.8528487420008,None,1.2167902479995973,1293.6409123760022,None,1293.6409123760022,None,5,0,0.9844983380025951,1294.843169838001,None,1294.843169838001,None,1294.843169838001,None,1295.8444077950007,None,1,0.6017690059998131,1295.8444077950007,None,106,1296.4626848139997,None,126,B,1,2021_May_27_1626,GazeFlow,2020.1.2,59.86381496984097,
11,Block806.xls,B,6,2,89,89,None,congruent,Right,Right,Left,76,69,7,yellow,2,5,/home/docky/apps/exp/images/76Yi.jpeg,/home/docky/apps/exp/images/69Y.jpeg,0,10,10,10,0,1,1,1,1297.4642426630016,None,1297.4642426630016,None,1,4.242740546000277,1297.4642426630016,None,1301.740153234001,None,1301.740153234001,None,1304.242721548002,None,1304.242721548002,None,0.9665017580009589,1306.046847720001,None,1306.046847720001,None,5,1,1.0349994690004678,1307.0000359229998,None,1307.0000359229998,None,1307.0000359229998,None,1308.051371171001,None,1,0.7187475460013957,1308.051371171001,None,108,1308.7865624920014,None,126,B,1,2021_May_27_1626,GazeFlow,2020.1.2,59.86381496984097,
11,Block806.xls,B,6,3,88,88,None,congruent,Right,Right,Left,76,69,7,yellow,2,5,/home/docky/apps/exp/images/76Y.jpeg,/home/docky/apps/exp/images/69Yi.jpeg,0,10,10,10,0,2,2,2,1309.7881852610008,None,1309.7881852610008,None,1,4.409270326999831,1309.7881852610008,None,1314.2292779900017,None,1314.2292779900017,None,1316.7361811310002,None,1316.7361811310002,None,1.1001865199978056,1318.5379127840024,None,1318.5379127840024,None,5,1,1.0521249580015137,1319.624362175,None,1319.624362175,None,1319.624362175,None,1320.6925145410023,None,1,0.6186602140005562,1320.6925145410023,None,110,1321.3275990910006,None,126,B,1,2021_May_27_1626,GazeFlow,2020.1.2,59.86381496984097,
11,Block806.xls,B,6,4,109,13,None,incongruent,Right,Left,Right,33,35,2,yellow,2,6,/home/docky/apps/exp/images/33Yi.jpeg,/home/docky/apps/exp/images/35Y.jpeg,0,10,10,10,0,3,3,3,1322.3294150610018,None,1322.3294150610018,None,1,4.4591281350003555,1322.3294150610018,None,1326.8224665750022,None,1326.8224665750022,None,1329.3271862280017,None,1329.3271862280017,None,1.4010340629974962,1331.1286410760003,None,1331.1286410760003,None,6,1,1.0859427799987316,1332.5162660330025,None,1332.5162660330025,None,1332.5162660330025,None,1333.6181832300026,None,1,0.6005530960028409,1333.6181832300026,None,112,1334.2352906430024,None,126,B,1,2021_May_27_1626,GazeFlow,2020.1.2,59.86381496984097,
11,Block806.xls,B,6,5,37,37,None,congruent,Right,Right,Left,79,73,6,blue,2,5,/home/docky/apps/exp/images/79Bi.jpeg,/home/docky/apps/exp/images/73B.jpeg,0,10,10,10,0,4,4,4,1335.2375305429996,None,1335.2375305429996,None,1,4.476650361000793,1335.2375305429996,None,1339.747584898003,None,1339.747584898003,None,1342.2520108600002,None,1342.2520108600002,None,1.0001317569985986,1344.0538846670024,None,1344.0538846670024,None,5,1,0.9678131359978579,1345.0407125359998,None,1345.0407125359998,None,1345.0407125359998,None,1346.0254263690003,None,1,0.6510694400021748,1346.0254263690003,None,114,1346.6936487950006,None,126,B,1,2021_May_27_1626,GazeFlow,2020.1.2,59.86381496984097,
11,Block806.xls,B,6,6,108,12,None,incongruent,Left,Right,Left,39,38,1,blue,2,5,/home/docky/apps/exp/images/39Bi.jpeg,/home/docky/apps/exp/images/38B.jpeg,0,10,10,10,0,5,5,5,1347.6952544820015,None,1347.6952544820015,None,1,4.492588680001063,1347.6952544820015,None,1352.2217544650011,None,1352.2217544650011,None,1354.724814882,None,1354.724814882,None,1.3340762970001379,1356.5280178249996,None,1356.5280178249996,None,5,1,0.9679096770014439,1357.8487793430031,None,1357.8487793430031,None,1357.8487793430031,None,1358.8335411100015,None,1,0.5849772670007951,1358.8335411100015,None,116,1359.4348446460026,None,126,B,1,2021_May_27_1626,GazeFlow,2020.1.2,59.86381496984097,
11,Block806.xls,B,6,7,52,52,None,congruent,Left,Left,Right,65,66,1,yellow,2,6,/home/docky/apps/exp/images/35B.jpeg,/home/docky/apps/exp/images/66Yi.jpeg,0,10,10,10,0,6,6,6,1360.436404729,None,1360.436404729,None,1,4.325939041998936,1360.436404729,None,1364.7944978250016,None,1364.7944978250016,None,1367.300675018003,None,1367.300675018003,None,1.1172211420016538,1369.1026095110028,None,1369.1026095110028,None,6,1,0.9512109739989683,1370.206220469001,None,1370.206220469001,None,1370.206220469001,None,1371.173846177,None,1,0.5185868209991895,1371.173846177,None,118,1371.708974442001,None,126,B,1,2021_May_27_1626,GazeFlow,2020.1.2,59.86381496984097,
11,Block806.xls,B,6,8,75,75,None,congruent,Right,Right,Left,35,33,2,yellow,2,5,/home/docky/apps/exp/images/35Yi.jpeg,/home/docky/apps/exp/images/33Y.jpeg,0,10,10,10,0,7,7,7,1372.7102735010012,None,1372.7102735010012,None,1,3.908148999998957,1372.7102735010012,None,1376.6468099129997,None,1376.6468099129997,None,1379.1552997350009,None,1379.1552997350009,None,1.2171598369968706,1380.9588885960002,None,1380.9588885960002,None,5,1,1.0015255020007316,1382.1624802810002,None,1382.1624802810002,None,1382.1624802810002,None,1383.1805922390013,None,1,0.5855147579968616,1383.1805922390013,None,120,1383.7821564200021,None,126,B,1,2021_May_27_1626,GazeFlow,2020.1.2,59.86381496984097,
11,Block806.xls,B,,,,,,,,,,,,,,,,,,0,10,10,10,,,,,,,,,,,,,,,,,,,,,,,,,,,,,,,,,,,,,,,,,,,,126,B,1,2021_May_27_1626,GazeFlow,2020.1.2,59.86381496984097,
12,Block811.xls,B,11,1,86,86,None,congruent,Right,Right,Left,75,69,6,yellow,2,5,/home/docky/apps/exp/images/76Y.jpeg,/home/docky/apps/exp/images/69Yi.jpeg,0,11,11,11,0,0,0,0,1407.3292920260028,None,1407.3292920260028,None,1,4.962126164999063,1407.3292920260028,None,1412.3160562209996,None,1412.3160562209996,None,1414.8431387199998,None,1414.8431387199998,None,1.1833684500015806,1416.6468833020008,None,1416.6468833020008,None,5,1,0.9681419560001814,1417.815061250003,None,1417.815061250003,None,1417.815061250003,None,1418.799882909003,None,1,0.6018720159991062,1418.799882909003,None,122,1419.418023303002,None,126,B,1,2021_May_27_1626,GazeFlow,2020.1.2,59.86381496984097,
12,Block811.xls,B,11,2,83,83,None,congruent,Right,Right,Left,75,69,6,yellow,2,5,/home/docky/apps/exp/images/76Yi.jpeg,/home/docky/apps/exp/images/69Y.jpeg,0,11,11,11,0,1,1,1,1420.4193473960004,None,1420.4193473960004,None,1,4.8270562479992805,1420.4193473960004,None,1425.280085999002,None,1425.280085999002,None,1427.7848572710027,None,1427.7848572710027,None,1.1338524790007796,1429.5859990930003,None,1429.5859990930003,None,5,1,1.0853044540017436,1430.7067763150008,None,1430.7067763150008,None,1430.7067763150008,None,1431.8082129670001,None,1,0.7022938310001337,1431.8082129670001,None,124,1432.5267720580014,None,126,B,1,2021_May_27_1626,GazeFlow,2020.1.2,59.86381496984097,
12,Block811.xls,B,11,3,28,28,None,congruent,Right,Right,Left,38,35,3,blue,2,5,/home/docky/apps/exp/images/38Bi.jpeg,/home/docky/apps/exp/images/35B.jpeg,0,11,11,11,0,2,2,2,1433.5283246380022,None,1433.5283246380022,None,1,3.975194531001762,1433.5283246380022,None,1437.5383047670002,None,1437.5383047670002,None,1440.042386172001,None,1440.042386172001,None,1.3178954110007908,1441.8388643079998,None,1441.8388643079998,None,5,1,1.0023528649981017,1443.1476974680008,None,1443.1476974680008,None,1443.1476974680008,None,1444.166140774003,None,1,0.6339401090008323,1444.166140774003,None,126,1444.8170522440014,None,126,B,1,2021_May_27_1626,GazeFlow,2020.1.2,59.86381496984097,
12,Block811.xls,B,11,4,58,58,None,congruent,Left,Left,Right,62,65,3,yellow,2,6,/home/docky/apps/exp/images/38B.jpeg,/home/docky/apps/exp/images/35Bi.jpeg,0,11,11,11,0,3,3,3,1445.8190821450007,None,1445.8190821450007,None,1,4.425745741002174,1445.8190821450007,None,1450.2785169950002,None,1450.2785169950002,None,1452.7818466280005,None,1452.7818466280005,None,1.2504529950019787,1454.5868260370007,None,1454.5868260370007,None,5,0,0.9181377349996183,1455.8221516459998,None,1455.8221516459998,None,1455.8221516459998,None,1456.7567335870008,None,1,0.6355835440008377,1456.7567335870008,None,124,1457.4084384980015,None,126,B,1,2021_May_27_1626,GazeFlow,2020.1.2,59.86381496984097,
12,Block811.xls,B,11,5,32,32,None,congruent,Right,Right,Left,66,65,1,blue,2,5,/home/docky/apps/exp/images/66Bi.jpeg,/home/docky/apps/exp/images/35Y.jpeg,0,11,11,11,0,4,4,4,1458.4100829140007,None,1458.4100829140007,None,1,4.408927041000425,1458.4100829140007,None,1462.8530114970017,None,1462.8530114970017,None,1465.3577935400026,None,1465.3577935400026,None,1.4844326220008952,1467.159570418,None,1467.159570418,None,6,0,0.9184554079984082,1468.630422756003,None,1468.630422756003,None,1468.630422756003,None,1469.5653789390017,None,1,0.5005044699973951,1469.5653789390017,None,122,1470.082465098003,None,126,B,1,2021_May_27_1626,GazeFlow,2020.1.2,59.86381496984097,
12,Block811.xls,B,11,6,67,67,None,congruent,Left,Left,Right,72,77,5,yellow,2,6,/home/docky/apps/exp/images/72Y.jpeg,/home/docky/apps/exp/images/77Yi.jpeg,0,11,11,11,0,5,5,5,1471.0846466639996,None,1471.0846466639996,None,1,4.843201289997523,1471.0846466639996,None,1475.9597254530017,None,1475.9597254530017,None,1478.464886028003,None,1478.464886028003,None,1.0670696400011366,1480.2678794820022,None,1480.2678794820022,None,6,1,0.9511394460023439,1481.321853562,None,1481.321853562,None,1481.321853562,None,1482.2896393580013,None,1,0.5353707110007235,1482.2896393580013,None,124,1482.8411012760007,None,126,B,1,2021_May_27_1626,GazeFlow,2020.1.2,59.86381496984097,
12,Block811.xls,B,11,7,120,24,None,incongruent,Left,Right,Left,77,72,5,yellow,2,5,/home/docky/apps/exp/images/77Y.jpeg,/home/docky/apps/exp/images/72Yi.jpeg,0,11,11,11,0,6,6,6,1483.8427304550023,None,1483.8427304550023,None,1,4.042254130999936,1483.8427304550023,None,1487.9165060030027,None,1487.9165060030027,None,1490.421684113,None,1490.421684113,None,1.1005331279993698,1492.2267284520021,None,1492.2267284520021,None,5,1,0.9015206680014671,1493.3114302400027,None,1493.3114302400027,None,1493.3114302400027,None,1494.2293420570022,None,1,0.5689104539997061,1494.2293420570022,None,126,1494.8143879760028,None,126,B,1,2021_May_27_1626,GazeFlow,2020.1.2,59.86381496984097,
12,Block811.xls,B,11,8,57,57,None,congruent,Left,Left,Right,62,65,3,yellow,2,6,/home/docky/apps/exp/images/38Bi.jpeg,/home/docky/apps/exp/images/35B.jpeg,0,11,11,11,0,7,7,7,1495.8162511430019,None,1495.8162511430019,None,1,4.024799766997603,1495.8162511430019,None,1499.8750600170024,None,1499.8750600170024,None,1502.3777956690028,None,1502.3777956690028,None,1.1502494359992852,1504.1812406050012,None,1504.1812406050012,None,6,1,1.0183212410011038,1505.3180677010023,None,1505.3180677010023,None,1505.3180677010023,None,1506.3533145010006,None,1,0.5515667660001782,1506.3533145010006,None,128,1506.9211826160026,None,126,B,1,2021_May_27_1626,GazeFlow,2020.1.2,59.86381496984097,
12,Block811.xls,B,,,,,,,,,,,,,,,,,,0,11,11,11,,,,,,,,,,,,,,,,,,,,,,,,,,,,,,,,,,,,,,,,,,,,126,B,1,2021_May_27_1626,GazeFlow,2020.1.2,59.86381496984097,
13,Block808.xls,B,8,1,118,22,None,incongruent,Left,Right,Left,75,69,6,yellow,2,5,/home/docky/apps/exp/images/76Y.jpeg,/home/docky/apps/exp/images/69Yi.jpeg,0,12,12,12,0,0,0,0,1525.3582936250023,None,1525.3582936250023,None,1,4.730401954999252,1525.3582936250023,None,1530.1191326709995,None,1530.1191326709995,None,1532.6382607080013,None,1532.6382607080013,None,0.9164029310013575,1534.4417121139995,None,1534.4417121139995,None,5,1,0.9179870459993253,1535.343001704001,None,1535.343001704001,None,1535.343001704001,None,1536.2777206550018,None,1,0.6860632759999135,1536.2777206550018,None,130,1536.9796006430006,None,126,B,1,2021_May_27_1626,GazeFlow,2020.1.2,59.86381496984097,
13,Block808.xls,B,8,2,7,7,None,congruent,Left,Left,Right,65,66,1,blue,2,6,/home/docky/apps/exp/images/35Yi.jpeg,/home/docky/apps/exp/images/66B.jpeg,0,12,12,12,0,1,1,1,1537.9810879710021,None,1537.9810879710021,None,1,4.325711208999564,1537.9810879710021,None,1542.340693404003,None,1542.340693404003,None,1544.8452975200016,None,1544.8452975200016,None,1.0667103609994228,1546.6475912800015,None,1546.6475912800015,None,6,1,1.0180521399997815,1547.7005039800024,None,1547.7005039800024,None,1547.7005039800024,None,1548.735119797002,None,1,0.4684538330002397,1548.735119797002,None,132,1549.2200101160015,None,126,B,1,2021_May_27_1626,GazeFlow,2020.1.2,59.86381496984097,
13,Block808.xls,B,8,3,112,16,None,incongruent,Right,Left,Right,69,76,7,yellow,2,6,/home/docky/apps/exp/images/69Yi.jpeg,/home/docky/apps/exp/images/76Y.jpeg,0,12,12,12,0,2,2,2,1550.2214145860016,None,1550.2214145860016,None,1,3.9922460400011914,1550.2214145860016,None,1554.2471887610009,None,1554.2471887610009,None,1556.7518423680012,None,1556.7518423680012,None,1.0000270359996648,1558.5538488260026,None,1558.5538488260026,None,6,1,0.9346999209992646,1559.5401937370007,None,1559.5401937370007,None,1559.5401937370007,None,1560.4913987030013,None,1,0.48534697699869866,1560.4913987030013,None,134,1560.9928617930018,None,126,B,1,2021_May_27_1626,GazeFlow,2020.1.2,59.86381496984097,
13,Block808.xls,B,8,4,97,1,None,incongruent,Right,Left,Right,16,19,3,blue,2,6,/home/docky/apps/exp/images/16Bi.jpeg,/home/docky/apps/exp/images/19B.jpeg,0,12,12,12,0,3,3,3,1561.9943542440014,None,1561.9943542440014,None,1,4.058593588000804,1561.9943542440014,None,1566.086816877003,None,1566.086816877003,None,1568.5923779160003,None,1568.5923779160003,None,1.1005611910004518,1570.393597172002,None,1570.393597172002,None,6,1,1.0180446179983846,1571.480043765001,None,1571.480043765001,None,1571.480043765001,None,1572.515084044,None,1,0.45133546700162697,1572.515084044,None,136,1572.982526589003,None,126,B,1,2021_May_27_1626,GazeFlow,2020.1.2,59.86381496984097,
13,Block808.xls,B,8,5,24,24,None,congruent,Left,Left,Right,80,83,3,blue,2,6,/home/docky/apps/exp/images/80Bi.jpeg,/home/docky/apps/exp/images/83B.jpeg,0,12,12,12,0,4,4,4,1573.9842077579997,None,1573.9842077579997,None,1,3.8918203079992963,1573.9842077579997,None,1577.9098168500022,None,1577.9098168500022,None,1580.4130075360008,None,1580.4130075360008,None,1.0672678609989816,1582.2165851530008,None,1582.2165851530008,None,6,1,0.934641518000717,1583.269483854001,None,1583.269483854001,None,1583.269483854001,None,1584.220854485,None,1,0.4849837040019338,1584.220854485,None,138,1584.7222038010004,None,126,B,1,2021_May_27_1626,GazeFlow,2020.1.2,59.86381496984097,
13,Block808.xls,B,8,6,13,13,None,congruent,Left,Left,Right,38,39,1,blue,2,6,/home/docky/apps/exp/images/38Bi.jpeg,/home/docky/apps/exp/images/39B.jpeg,0,12,12,12,0,5,5,5,1585.723840177001,None,1585.723840177001,None,1,3.958274659999006,1585.723840177001,None,1589.715992333,None,1589.715992333,None,1592.219336068003,None,1592.219336068003,None,1.100257349997264,1594.0225340390025,None,1594.0225340390025,None,6,1,1.0183745619979163,1595.1093084750028,None,1595.1093084750028,None,1595.1093084750028,None,1596.1437614210008,None,1,0.5018936779997603,1596.1437614210008,None,140,1596.662130476001,None,126,B,1,2021_May_27_1626,GazeFlow,2020.1.2,59.86381496984097,
13,Block808.xls,B,8,7,8,8,None,congruent,Left,Left,Right,65,66,1,blue,2,6,/home/docky/apps/exp/images/35Y.jpeg,/home/docky/apps/exp/images/66Bi.jpeg,0,12,12,12,0,6,6,6,1597.6638413239998,None,1597.6638413239998,None,1,4.375401380002586,1597.6638413239998,None,1602.0732424840025,None,1602.0732424840025,None,1604.5815102730012,None,1604.5815102730012,None,1.2008772770022915,1606.3795681450028,None,1606.3795681450028,None,6,1,0.884935955000401,1607.5666972990002,None,1607.5666972990002,None,1607.5666972990002,None,1608.4679051050007,None,1,0.5187129910009389,1608.4679051050007,None,142,1609.0025572450031,None,126,B,1,2021_May_27_1626,GazeFlow,2020.1.2,59.86381496984097,
13,Block808.xls,B,8,8,31,31,None,congruent,Right,Right,Left,66,65,1,blue,2,5,/home/docky/apps/exp/images/66B.jpeg,/home/docky/apps/exp/images/35Yi.jpeg,0,12,12,12,0,7,7,7,1610.0041972440013,None,1610.0041972440013,None,1,3.791415846997552,1610.0041972440013,None,1613.8292647160015,None,1613.8292647160015,None,1616.332507197003,None,1616.332507197003,None,1.083692706997681,1618.135665965001,None,1618.135665965001,None,5,1,0.9514020819988218,1619.2059865400006,None,1619.2059865400006,None,1619.2059865400006,None,1620.1738006640007,None,1,0.6019844439979352,1620.1738006640007,None,144,1620.7921581299997,None,126,B,1,2021_May_27_1626,GazeFlow,2020.1.2,59.86381496984097,
13,Block808.xls,B,,,,,,,,,,,,,,,,,,0,12,12,12,,,,,,,,,,,,,,,,,,,,,,,,,,,,,,,,,,,,,,,,,,,,126,B,1,2021_May_27_1626,GazeFlow,2020.1.2,59.86381496984097,
14,Block815.xls,B,15,1,65,65,None,congruent,Left,Left,Right,69,76,7,yellow,2,6,/home/docky/apps/exp/images/69Yi.jpeg,/home/docky/apps/exp/images/76Y.jpeg,0,13,13,13,0,0,0,0,1638.5616684699999,None,1638.5616684699999,None,1,4.700874496000324,1638.5616684699999,None,1643.2847427920024,None,1643.2847427920024,None,1645.8081191160018,None,1645.8081191160018,None,0.9157679259988072,1647.6120542980025,None,1647.6120542980025,None,6,1,1.0182357730009244,1648.5128483350018,None,1648.5128483350018,None,1648.5128483350018,None,1649.5479031860013,None,1,0.48476531599953887,1649.5479031860013,None,146,1650.049131343003,None,126,B,1,2021_May_27_1626,GazeFlow,2020.1.2,59.86381496984097,
14,Block815.xls,B,15,2,102,6,None,incongruent,Right,Left,Right,80,83,3,blue,2,6,/home/docky/apps/exp/images/80B.jpeg,/home/docky/apps/exp/images/83Bi.jpeg,0,13,13,13,0,1,1,1,1651.0506154230025,None,1651.0506154230025,None,1,4.125240871999267,1651.0506154230025,None,1655.2081620220015,None,1655.2081620220015,None,1657.7149558220008,None,1657.7149558220008,None,1.117145244999847,1659.5164603560006,None,1659.5164603560006,None,6,1,1.0011920709985134,1660.6198801030005,None,1660.6198801030005,None,1660.6198801030005,None,1661.6377880460022,None,1,0.5181868920008128,1661.6377880460022,None,148,1662.1724948219999,None,126,B,1,2021_May_27_1626,GazeFlow,2020.1.2,59.86381496984097,
14,Block815.xls,B,15,3,33,33,None,congruent,Right,Right,Left,66,65,1,blue,2,5,/home/docky/apps/exp/images/66Bi.jpeg,/home/docky/apps/exp/images/35Y.jpeg,0,13,13,13,0,2,2,2,1663.1742812949997,None,1663.1742812949997,None,1,3.925004003001959,1663.1742812949997,None,1667.1328331530021,None,1667.1328331530021,None,1669.6364196920003,None,1669.6364196920003,None,1.2505732839999837,1671.4392708180021,None,1671.4392708180021,None,5,1,1.0350036459967669,1672.6763191530008,None,1672.6763191530008,None,1672.6763191530008,None,1673.7280020380022,None,1,0.6017969450003875,1673.7280020380022,None,150,1674.346265002001,None,126,B,1,2021_May_27_1626,GazeFlow,2020.1.2,59.86381496984097,
14,Block815.xls,B,15,4,72,72,None,congruent,Left,Left,Right,79,82,3,yellow,2,6,/home/docky/apps/exp/images/79Yi.jpeg,/home/docky/apps/exp/images/80Y.jpeg,0,13,13,13,0,3,3,3,1675.347832249001,None,1675.347832249001,None,1,4.075389528999949,1675.347832249001,None,1679.4568244479997,None,1679.4568244479997,None,1681.9598966660014,None,1681.9598966660014,None,1.3173765879982966,1683.7588704750015,None,1683.7588704750015,None,6,1,1.068587783996918,1685.0671780320008,None,1685.0671780320008,None,1685.0671780320008,None,1686.1522895449998,None,1,0.48495747500055586,1686.1522895449998,None,152,1686.6534913200012,None,126,B,1,2021_May_27_1626,GazeFlow,2020.1.2,59.86381496984097,
14,Block815.xls,B,15,5,100,4,None,incongruent,Right,Left,Right,73,76,3,blue,2,6,/home/docky/apps/exp/images/73B.jpeg,/home/docky/apps/exp/images/76Bi.jpeg,0,13,13,13,0,4,4,4,1687.6552429740004,None,1687.6552429740004,None,1,5.160525441999198,1687.6552429740004,None,1692.8510192240028,None,1692.8510192240028,None,1695.3526792070006,None,1695.3526792070006,None,1.1003530349989887,1697.1552728370007,None,1697.1552728370007,None,6,1,0.9347747569991043,1698.2427146520022,None,1698.2427146520022,None,1698.2427146520022,None,1699.194245599003,None,1,0.4347571580001386,1699.194245599003,None,154,1699.6454334560003,None,126,B,1,2021_May_27_1626,GazeFlow,2020.1.2,59.86381496984097,
14,Block815.xls,B,15,6,45,45,None,congruent,Right,Right,Left,39,38,1,blue,2,5,/home/docky/apps/exp/images/39B.jpeg,/home/docky/apps/exp/images/38Bi.jpeg,0,13,13,13,0,5,5,5,1700.646996716001,None,1700.646996716001,None,1,4.4425214729999425,1700.646996716001,None,1705.1233091620015,None,1705.1233091620015,None,1707.6278136130022,None,1707.6278136130022,None,1.1336867270001676,1709.4318648480003,None,1709.4318648480003,None,5,1,1.1522010049993696,1710.5499024359997,None,1710.5499024359997,None,1710.5499024359997,None,1711.718553396,None,1,0.5847577810018265,1711.718553396,None,156,1712.319969051001,None,126,B,1,2021_May_27_1626,GazeFlow,2020.1.2,59.86381496984097,
14,Block815.xls,B,15,7,98,2,None,incongruent,Right,Left,Right,35,38,3,blue,2,6,/home/docky/apps/exp/images/35Bi.jpeg,/home/docky/apps/exp/images/38B.jpeg,0,13,13,13,0,6,6,6,1713.321418063002,None,1713.321418063002,None,1,4.611018006999075,1713.321418063002,None,1717.9665304340015,None,1717.9665304340015,None,1720.4678976390023,None,1720.4678976390023,None,1.1002982959980727,1722.271721344001,None,1722.271721344001,None,6,1,0.9017044739994162,1723.358192304,None,1723.358192304,None,1723.358192304,None,1724.275922713001,None,1,0.4516959760003374,1724.275922713001,None,158,1724.744068070002,None,126,B,1,2021_May_27_1626,GazeFlow,2020.1.2,59.86381496984097,
14,Block815.xls,B,15,8,59,59,None,congruent,Left,Left,Right,38,39,1,yellow,2,6,/home/docky/apps/exp/images/38Yi.jpeg,/home/docky/apps/exp/images/39Y.jpeg,0,13,13,13,0,7,7,7,1725.7456804970025,None,1725.7456804970025,None,1,4.259282045000873,1725.7456804970025,None,1730.0384350640015,None,1730.0384350640015,None,1732.541866656,None,1732.541866656,None,1.0841392649999761,1734.3449579549997,None,1734.3449579549997,None,6,1,0.9516212359994825,1735.4148469690008,None,1735.4148469690008,None,1735.4148469690008,None,1736.3832595860003,None,1,0.5514145300003293,1736.3832595860003,None,160,1736.9511730280028,None,126,B,1,2021_May_27_1626,GazeFlow,2020.1.2,59.86381496984097,
14,Block815.xls,B,,,,,,,,,,,,,,,,,,0,13,13,13,,,,,,,,,,,,,,,,,,,,,,,,,,,,,,,,,,,,,,,,,,,,126,B,1,2021_May_27_1626,GazeFlow,2020.1.2,59.86381496984097,
15,Block807.xls,B,7,1,71,71,None,congruent,Left,Left,Right,79,82,3,yellow,2,6,/home/docky/apps/exp/images/79Y.jpeg,/home/docky/apps/exp/images/80Yi.jpeg,0,14,14,14,0,0,0,0,1759.246167559002,None,1759.246167559002,None,1,5.1825368580030045,1759.246167559002,None,1764.4585455020024,None,1764.4585455020024,None,1766.9765793020015,None,1766.9765793020015,None,0.9161433499975828,1768.7741580990005,None,1768.7741580990005,None,6,1,0.951535338001122,1769.6814438990004,None,1769.6814438990004,None,1769.6814438990004,None,1770.6494078180003,None,1,0.5351077520026593,1770.6494078180003,None,162,1771.2009006290027,None,126,B,1,2021_May_27_1626,GazeFlow,2020.1.2,59.86381496984097,
15,Block807.xls,B,7,2,44,44,None,congruent,Right,Right,Left,83,80,3,blue,2,5,/home/docky/apps/exp/images/83Bi.jpeg,/home/docky/apps/exp/images/80B.jpeg,0,14,14,14,0,1,1,1,1772.2026983050018,None,1772.2026983050018,None,1,4.175771027999872,1772.2026983050018,None,1776.4117988320031,None,1776.4117988320031,None,1778.9145280690027,None,1778.9145280690027,None,0.8497027980010898,1780.7134565410015,None,1780.7134565410015,None,5,1,1.035012167001696,1781.554303584002,None,1781.554303584002,None,1781.554303584002,None,1782.6060134930012,None,1,0.6178774500003783,1782.6060134930012,None,164,1783.2405321040023,None,126,B,1,2021_May_27_1626,GazeFlow,2020.1.2,59.86381496984097,
15,Block807.xls,B,7,3,48,48,None,congruent,Right,Right,Left,39,38,1,blue,2,5,/home/docky/apps/exp/images/39Bi.jpeg,/home/docky/apps/exp/images/38B.jpeg,0,14,14,14,0,2,2,2,1784.2423306510027,None,1784.2423306510027,None,1,4.559761158998299,1784.2423306510027,None,1788.8358410870023,None,1788.8358410870023,None,1791.3406289900013,None,1791.3406289900013,None,1.1839339850012038,1793.1439439960013,None,1793.1439439960013,None,5,1,1.0849721819977276,1794.312699197002,None,1794.312699197002,None,1794.312699197002,None,1795.4143965110015,None,1,0.5681404450006085,1795.4143965110015,None,166,1795.999130993001,None,126,B,1,2021_May_27_1626,GazeFlow,2020.1.2,59.86381496984097,
15,Block807.xls,B,7,4,113,17,None,incongruent,Right,Left,Right,72,77,5,yellow,2,6,/home/docky/apps/exp/images/72Yi.jpeg,/home/docky/apps/exp/images/77Y.jpeg,0,14,14,14,0,3,3,3,1797.0006652640004,None,1797.0006652640004,None,1,4.259281503997045,1797.0006652640004,None,1801.293407868001,None,1801.293407868001,None,1803.7982863070029,None,1803.7982863070029,None,1.200718047999544,1805.6001392920007,None,1805.6001392920007,None,6,1,0.9847085430010338,1806.7866212549998,None,1806.7866212549998,None,1806.7866212549998,None,1807.7882488270006,None,1,0.46847524300028454,1807.7882488270006,None,168,1808.2728600070004,None,126,B,1,2021_May_27_1626,GazeFlow,2020.1.2,59.86381496984097,
15,Block807.xls,B,7,5,69,69,None,congruent,Left,Left,Right,72,77,5,yellow,2,6,/home/docky/apps/exp/images/72Y.jpeg,/home/docky/apps/exp/images/77Yi.jpeg,0,14,14,14,0,4,4,4,1809.274584584,None,1809.274584584,None,1,4.192018249999819,1809.274584584,None,1813.5003836130018,None,1813.5003836130018,None,1816.0036786279998,None,1816.0036786279998,None,1.150249640999391,1817.8020014520007,None,1817.8020014520007,None,6,1,0.9678638149998733,1818.944025615001,None,1818.944025615001,None,1818.944025615001,None,1819.9285273700007,None,1,0.5009974649983633,1819.9285273700007,None,170,1820.4458271000003,None,126,B,1,2021_May_27_1626,GazeFlow,2020.1.2,59.86381496984097,
15,Block807.xls,B,7,6,39,39,None,congruent,Right,Right,Left,79,76,3,blue,2,5,/home/docky/apps/exp/images/79B.jpeg,/home/docky/apps/exp/images/76Bi.jpeg,0,14,14,14,0,5,5,5,1821.4480236920026,None,1821.4480236920026,None,1,4.392974921000132,1821.4480236920026,None,1825.8741211670022,None,1825.8741211670022,None,1828.379362120002,None,1828.379362120002,None,1.1336316899978556,1830.1825142490015,None,1830.1825142490015,None,5,1,0.917751690998557,1831.3012291619998,None,1831.3012291619998,None,1831.3012291619998,None,1832.2356882860004,None,1,0.5854061259997252,1832.2356882860004,None,172,1832.8373026120025,None,126,B,1,2021_May_27_1626,GazeFlow,2020.1.2,59.86381496984097,
15,Block807.xls,B,7,7,50,50,None,congruent,Left,Left,Right,33,35,2,yellow,2,6,/home/docky/apps/exp/images/33Y.jpeg,/home/docky/apps/exp/images/35Yi.jpeg,0,14,14,14,0,6,6,6,1833.8386664710015,None,1833.8386664710015,None,1,4.359490265000204,1833.8386664710015,None,1838.2317162360014,None,1838.2317162360014,None,1840.736560903002,None,1840.736560903002,None,1.5845301379995362,1842.5400745120023,None,1842.5400745120023,None,6,1,1.0354775009982404,1844.1095348939998,None,1844.1095348939998,None,1844.1095348939998,None,1845.1607562800018,None,1,0.46779950899872347,1845.1607562800018,None,174,1845.645000089,None,126,B,1,2021_May_27_1626,GazeFlow,2020.1.2,59.86381496984097,
15,Block807.xls,B,7,8,19,19,None,congruent,Left,Left,Right,76,79,3,blue,2,6,/home/docky/apps/exp/images/76B.jpeg,/home/docky/apps/exp/images/79Bi.jpeg,0,14,14,14,0,7,7,7,1846.6471872010006,None,1846.6471872010006,None,1,4.409062175000145,1846.6471872010006,None,1851.0898318530017,None,1851.0898318530017,None,1853.5948859410018,None,1853.5948859410018,None,1.267246856001293,1855.3968190800006,None,1855.3968190800006,None,6,1,0.9180730609987222,1856.6503754670011,None,1856.6503754670011,None,1856.6503754670011,None,1857.5849579700007,None,1,0.5687349719992199,1857.5849579700007,None,176,1858.1698897900023,None,126,B,1,2021_May_27_1626,GazeFlow,2020.1.2,59.86381496984097,
15,Block807.xls,B,,,,,,,,,,,,,,,,,,0,14,14,14,,,,,,,,,,,,,,,,,,,,,,,,,,,,,,,,,,,,,,,,,,,,126,B,1,2021_May_27_1626,GazeFlow,2020.1.2,59.86381496984097,
