Nblock,condsFile,grouping,Block,TrialBlock,N,trialN,trialCond,gazeCon,gazedirR,corrBinR,corrBinP,valLBY,valRBY,diff,colorCube,feedbacktext,corrAns,imageL,imageR,SelBlocks.thisRepN,SelBlocks.thisTrialN,SelBlocks.thisN,SelBlocks.thisIndex,Trials.thisRepN,Trials.thisTrialN,Trials.thisN,Trials.thisIndex,waitCube.started,waitCube.stopped,text_3.started,text_3.stopped,StartKeyPress.keys,StartKeyPress.rt,StartKeyPress.started,StartKeyPress.stopped,StimL.started,StimL.stopped,StimR.started,StimR.stopped,imageStim2L.started,imageStim2L.stopped,imageStim2R.started,imageStim2R.stopped,RTkeyRelease,imageStim3L.started,imageStim3L.stopped,imageStim3R.started,imageStim3R.stopped,dropResp.keys,dropResp.corr,dropResp.rt,dropResp.started,dropResp.stopped,imageStim5L.started,imageStim5L.stopped,imageStim5R.started,imageStim5R.stopped,text_2.started,text_2.stopped,ReturnSpace.keys,ReturnSpace.rt,ReturnSpace.started,ReturnSpace.stopped,totalpoints,textFeedback.started,textFeedback.stopped,participant,group,session,date,expName,psychopyVersion,frameRate,
1,Block809.xls,B,9,1,93,93,None,congruent,Right,Right,Left,80,79,1,yellow,2,5,/home/docky/apps/exp/images/80Y.jpeg,/home/docky/apps/exp/images/79Yi.jpeg,0,0,0,0,0,0,0,0,28.051343991999943,None,28.051343991999943,None,1,2.2594928590000336,28.051343991999943,None,30.35172821699996,None,30.35172821699996,None,32.86583332399994,None,32.86583332399994,None,0.9494980949999672,34.66239021000001,None,34.66239021000001,None,5,1,0.7341697350000231,35.59647221199998,None,35.59647221199998,None,35.59647221199998,None,36.347388542999965,None,1,0.5344522530000404,36.347388542999965,None,2,36.898186837000026,None,127,B,1,2021_May_27_1800,GazeFlow,2020.1.2,59.89826782355895,
1,Block809.xls,B,9,2,15,15,None,congruent,Left,Left,Right,38,39,1,blue,2,6,/home/docky/apps/exp/images/38B.jpeg,/home/docky/apps/exp/images/39Bi.jpeg,0,0,0,0,0,1,1,1,37.900174899000035,None,37.900174899000035,None,1,2.5890924189999396,37.900174899000035,None,40.52323888800004,None,40.52323888800004,None,43.026640679000025,None,43.026640679000025,None,1.2507489560000522,44.828989579999984,None,44.828989579999984,None,6,1,0.7844406819999676,46.06659029900004,None,46.06659029900004,None,46.06659029900004,None,46.867567796,None,1,0.6353028489999133,46.867567796,None,4,47.519574422999995,None,127,B,1,2021_May_27_1800,GazeFlow,2020.1.2,59.89826782355895,
1,Block809.xls,B,9,3,117,21,None,incongruent,Left,Right,Left,39,38,1,yellow,2,5,/home/docky/apps/exp/images/39Yi.jpeg,/home/docky/apps/exp/images/38Y.jpeg,0,0,0,0,0,2,2,2,48.52088660100003,None,48.52088660100003,None,1,2.65590315299994,48.52088660100003,None,51.210647537,None,51.210647537,None,53.71306888799995,None,53.71306888799995,None,1.133938478999994,55.51667433099999,None,55.51667433099999,None,5,1,0.7680519109999295,56.637216310999975,None,56.637216310999975,None,56.637216310999975,None,57.42134397799998,None,1,0.585246839999968,57.42134397799998,None,6,58.02315587099997,None,127,B,1,2021_May_27_1800,GazeFlow,2020.1.2,59.89826782355895,
1,Block809.xls,B,9,4,94,94,None,congruent,Right,Right,Left,80,79,1,yellow,2,5,/home/docky/apps/exp/images/80Y.jpeg,/home/docky/apps/exp/images/79Yi.jpeg,0,0,0,0,0,3,3,3,59.02478187099996,None,59.02478187099996,None,1,2.8732688210000106,59.02478187099996,None,61.93369455000004,None,61.93369455000004,None,64.43631943900004,None,64.43631943900004,None,1.0172846079999545,66.23643672799994,None,66.23643672799994,None,5,1,0.7340945270000248,67.24128560999998,None,67.24128560999998,None,67.24128560999998,None,67.99169395499996,None,1,0.668989162999992,67.99169395499996,None,8,68.67711904199996,None,127,B,1,2021_May_27_1800,GazeFlow,2020.1.2,59.89826782355895,
1,Block809.xls,B,9,5,41,41,None,congruent,Right,Right,Left,79,76,3,blue,2,5,/home/docky/apps/exp/images/79Bi.jpeg,/home/docky/apps/exp/images/76B.jpeg,0,0,0,0,0,4,4,4,69.67864462299997,None,69.67864462299997,None,1,2.2556101479999597,69.67864462299997,None,71.96593838299998,None,71.96593838299998,None,74.47247963500001,None,74.47247963500001,None,1.0671558789999835,76.27448453800002,None,76.27448453800002,None,5,1,0.7175048760000209,77.32749212700003,None,77.32749212700003,None,77.32749212700003,None,78.06156615199995,None,1,0.5519158399999924,78.06156615199995,None,10,78.62953479600003,None,127,B,1,2021_May_27_1800,GazeFlow,2020.1.2,59.89826782355895,
1,Block809.xls,B,9,6,36,36,None,congruent,Right,Right,Left,79,73,6,blue,2,5,/home/docky/apps/exp/images/79Bi.jpeg,/home/docky/apps/exp/images/73B.jpeg,0,0,0,0,0,5,5,5,79.63132140899995,None,79.63132140899995,None,1,2.2383520580000322,79.63132140899995,None,81.90365261299996,None,81.90365261299996,None,84.40682687599997,None,84.40682687599997,None,0.9501548200000798,86.20540310699994,None,86.20540310699994,None,5,1,0.7176030379999929,87.146405921,None,87.146405921,None,87.146405921,None,87.880645566,None,1,0.5346063360000244,87.880645566,None,12,88.43189605199996,None,127,B,1,2021_May_27_1800,GazeFlow,2020.1.2,59.89826782355895,
1,Block809.xls,B,9,7,78,78,None,congruent,Right,Right,Left,39,38,1,yellow,2,5,/home/docky/apps/exp/images/39Yi.jpeg,/home/docky/apps/exp/images/38Y.jpeg,0,0,0,0,0,6,6,6,89.43375143200001,None,89.43375143200001,None,1,12.94233197899996,89.43375143200001,None,102.41178505599999,None,102.41178505599999,None,104.91313671900002,None,104.91313671900002,None,1.717729975999987,106.71850777899999,None,106.71850777899999,None,5,1,0.9688284420000173,108.42097562200001,None,108.42097562200001,None,108.42097562200001,None,109.40625289100001,None,1,0.617278633000069,109.40625289100001,None,14,110.04010141499998,None,127,B,1,2021_May_27_1800,GazeFlow,2020.1.2,59.89826782355895,
1,Block809.xls,B,9,8,29,29,None,congruent,Right,Right,Left,38,35,3,blue,2,5,/home/docky/apps/exp/images/38B.jpeg,/home/docky/apps/exp/images/35Bi.jpeg,0,0,0,0,0,7,7,7,111.04225579800004,None,111.04225579800004,None,1,4.226157550000039,111.04225579800004,None,115.30214300900002,None,115.30214300900002,None,117.80636012100001,None,117.80636012100001,None,1.1840383610000345,119.608676006,None,119.608676006,None,5,1,0.7007816859999139,120.77847694699994,None,120.77847694699994,None,120.77847694699994,None,121.496007814,None,1,0.5015518200000315,121.496007814,None,16,122.01404781999997,None,127,B,1,2021_May_27_1800,GazeFlow,2020.1.2,59.89826782355895,
1,Block809.xls,B,,,,,,,,,,,,,,,,,,0,0,0,0,,,,,,,,,,,,,,,,,,,,,,,,,,,,,,,,,,,,,,,,,,,,127,B,1,2021_May_27_1800,GazeFlow,2020.1.2,59.89826782355895,
2,Block805.xls,B,5,1,16,16,None,congruent,Left,Left,Right,73,76,3,blue,2,6,/home/docky/apps/exp/images/73B.jpeg,/home/docky/apps/exp/images/76Bi.jpeg,0,1,1,1,0,0,0,0,156.08121541799994,None,156.08121541799994,None,1,4.4175942030000215,156.08121541799994,None,160.52270689700003,None,160.52270689700003,None,163.04424910700004,None,163.04424910700004,None,0.9828263570000217,164.84605209799997,None,164.84605209799997,None,6,1,0.7843399449999424,165.81608386799996,None,165.81608386799996,None,165.81608386799996,None,166.61671709200004,None,1,0.6185546909999857,166.61671709200004,None,18,167.25196044799998,None,127,B,1,2021_May_27_1800,GazeFlow,2020.1.2,59.89826782355895,
2,Block805.xls,B,5,2,2,2,None,congruent,Left,Left,Right,16,19,3,blue,2,6,/home/docky/apps/exp/images/16B.jpeg,/home/docky/apps/exp/images/19Bi.jpeg,0,1,1,1,0,1,1,1,168.25347653099993,None,168.25347653099993,None,1,4.225721091999958,168.25347653099993,None,172.513027116,None,172.513027116,None,175.01759037600004,None,175.01759037600004,None,0.9165446499999916,176.819731821,None,176.819731821,None,6,1,0.7846311959999639,177.722411471,None,177.722411471,None,177.722411471,None,178.52332810199994,None,1,0.5010046480000483,178.52332810199994,None,20,179.04123058200003,None,127,B,1,2021_May_27_1800,GazeFlow,2020.1.2,59.89826782355895,
2,Block805.xls,B,5,3,64,64,None,congruent,Left,Left,Right,69,76,7,yellow,2,6,/home/docky/apps/exp/images/69Y.jpeg,/home/docky/apps/exp/images/76Yi.jpeg,0,1,1,1,0,2,2,2,180.043168239,None,180.043168239,None,1,4.325647310000022,180.043168239,None,184.402629745,None,184.402629745,None,186.90619613299998,None,186.90619613299998,None,1.0002137510000466,188.70933252500004,None,188.70933252500004,None,6,1,0.7677876019999985,189.69588626099994,None,189.69588626099994,None,189.69588626099994,None,190.48006682899995,None,1,1.2859740220000049,190.48006682899995,None,22,191.782588401,None,127,B,1,2021_May_27_1800,GazeFlow,2020.1.2,59.89826782355895,
2,Block805.xls,B,5,4,61,61,None,congruent,Left,Left,Right,38,39,1,yellow,2,6,/home/docky/apps/exp/images/38Yi.jpeg,/home/docky/apps/exp/images/39Y.jpeg,0,1,1,1,0,3,3,3,192.78450805599994,None,192.78450805599994,None,1,3.307637770000042,192.78450805599994,None,196.125237448,None,196.125237448,None,198.62889027899996,None,198.62889027899996,None,1.4513159289999749,200.431136617,None,200.431136617,None,5,0,1.552538095999921,201.869441091,None,201.869441091,None,201.869441091,None,203.43855474199995,None,1,0.58470884999997,203.43855474199995,None,20,204.03976341700002,None,127,B,1,2021_May_27_1800,GazeFlow,2020.1.2,59.89826782355895,
2,Block805.xls,B,5,5,23,23,None,congruent,Left,Left,Right,80,83,3,blue,2,6,/home/docky/apps/exp/images/80B.jpeg,/home/docky/apps/exp/images/83Bi.jpeg,0,1,1,1,0,4,4,4,205.041752438,None,205.041752438,None,1,4.0918509559999166,205.041752438,None,209.167350188,None,209.167350188,None,211.67092097299997,None,211.67092097299997,None,1.0333523269999887,213.474124038,None,213.474124038,None,6,1,0.7841701820000253,214.49395241799994,None,214.49395241799994,None,214.49395241799994,None,215.29483271499998,None,1,0.7018811010000263,215.29483271499998,None,22,216.01331423399995,None,127,B,1,2021_May_27_1800,GazeFlow,2020.1.2,59.89826782355895,
2,Block805.xls,B,5,6,87,87,None,congruent,Right,Right,Left,76,69,7,yellow,2,5,/home/docky/apps/exp/images/76Yi.jpeg,/home/docky/apps/exp/images/69Y.jpeg,0,1,1,1,0,5,5,5,217.014826503,None,217.014826503,None,1,4.777197448999914,217.014826503,None,221.82517799699997,None,221.82517799699997,None,224.32840252100004,None,224.32840252100004,None,1.2172656259999712,226.12638972199989,None,226.12638972199989,None,5,1,0.7839649990000908,227.33560551699998,None,227.33560551699998,None,227.33560551699998,None,228.13625522200005,None,1,0.5680927749999682,228.13625522200005,None,24,228.72084529099993,None,127,B,1,2021_May_27_1800,GazeFlow,2020.1.2,59.89826782355895,
2,Block805.xls,B,5,7,4,4,None,congruent,Left,Left,Right,35,38,3,blue,2,6,/home/docky/apps/exp/images/35B.jpeg,/home/docky/apps/exp/images/38Bi.jpeg,0,1,1,1,0,6,6,6,229.72318659400003,None,229.72318659400003,None,1,3.9085113600001478,229.72318659400003,None,233.66725756899996,None,233.66725756899996,None,236.16792520900003,None,236.16792520900003,None,1.0167168359998868,237.97079111800008,None,237.97079111800008,None,6,1,0.8008862710000813,238.9747018139999,None,238.9747018139999,None,238.9747018139999,None,239.7924406300001,None,1,0.6354457180000281,239.7924406300001,None,26,240.44417402299996,None,127,B,1,2021_May_27_1800,GazeFlow,2020.1.2,59.89826782355895,
2,Block805.xls,B,5,8,114,18,None,incongruent,Right,Left,Right,79,82,3,yellow,2,6,/home/docky/apps/exp/images/79Y.jpeg,/home/docky/apps/exp/images/80Yi.jpeg,0,1,1,1,0,7,7,7,241.44566144100008,None,241.44566144100008,None,1,3.2403146429999197,241.44566144100008,None,244.71959794500003,None,244.71959794500003,None,247.2244726670001,None,247.2244726670001,None,0.8499387730000763,249.026340291,None,249.026340291,None,6,1,2.2369645429998855,249.86263830200005,None,249.86263830200005,None,249.86263830200005,None,252.11652152200008,None,1,0.6344963940000525,252.11652152200008,None,28,252.76757609800006,None,127,B,1,2021_May_27_1800,GazeFlow,2020.1.2,59.89826782355895,
2,Block805.xls,B,,,,,,,,,,,,,,,,,,0,1,1,1,,,,,,,,,,,,,,,,,,,,,,,,,,,,,,,,,,,,,,,,,,,,127,B,1,2021_May_27_1800,GazeFlow,2020.1.2,59.89826782355895,
3,Block804.xls,B,4,1,95,95,None,congruent,Right,Right,Left,80,79,1,yellow,2,5,/home/docky/apps/exp/images/80Yi.jpeg,/home/docky/apps/exp/images/79Y.jpeg,0,2,2,2,0,0,0,0,272.49016366399997,None,272.49016366399997,None,1,4.345590262999849,272.49016366399997,None,276.8601775520001,None,276.8601775520001,None,279.3855822380001,None,279.3855822380001,None,1.4840575350001473,281.16726300899995,None,281.16726300899995,None,5,1,0.7007553910000297,282.64307122700006,None,282.64307122700006,None,282.64307122700006,None,283.360311295,None,1,0.5184593970000151,283.360311295,None,30,283.8952347239999,None,127,B,1,2021_May_27_1800,GazeFlow,2020.1.2,59.89826782355895,
3,Block804.xls,B,4,2,107,11,None,incongruent,Left,Right,Left,83,80,3,blue,2,5,/home/docky/apps/exp/images/83Bi.jpeg,/home/docky/apps/exp/images/80B.jpeg,0,2,2,2,0,1,1,1,284.89694214099995,None,284.89694214099995,None,1,3.7749755869999717,284.89694214099995,None,288.7052238859999,None,288.7052238859999,None,291.20812520799996,None,291.20812520799996,None,1.0001754099998834,293.01371685000004,None,293.01371685000004,None,5,1,0.8010713489998125,293.9982163330001,None,293.9982163330001,None,293.9982163330001,None,294.8161380659999,None,1,0.4506975180001973,294.8161380659999,None,32,295.2835214469999,None,127,B,1,2021_May_27_1800,GazeFlow,2020.1.2,59.89826782355895,
3,Block804.xls,B,4,3,27,27,None,congruent,Right,Right,Left,19,16,3,blue,2,5,/home/docky/apps/exp/images/19Bi.jpeg,/home/docky/apps/exp/images/16B.jpeg,0,2,2,2,0,2,2,2,296.28567061700005,None,296.28567061700005,None,1,3.524453630999915,296.28567061700005,None,299.84348279799997,None,299.84348279799997,None,302.348317126,None,302.348317126,None,0.799691434999886,304.1446934769999,None,304.1446934769999,None,5,1,0.7174714249999852,304.93605958700005,None,304.93605958700005,None,304.93605958700005,None,305.670370306,None,1,0.4844128560000627,305.670370306,None,34,306.17116772300005,None,127,B,1,2021_May_27_1800,GazeFlow,2020.1.2,59.89826782355895,
3,Block804.xls,B,4,4,101,5,None,incongruent,Right,Left,Right,76,79,3,blue,2,6,/home/docky/apps/exp/images/76B.jpeg,/home/docky/apps/exp/images/79Bi.jpeg,0,2,2,2,0,3,3,3,307.17327862599996,None,307.17327862599996,None,1,3.5743353499999557,307.17327862599996,None,310.78087039699994,None,310.78087039699994,None,313.2864202789999,None,313.2864202789999,None,1.7676196039999468,315.08397023399993,None,315.08397023399993,None,6,1,0.8018989100000908,316.842671612,None,316.842671612,None,316.842671612,None,317.660584902,None,1,0.834904958999914,317.660584902,None,36,318.5119797099999,None,127,B,1,2021_May_27_1800,GazeFlow,2020.1.2,59.89826782355895,
3,Block804.xls,B,4,5,47,47,None,congruent,Right,Right,Left,39,38,1,blue,2,5,/home/docky/apps/exp/images/39Bi.jpeg,/home/docky/apps/exp/images/38B.jpeg,0,2,2,2,0,4,4,4,319.514025814,None,319.514025814,None,1,3.624843431000045,319.514025814,None,323.1727231309999,None,323.1727231309999,None,325.675543995,None,325.675543995,None,0.8498835929999586,327.4785801349999,None,327.4785801349999,None,5,1,0.7345291500000712,328.314941784,None,328.314941784,None,328.314941784,None,329.0658128939999,None,1,0.45091865999984293,329.0658128939999,None,38,329.53347775099996,None,127,B,1,2021_May_27_1800,GazeFlow,2020.1.2,59.89826782355895,
3,Block804.xls,B,4,6,90,90,None,congruent,Right,Right,Left,77,72,5,yellow,2,5,/home/docky/apps/exp/images/77Yi.jpeg,/home/docky/apps/exp/images/72Y.jpeg,0,2,2,2,0,5,5,5,330.535444331,None,330.535444331,None,1,2.9899292099999,330.535444331,None,333.5591416059999,None,333.5591416059999,None,336.0622804039999,None,336.0622804039999,None,0.9502101440000388,337.86752229800004,None,337.86752229800004,None,5,1,0.7008741819997795,338.8020552579999,None,338.8020552579999,None,338.8020552579999,None,339.51945534900005,None,1,0.5177916789998562,339.51945534900005,None,40,340.05382163600007,None,127,B,1,2021_May_27_1800,GazeFlow,2020.1.2,59.89826782355895,
3,Block804.xls,B,4,7,12,12,None,congruent,Left,Left,Right,38,39,1,blue,2,6,/home/docky/apps/exp/images/38B.jpeg,/home/docky/apps/exp/images/39Bi.jpeg,0,2,2,2,0,6,6,6,341.055810675,None,341.055810675,None,1,3.3906095680001727,341.055810675,None,344.4834792050001,None,344.4834792050001,None,346.98342129,None,346.98342129,None,1.0004141479998907,348.78614728699995,None,348.78614728699995,None,6,1,0.7843036970000412,349.77333717600004,None,349.77333717600004,None,349.77333717600004,None,350.57427294900003,None,1,0.41769202000000405,350.57427294900003,None,42,351.008444351,None,127,B,1,2021_May_27_1800,GazeFlow,2020.1.2,59.89826782355895,
3,Block804.xls,B,4,8,20,20,None,congruent,Left,Left,Right,76,79,3,blue,2,6,/home/docky/apps/exp/images/76Bi.jpeg,/home/docky/apps/exp/images/79B.jpeg,0,2,2,2,0,7,7,7,352.0106118440001,None,352.0106118440001,None,1,3.1566882110000734,352.0106118440001,None,355.1992434629999,None,355.1992434629999,None,357.7057551109999,None,357.7057551109999,None,0.9334461790001569,359.50748750599996,None,359.50748750599996,None,6,1,0.7346487859999797,360.4273963359999,None,360.4273963359999,None,360.4273963359999,None,361.1781822769999,None,1,0.4012696429999778,361.1781822769999,None,44,361.5957895700001,None,127,B,1,2021_May_27_1800,GazeFlow,2020.1.2,59.89826782355895,
3,Block804.xls,B,,,,,,,,,,,,,,,,,,0,2,2,2,,,,,,,,,,,,,,,,,,,,,,,,,,,,,,,,,,,,,,,,,,,,127,B,1,2021_May_27_1800,GazeFlow,2020.1.2,59.89826782355895,
4,Block814.xls,B,14,1,99,3,None,incongruent,Right,Left,Right,65,66,1,blue,2,6,/home/docky/apps/exp/images/35Yi.jpeg,/home/docky/apps/exp/images/66B.jpeg,0,3,3,3,0,0,0,0,381.019788199,None,381.019788199,None,1,3.6942756189998818,381.019788199,None,384.746862169,None,384.746862169,None,387.26319902599994,None,387.26319902599994,None,2.168683124000154,389.05971224099994,None,389.05971224099994,None,6,1,0.7517479400000866,391.22027948000004,None,391.22027948000004,None,391.22027948000004,None,391.987808028,None,1,0.41783842499989987,391.987808028,None,46,392.42236523199995,None,127,B,1,2021_May_27_1800,GazeFlow,2020.1.2,59.89826782355895,
4,Block814.xls,B,14,2,34,34,None,congruent,Right,Right,Left,66,65,1,blue,2,5,/home/docky/apps/exp/images/66B.jpeg,/home/docky/apps/exp/images/35Yi.jpeg,0,3,3,3,0,1,1,1,393.4242477099999,None,393.4242477099999,None,1,3.825005463000025,393.4242477099999,None,397.2830048190001,None,397.2830048190001,None,399.78726645300003,None,399.78726645300003,None,1.2170989659998668,401.589268358,None,401.589268358,None,5,1,0.7509078679997856,402.79280786799995,None,402.79280786799995,None,402.79280786799995,None,403.56055289999995,None,1,0.46824832800007243,403.56055289999995,None,48,404.0450574879999,None,127,B,1,2021_May_27_1800,GazeFlow,2020.1.2,59.89826782355895,
4,Block814.xls,B,14,3,91,91,None,congruent,Right,Right,Left,77,72,5,yellow,2,5,/home/docky/apps/exp/images/77Yi.jpeg,/home/docky/apps/exp/images/72Y.jpeg,0,3,3,3,0,2,2,2,405.04678538999997,None,405.04678538999997,None,1,3.8919295329999386,405.04678538999997,None,408.972233512,None,408.972233512,None,411.47538312200004,None,411.47538312200004,None,0.8498297879998518,413.2784886709999,None,413.2784886709999,None,5,1,0.8678540460000477,414.11494660900007,None,414.11494660900007,None,414.11494660900007,None,414.9993511370001,None,1,0.4511600820001149,414.9993511370001,None,50,415.4668573009999,None,127,B,1,2021_May_27_1800,GazeFlow,2020.1.2,59.89826782355895,
4,Block814.xls,B,14,4,68,68,None,congruent,Left,Left,Right,72,77,5,yellow,2,6,/home/docky/apps/exp/images/72Yi.jpeg,/home/docky/apps/exp/images/77Y.jpeg,0,3,3,3,0,3,3,3,416.468794291,None,416.468794291,None,1,3.992006220000121,416.468794291,None,420.49472024600004,None,420.49472024600004,None,422.997566085,None,422.997566085,None,0.8835634080001,424.80115361599997,None,424.80115361599997,None,6,1,0.818044369999825,425.6706998929999,None,425.6706998929999,None,425.6706998929999,None,426.50525010699994,None,1,0.40078598199988846,426.50525010699994,None,52,426.9226080799999,None,127,B,1,2021_May_27_1800,GazeFlow,2020.1.2,59.89826782355895,
4,Block814.xls,B,14,5,66,66,None,congruent,Left,Left,Right,69,76,7,yellow,2,6,/home/docky/apps/exp/images/69Yi.jpeg,/home/docky/apps/exp/images/76Y.jpeg,0,3,3,3,0,4,4,4,427.92457198400007,None,427.92457198400007,None,1,3.507478436000156,427.92457198400007,None,431.46426760300005,None,431.46426760300005,None,433.9686554949999,None,433.9686554949999,None,0.9164787529998648,435.77426894199994,None,435.77426894199994,None,6,1,0.8014405559999886,436.6754858259999,None,436.6754858259999,None,436.6754858259999,None,437.493196375,None,1,0.6182846899998822,437.493196375,None,54,438.1277747910001,None,127,B,1,2021_May_27_1800,GazeFlow,2020.1.2,59.89826782355895,
4,Block814.xls,B,14,6,115,19,None,incongruent,Left,Right,Left,80,79,1,yellow,2,5,/home/docky/apps/exp/images/80Yi.jpeg,/home/docky/apps/exp/images/79Y.jpeg,0,3,3,3,0,5,5,5,439.12957438700005,None,439.12957438700005,None,1,3.624489410000024,439.12957438700005,None,442.78790663199993,None,442.78790663199993,None,445.29241088799995,None,445.29241088799995,None,0.9167241310001373,447.08899359199995,None,447.08899359199995,None,5,1,0.8510324629999104,447.99764912399996,None,447.99764912399996,None,447.99764912399996,None,448.8653264249999,None,1,0.48515047000000777,448.8653264249999,None,56,449.3662445079999,None,127,B,1,2021_May_27_1800,GazeFlow,2020.1.2,59.89826782355895,
4,Block814.xls,B,14,7,9,9,None,congruent,Left,Left,Right,65,66,1,blue,2,6,/home/docky/apps/exp/images/35Yi.jpeg,/home/docky/apps/exp/images/66B.jpeg,0,3,3,3,0,6,6,6,450.36803217700003,None,450.36803217700003,None,1,4.226195157999882,450.36803217700003,None,454.6275777369999,None,454.6275777369999,None,457.130564067,None,457.130564067,None,1.033579606999865,458.9337766230001,None,458.9337766230001,None,6,1,0.9176311380001607,459.95400751600005,None,459.95400751600005,None,459.95400751600005,None,460.88843285200005,None,1,0.3848740190001081,460.88843285200005,None,58,461.28967452200004,None,127,B,1,2021_May_27_1800,GazeFlow,2020.1.2,59.89826782355895,
4,Block814.xls,B,14,8,14,14,None,congruent,Left,Left,Right,38,39,1,blue,2,6,/home/docky/apps/exp/images/38Bi.jpeg,/home/docky/apps/exp/images/39B.jpeg,0,3,3,3,0,7,7,7,462.29119356399997,None,462.29119356399997,None,1,3.8421610789998795,462.29119356399997,None,466.1666360259999,None,466.1666360259999,None,468.66963005,None,468.66963005,None,2.135780233999867,470.4731455230001,None,470.4731455230001,None,6,1,1.0011503049997827,472.59523663699997,None,472.59523663699997,None,472.59523663699997,None,473.613217869,None,1,0.41799088299990217,473.613217869,None,60,474.04741018899995,None,127,B,1,2021_May_27_1800,GazeFlow,2020.1.2,59.89826782355895,
4,Block814.xls,B,,,,,,,,,,,,,,,,,,0,3,3,3,,,,,,,,,,,,,,,,,,,,,,,,,,,,,,,,,,,,,,,,,,,,127,B,1,2021_May_27_1800,GazeFlow,2020.1.2,59.89826782355895,
5,Block812.xls,B,12,1,18,18,None,congruent,Left,Left,Right,73,76,3,blue,2,6,/home/docky/apps/exp/images/73B.jpeg,/home/docky/apps/exp/images/76Bi.jpeg,0,4,4,4,0,0,0,0,495.38960886099994,None,495.38960886099994,None,1,3.5964115279998623,495.38960886099994,None,499.0177613809999,None,499.0177613809999,None,501.5349751389999,None,501.5349751389999,None,0.7992081419999977,503.33748707099994,None,503.33748707099994,None,6,1,0.784446508999963,504.12315130499996,None,504.12315130499996,None,504.12315130499996,None,504.92418113400004,None,1,0.4676045039998371,504.92418113400004,None,62,505.408272763,None,127,B,1,2021_May_27_1800,GazeFlow,2020.1.2,59.89826782355895,
5,Block812.xls,B,12,2,3,3,None,congruent,Left,Left,Right,16,19,3,blue,2,6,/home/docky/apps/exp/images/16Bi.jpeg,/home/docky/apps/exp/images/19B.jpeg,0,4,4,4,0,1,1,1,506.410358503,None,506.410358503,None,1,3.540894517999959,506.410358503,None,509.98347042399996,None,509.98347042399996,None,512.487965775,None,512.487965775,None,0.7333080359999258,514.291638358,None,514.291638358,None,6,1,0.7843344089999391,515.010938035,None,515.010938035,None,515.010938035,None,515.8116621419999,None,1,0.384210757000119,515.8116621419999,None,64,516.2127076219999,None,127,B,1,2021_May_27_1800,GazeFlow,2020.1.2,59.89826782355895,
5,Block812.xls,B,12,3,56,56,None,congruent,Left,Left,Right,62,65,3,yellow,2,6,/home/docky/apps/exp/images/38Bi.jpeg,/home/docky/apps/exp/images/35B.jpeg,0,4,4,4,0,2,2,2,517.2146661429999,None,517.2146661429999,None,1,3.891539712999929,517.2146661429999,None,521.138668176,None,521.138668176,None,523.6448391869999,None,523.6448391869999,None,0.8328707989999202,525.446414498,None,525.446414498,None,6,1,0.7848415060000207,526.2661892230001,None,526.2661892230001,None,526.2661892230001,None,527.0670398309999,None,1,0.334219788999917,527.0670398309999,None,66,527.41780829,None,127,B,1,2021_May_27_1800,GazeFlow,2020.1.2,59.89826782355895,
5,Block812.xls,B,12,4,11,11,None,congruent,Left,Left,Right,38,39,1,blue,2,6,/home/docky/apps/exp/images/38B.jpeg,/home/docky/apps/exp/images/39Bi.jpeg,0,4,4,4,0,3,3,3,528.419571335,None,528.419571335,None,1,3.073882021999907,528.419571335,None,531.526992822,None,531.526992822,None,534.0316925550001,None,534.0316925550001,None,0.9167301719999159,535.8336662060001,None,535.8336662060001,None,6,1,0.8010024960001374,536.7366337839999,None,536.7366337839999,None,536.7366337839999,None,537.554286804,None,1,0.33399363200010157,537.554286804,None,68,537.9048933920001,None,127,B,1,2021_May_27_1800,GazeFlow,2020.1.2,59.89826782355895,
5,Block812.xls,B,12,5,116,20,None,incongruent,Left,Right,Left,35,33,2,yellow,2,5,/home/docky/apps/exp/images/35Yi.jpeg,/home/docky/apps/exp/images/33Y.jpeg,0,4,4,4,0,4,4,4,538.90679632,None,538.90679632,None,1,3.9250921659997857,538.90679632,None,542.8636086009999,None,542.8636086009999,None,545.3705085419999,None,545.3705085419999,None,0.7498471349999818,547.165989029,None,547.165989029,None,5,1,0.8845473910000692,547.908291081,None,547.908291081,None,547.908291081,None,548.8095671000001,None,1,0.43388751099996625,548.8095671000001,None,70,549.2604051430001,None,127,B,1,2021_May_27_1800,GazeFlow,2020.1.2,59.89826782355895,
5,Block812.xls,B,12,6,40,40,None,congruent,Right,Right,Left,79,76,3,blue,2,5,/home/docky/apps/exp/images/79Bi.jpeg,/home/docky/apps/exp/images/76B.jpeg,0,4,4,4,0,5,5,5,550.2621158909999,None,550.2621158909999,None,1,3.8253563920000033,550.2621158909999,None,554.120848368,None,554.120848368,None,556.624232207,None,556.624232207,None,0.9001008830000501,558.427281126,None,558.427281126,None,5,1,2.103691667000021,559.3138334319999,None,559.3138334319999,None,559.3138334319999,None,561.4338191070001,None,1,0.3509794439999041,561.4338191070001,None,72,561.801410177,None,127,B,1,2021_May_27_1800,GazeFlow,2020.1.2,59.89826782355895,
5,Block812.xls,B,12,7,76,76,None,congruent,Right,Right,Left,39,38,1,yellow,2,5,/home/docky/apps/exp/images/39Yi.jpeg,/home/docky/apps/exp/images/38Y.jpeg,0,4,4,4,0,6,6,6,562.8031298989999,None,562.8031298989999,None,1,3.6245370110000295,562.8031298989999,None,566.468742673,None,566.468742673,None,568.9642589770001,None,568.9642589770001,None,0.8336949770000501,570.76721189,None,570.76721189,None,5,1,0.7507944809999572,571.587642367,None,571.587642367,None,571.587642367,None,572.3550660410001,None,1,1.569949969999925,572.3550660410001,None,74,573.9415651639999,None,127,B,1,2021_May_27_1800,GazeFlow,2020.1.2,59.89826782355895,
5,Block812.xls,B,12,8,77,77,None,congruent,Right,Right,Left,39,38,1,yellow,2,5,/home/docky/apps/exp/images/39Y.jpeg,/home/docky/apps/exp/images/38Yi.jpeg,0,4,4,4,0,7,7,7,574.9434233439999,None,574.9434233439999,None,1,2.8730143560001125,574.9434233439999,None,577.850080622,None,577.850080622,None,580.354833163,None,580.354833163,None,1.3340397590000066,582.1520041849999,None,582.1520041849999,None,5,1,0.868104755999866,583.4773014049999,None,583.4773014049999,None,583.4773014049999,None,584.3618118669999,None,1,0.7019230880000578,584.3618118669999,None,76,585.079763659,None,127,B,1,2021_May_27_1800,GazeFlow,2020.1.2,59.89826782355895,
5,Block812.xls,B,,,,,,,,,,,,,,,,,,0,4,4,4,,,,,,,,,,,,,,,,,,,,,,,,,,,,,,,,,,,,,,,,,,,,127,B,1,2021_May_27_1800,GazeFlow,2020.1.2,59.89826782355895,
6,Block803.xls,B,3,1,84,84,None,congruent,Right,Right,Left,75,69,6,yellow,2,5,/home/docky/apps/exp/images/76Yi.jpeg,/home/docky/apps/exp/images/69Y.jpeg,0,5,5,5,0,0,0,0,616.308560703,None,616.308560703,None,1,3.6477346659999057,616.308560703,None,619.985668218,None,619.985668218,None,622.5073525590001,None,622.5073525590001,None,0.9660117050000281,624.3057726330001,None,624.3057726330001,None,5,1,0.7178836049999973,625.258338802,None,625.258338802,None,625.258338802,None,625.992645975,None,1,0.7855223890001071,625.992645975,None,78,626.7946424029999,None,127,B,1,2021_May_27_1800,GazeFlow,2020.1.2,59.89826782355895,
6,Block803.xls,B,3,2,82,82,None,congruent,Right,Right,Left,66,65,1,yellow,2,5,/home/docky/apps/exp/images/66Y.jpeg,/home/docky/apps/exp/images/35Bi.jpeg,0,5,5,5,0,1,1,1,627.79603694,None,627.79603694,None,1,3.123732683000071,627.79603694,None,630.9534846700001,None,630.9534846700001,None,633.455927875,None,633.455927875,None,1.10036965900008,635.2573796690001,None,635.2573796690001,None,5,1,0.7008147740000368,636.3466821239999,None,636.3466821239999,None,636.3466821239999,None,637.064348931,None,1,0.4339197870001499,637.064348931,None,80,637.51501431,None,127,B,1,2021_May_27_1800,GazeFlow,2020.1.2,59.89826782355895,
6,Block803.xls,B,3,3,80,80,None,congruent,Right,Right,Left,66,65,1,yellow,2,5,/home/docky/apps/exp/images/66Yi.jpeg,/home/docky/apps/exp/images/35B.jpeg,0,5,5,5,0,2,2,2,638.517124259,None,638.517124259,None,1,2.7392345640000713,638.517124259,None,641.290244903,None,641.290244903,None,643.7929999820001,None,643.7929999820001,None,1.0502837120000095,645.595930487,None,645.595930487,None,5,1,0.7173258279999573,646.633460126,None,646.633460126,None,646.633460126,None,647.3675443279999,None,1,0.4510600839998915,647.3675443279999,None,82,647.8350046999999,None,127,B,1,2021_May_27_1800,GazeFlow,2020.1.2,59.89826782355895,
6,Block803.xls,B,3,4,79,79,None,congruent,Right,Right,Left,66,65,1,yellow,2,5,/home/docky/apps/exp/images/66Y.jpeg,/home/docky/apps/exp/images/35Bi.jpeg,0,5,5,5,0,3,3,3,648.836892666,None,648.836892666,None,1,3.090246298000011,648.836892666,None,651.9587709919999,None,651.9587709919999,None,654.4633625879999,None,654.4633625879999,None,9.049871603999918,656.2668009250001,None,656.2668009250001,None,6,0,5.293060132999926,665.3203006839999,None,665.3203006839999,None,665.3203006839999,None,670.630031534,None,1,0.9182162110000718,670.630031534,None,80,671.564744475,None,127,B,1,2021_May_27_1800,GazeFlow,2020.1.2,59.89826782355895,
6,Block803.xls,B,3,5,92,92,None,congruent,Right,Right,Left,77,72,5,yellow,2,5,/home/docky/apps/exp/images/77Y.jpeg,/home/docky/apps/exp/images/72Yi.jpeg,0,5,5,5,0,4,4,4,672.5670522600001,None,672.5670522600001,None,1,6.412634272000105,672.5670522600001,None,679.0132884100001,None,679.0132884100001,None,681.516515368,None,681.516515368,None,0.8497811509998883,683.319463902,None,683.319463902,None,5,1,0.8844230799998059,684.1564537090001,None,684.1564537090001,None,684.1564537090001,None,685.057583606,None,1,0.6684118050000052,685.057583606,None,82,685.742455441,None,127,B,1,2021_May_27_1800,GazeFlow,2020.1.2,59.89826782355895,
6,Block803.xls,B,3,6,106,10,None,incongruent,Left,Right,Left,79,76,3,blue,2,5,/home/docky/apps/exp/images/79Bi.jpeg,/home/docky/apps/exp/images/76B.jpeg,0,5,5,5,0,5,5,5,686.7439567209999,None,686.7439567209999,None,1,3.1068330180000885,686.7439567209999,None,689.8829584580001,None,689.8829584580001,None,692.3876766430001,None,692.3876766430001,None,1.6347700719998102,694.1853199679999,None,694.1853199679999,None,5,1,0.7511248289999912,695.812253201,None,695.812253201,None,695.812253201,None,696.580162151,None,1,0.534906772000113,696.580162151,None,84,697.1308296130001,None,127,B,1,2021_May_27_1800,GazeFlow,2020.1.2,59.89826782355895,
6,Block803.xls,B,3,7,25,25,None,congruent,Right,Right,Left,19,16,3,blue,2,5,/home/docky/apps/exp/images/19Bi.jpeg,/home/docky/apps/exp/images/16B.jpeg,0,5,5,5,0,6,6,6,698.1328405280001,None,698.1328405280001,None,1,3.441257523000104,698.1328405280001,None,701.6095441370001,None,701.6095441370001,None,704.112298799,None,704.112298799,None,1.0168962090001514,705.9133784,None,705.9133784,None,5,1,0.8012794399999166,706.916979614,None,706.916979614,None,706.916979614,None,707.7348962609999,None,1,0.5185421969999879,707.7348962609999,None,86,708.2696890699999,None,127,B,1,2021_May_27_1800,GazeFlow,2020.1.2,59.89826782355895,
6,Block803.xls,B,3,8,46,46,None,congruent,Right,Right,Left,39,38,1,blue,2,5,/home/docky/apps/exp/images/39B.jpeg,/home/docky/apps/exp/images/38Bi.jpeg,0,5,5,5,0,7,7,7,709.271085954,None,709.271085954,None,1,3.0567395789998955,709.271085954,None,712.3615948920001,None,712.3615948920001,None,714.8647436240001,None,714.8647436240001,None,0.8330709409999599,716.6682471419999,None,716.6682471419999,None,5,1,0.7845049869999912,717.4877960819999,None,717.4877960819999,None,717.4877960819999,None,718.2888536810001,None,1,0.6849859950000337,718.2888536810001,None,88,718.9902786949999,None,127,B,1,2021_May_27_1800,GazeFlow,2020.1.2,59.89826782355895,
6,Block803.xls,B,,,,,,,,,,,,,,,,,,0,5,5,5,,,,,,,,,,,,,,,,,,,,,,,,,,,,,,,,,,,,,,,,,,,,127,B,1,2021_May_27_1800,GazeFlow,2020.1.2,59.89826782355895,
7,Block810.xls,B,10,1,119,23,None,incongruent,Left,Right,Left,76,69,7,yellow,2,5,/home/docky/apps/exp/images/76Yi.jpeg,/home/docky/apps/exp/images/69Y.jpeg,0,6,6,6,0,0,0,0,737.2098666919999,None,737.2098666919999,None,1,3.9634375799998907,737.2098666919999,None,741.20339167,None,741.20339167,None,743.7222457999999,None,743.7222457999999,None,1.3002550979999796,745.525912308,None,745.525912308,None,5,1,0.7678755110000566,746.81135679,None,746.81135679,None,746.81135679,None,747.5952570310001,None,1,0.6022991259999344,747.5952570310001,None,90,748.2136848959999,None,127,B,1,2021_May_27_1800,GazeFlow,2020.1.2,59.89826782355895,
7,Block810.xls,B,10,2,43,43,None,congruent,Right,Right,Left,83,80,3,blue,2,5,/home/docky/apps/exp/images/83B.jpeg,/home/docky/apps/exp/images/80Bi.jpeg,0,6,6,6,0,1,1,1,749.215351179,None,749.215351179,None,1,3.0405623789999936,749.215351179,None,752.288961726,None,752.288961726,None,754.791845724,None,754.791845724,None,0.783065568999973,756.595425753,None,756.595425753,None,5,1,0.851639410000189,757.365035949,None,757.365035949,None,757.365035949,None,758.2328974019999,None,1,0.6182243099999596,758.2328974019999,None,92,758.8679499519999,None,127,B,1,2021_May_27_1800,GazeFlow,2020.1.2,59.89826782355895,
7,Block810.xls,B,10,3,53,53,None,congruent,Left,Left,Right,65,66,1,yellow,2,6,/home/docky/apps/exp/images/35Bi.jpeg,/home/docky/apps/exp/images/66Y.jpeg,0,6,6,6,0,2,2,2,759.8693734159999,None,759.8693734159999,None,1,2.673049272000071,759.8693734159999,None,762.5757260620001,None,762.5757260620001,None,765.084080332,None,765.084080332,None,0.816422293999949,766.8819456169999,None,766.8819456169999,None,6,1,0.7675026709998747,767.685126307,None,767.685126307,None,767.685126307,None,768.4693782209999,None,1,0.5177116740001111,768.4693782209999,None,94,769.003529539,None,127,B,1,2021_May_27_1800,GazeFlow,2020.1.2,59.89826782355895,
7,Block810.xls,B,10,4,74,74,None,congruent,Right,Right,Left,35,33,2,yellow,2,5,/home/docky/apps/exp/images/35Y.jpeg,/home/docky/apps/exp/images/33Yi.jpeg,0,6,6,6,0,3,3,3,770.0058913319999,None,770.0058913319999,None,1,3.3909049259998483,770.0058913319999,None,773.4302414389999,None,773.4302414389999,None,775.934940418,None,775.934940418,None,0.8330751099999816,777.7366902589999,None,777.7366902589999,None,5,1,0.7174968880001416,778.556456259,None,778.556456259,None,778.556456259,None,779.2905623500001,None,1,0.6009708689998661,779.2905623500001,None,96,779.9081166230001,None,127,B,1,2021_May_27_1800,GazeFlow,2020.1.2,59.89826782355895,
7,Block810.xls,B,10,5,21,21,None,congruent,Left,Left,Right,76,79,3,blue,2,6,/home/docky/apps/exp/images/76B.jpeg,/home/docky/apps/exp/images/79Bi.jpeg,0,6,6,6,0,4,4,4,780.9102950270001,None,780.9102950270001,None,1,2.9898643409999295,780.9102950270001,None,783.9337999280001,None,783.9337999280001,None,786.437045333,None,786.437045333,None,0.933159655000054,788.237753136,None,788.237753136,None,6,1,0.751137184000072,789.1600708870001,None,789.1600708870001,None,789.1600708870001,None,789.92759054,None,1,0.551753367999936,789.92759054,None,98,790.495723556,None,127,B,1,2021_May_27_1800,GazeFlow,2020.1.2,59.89826782355895,
7,Block810.xls,B,10,6,85,85,None,congruent,Right,Right,Left,75,69,6,yellow,2,5,/home/docky/apps/exp/images/76Y.jpeg,/home/docky/apps/exp/images/69Yi.jpeg,0,6,6,6,0,5,5,5,791.4976241290001,None,791.4976241290001,None,1,2.906305853000049,791.4976241290001,None,794.4378060399999,None,794.4378060399999,None,796.94046759,None,796.94046759,None,1.2172596150001027,798.744177045,None,798.744177045,None,5,1,0.7843555629999628,799.9477551279999,None,799.9477551279999,None,799.9477551279999,None,800.7488002790001,None,1,1.3357388889999129,800.7488002790001,None,100,802.1013407119999,None,127,B,1,2021_May_27_1800,GazeFlow,2020.1.2,59.89826782355895,
7,Block810.xls,B,10,7,49,49,None,congruent,Left,Left,Right,33,35,2,yellow,2,6,/home/docky/apps/exp/images/33Yi.jpeg,/home/docky/apps/exp/images/35Y.jpeg,0,6,6,6,0,6,6,6,803.103988525,None,803.103988525,None,1,3.0566099800000757,803.103988525,None,806.194115233,None,806.194115233,None,808.698533349,None,808.698533349,None,1.1504171819999556,810.5003639470001,None,810.5003639470001,None,6,1,1.2524336010001207,811.6372853370001,None,811.6372853370001,None,811.6372853370001,None,812.9062516179999,None,1,0.5841501879999669,812.9062516179999,None,102,813.5070219480001,None,127,B,1,2021_May_27_1800,GazeFlow,2020.1.2,59.89826782355895,
7,Block810.xls,B,10,8,63,63,None,congruent,Left,Left,Right,38,39,1,yellow,2,6,/home/docky/apps/exp/images/38Y.jpeg,/home/docky/apps/exp/images/39Yi.jpeg,0,6,6,6,0,7,7,7,814.509079035,None,814.509079035,None,1,2.856146699999954,814.509079035,None,817.3972146189999,None,817.3972146189999,None,819.9012701510001,None,819.9012701510001,None,2.553786342999956,821.705715345,None,821.705715345,None,5,0,0.6521741149999798,824.2603148119999,None,824.2603148119999,None,824.2603148119999,None,824.9292555449999,None,1,0.6177665370000796,824.9292555449999,None,100,825.563651511,None,127,B,1,2021_May_27_1800,GazeFlow,2020.1.2,59.89826782355895,
7,Block810.xls,B,,,,,,,,,,,,,,,,,,0,6,6,6,,,,,,,,,,,,,,,,,,,,,,,,,,,,,,,,,,,,,,,,,,,,127,B,1,2021_May_27_1800,GazeFlow,2020.1.2,59.89826782355895,
8,Block801.xls,B,1,1,1,1,None,congruent,Left,Left,Right,16,19,3,blue,2,6,/home/docky/apps/exp/images/16Bi.jpeg,/home/docky/apps/exp/images/19B.jpeg,0,7,7,7,0,0,0,0,850.3636350090001,None,850.3636350090001,None,1,3.764830940000138,850.3636350090001,None,854.1556985960001,None,854.1556985960001,None,856.6753153090001,None,856.6753153090001,None,1.383433893000074,858.4788771890001,None,858.4788771890001,None,6,1,0.6839615169999433,859.847738248,None,859.847738248,None,859.847738248,None,860.5484321260001,None,1,0.5351805649997914,860.5484321260001,None,102,861.099931406,None,127,B,1,2021_May_27_1800,GazeFlow,2020.1.2,59.89826782355895,
8,Block801.xls,B,1,2,105,9,None,incongruent,Left,Right,Left,79,73,6,blue,2,5,/home/docky/apps/exp/images/79B.jpeg,/home/docky/apps/exp/images/73Bi.jpeg,0,7,7,7,0,1,1,1,862.1013285070001,None,862.1013285070001,None,1,2.8394610999998804,862.1013285070001,None,864.972705201,None,864.972705201,None,867.477264784,None,867.477264784,None,1.5346151530000043,869.280688523,None,869.280688523,None,5,1,1.0353639009999824,870.8023291950001,None,870.8023291950001,None,870.8023291950001,None,871.853836062,None,1,0.6010743159999947,871.853836062,None,104,872.4717139239999,None,127,B,1,2021_May_27_1800,GazeFlow,2020.1.2,59.89826782355895,
8,Block801.xls,B,1,3,62,62,None,congruent,Left,Left,Right,38,39,1,yellow,2,6,/home/docky/apps/exp/images/38Y.jpeg,/home/docky/apps/exp/images/39Yi.jpeg,0,7,7,7,0,2,2,2,873.473487897,None,873.473487897,None,1,2.940215786999943,873.473487897,None,876.4468555240001,None,876.4468555240001,None,878.95179405,None,878.95179405,None,1.0000704290000613,880.7554983770001,None,880.7554983770001,None,6,1,0.734375941000053,881.7401587080001,None,881.7401587080001,None,881.7401587080001,None,882.490907009,None,1,0.5514737629998763,882.490907009,None,106,883.058675068,None,127,B,1,2021_May_27_1800,GazeFlow,2020.1.2,59.89826782355895,
8,Block801.xls,B,1,4,38,38,None,congruent,Right,Right,Left,79,73,6,blue,2,5,/home/docky/apps/exp/images/79B.jpeg,/home/docky/apps/exp/images/73Bi.jpeg,0,7,7,7,0,3,3,3,884.060798144,None,884.060798144,None,1,2.822793360000105,884.060798144,None,886.917288114,None,886.917288114,None,889.420042643,None,889.420042643,None,1.06712759800007,891.2187116119999,None,891.2187116119999,None,5,1,0.7506917890000295,892.2772817800001,None,892.2772817800001,None,892.2772817800001,None,893.044881966,None,1,0.5354792870000438,893.044881966,None,108,893.59631111,None,127,B,1,2021_May_27_1800,GazeFlow,2020.1.2,59.89826782355895,
8,Block801.xls,B,1,5,6,6,None,congruent,Left,Left,Right,35,38,3,blue,2,6,/home/docky/apps/exp/images/35Bi.jpeg,/home/docky/apps/exp/images/38B.jpeg,0,7,7,7,0,4,4,4,894.5979632640001,None,894.5979632640001,None,1,2.8559934529998827,894.5979632640001,None,897.4876905000001,None,897.4876905000001,None,899.9912146469999,None,899.9912146469999,None,0.9667681830001129,901.7940162739999,None,901.7940162739999,None,6,1,0.8345395630001349,902.747623949,None,902.747623949,None,902.747623949,None,903.598543756,None,1,0.5848716689999947,903.598543756,None,110,904.2001958650001,None,127,B,1,2021_May_27_1800,GazeFlow,2020.1.2,59.89826782355895,
8,Block801.xls,B,1,6,51,51,None,congruent,Left,Left,Right,33,35,2,yellow,2,6,/home/docky/apps/exp/images/33Yi.jpeg,/home/docky/apps/exp/images/35Y.jpeg,0,7,7,7,0,5,5,5,905.2017608409999,None,905.2017608409999,None,1,3.441393031000189,905.2017608409999,None,908.676387621,None,908.676387621,None,911.179302429,None,911.179302429,None,1.8350462020000577,912.9823659209999,None,912.9823659209999,None,6,1,0.851916029999984,914.804077302,None,914.804077302,None,914.804077302,None,915.6725460729999,None,1,0.5176822060000177,915.6725460729999,None,112,916.2065161159999,None,127,B,1,2021_May_27_1800,GazeFlow,2020.1.2,59.89826782355895,
8,Block801.xls,B,1,7,73,73,None,congruent,Right,Right,Left,35,33,2,yellow,2,5,/home/docky/apps/exp/images/35Yi.jpeg,/home/docky/apps/exp/images/33Y.jpeg,0,7,7,7,0,6,6,6,917.2083458530001,None,917.2083458530001,None,1,3.1235678579998876,917.2083458530001,None,920.365649909,None,920.365649909,None,922.870596834,None,922.870596834,None,1.2839864830000352,924.672525382,None,924.672525382,None,5,1,0.6675867110000127,925.9426403279999,None,925.9426403279999,None,925.9426403279999,None,926.6268480900001,None,1,0.5688119100000222,926.6268480900001,None,114,927.211641888,None,127,B,1,2021_May_27_1800,GazeFlow,2020.1.2,59.89826782355895,
8,Block801.xls,B,1,8,96,96,None,congruent,Right,Right,Left,80,79,1,yellow,2,5,/home/docky/apps/exp/images/80Yi.jpeg,/home/docky/apps/exp/images/79Y.jpeg,0,7,7,7,0,7,7,7,928.21329461,None,928.21329461,None,1,2.7566290950001076,928.21329461,None,931.0033182249999,None,931.0033182249999,None,933.5062744449999,None,933.5062744449999,None,0.9835550289999446,935.3093975649999,None,935.3093975649999,None,5,1,0.7508148920001076,936.2794570399999,None,936.2794570399999,None,936.2794570399999,None,937.047174778,None,1,0.534601719000193,937.047174778,None,116,937.598578678,None,127,B,1,2021_May_27_1800,GazeFlow,2020.1.2,59.89826782355895,
8,Block801.xls,B,,,,,,,,,,,,,,,,,,0,7,7,7,,,,,,,,,,,,,,,,,,,,,,,,,,,,,,,,,,,,,,,,,,,,127,B,1,2021_May_27_1800,GazeFlow,2020.1.2,59.89826782355895,
9,Block802.xls,B,2,1,30,30,None,congruent,Right,Right,Left,38,35,3,blue,2,5,/home/docky/apps/exp/images/38B.jpeg,/home/docky/apps/exp/images/35Bi.jpeg,0,8,8,8,0,0,0,0,956.153857758,None,956.153857758,None,1,3.2296720399999685,956.153857758,None,959.4045394780001,None,959.4045394780001,None,961.9297775939999,None,961.9297775939999,None,1.116635974000019,963.731285053,None,963.731285053,None,5,1,1.7366475480000645,964.8350468430001,None,964.8350468430001,None,964.8350468430001,None,966.588153289,None,1,0.6175951430000168,966.588153289,None,118,967.2223363119999,None,127,B,1,2021_May_27_1800,GazeFlow,2020.1.2,59.89826782355895,
9,Block802.xls,B,2,2,5,5,None,congruent,Left,Left,Right,35,38,3,blue,2,6,/home/docky/apps/exp/images/35B.jpeg,/home/docky/apps/exp/images/38Bi.jpeg,0,8,8,8,0,1,1,1,968.2245839069999,None,968.2245839069999,None,1,3.173593379000067,968.2245839069999,None,971.431545741,None,971.431545741,None,973.934220422,None,973.934220422,None,1.1336165840000376,975.7378027770001,None,975.7378027770001,None,6,1,0.6675147399998878,976.858222203,None,976.858222203,None,976.858222203,None,977.542385493,None,1,0.4675894829999834,977.542385493,None,120,978.0266595799999,None,127,B,1,2021_May_27_1800,GazeFlow,2020.1.2,59.89826782355895,
9,Block802.xls,B,2,3,103,7,None,incongruent,Left,Right,Left,19,16,3,blue,2,5,/home/docky/apps/exp/images/19Bi.jpeg,/home/docky/apps/exp/images/16B.jpeg,0,8,8,8,0,2,2,2,979.028274457,None,979.028274457,None,1,2.8064588770000682,979.028274457,None,981.8685862750001,None,981.8685862750001,None,984.37175684,None,984.37175684,None,1.4344579589999285,986.1698378870001,None,986.1698378870001,None,5,1,0.7510902209999131,987.595741434,None,987.595741434,None,987.595741434,None,988.363502748,None,1,0.5515967349999755,988.363502748,None,122,988.931516052,None,127,B,1,2021_May_27_1800,GazeFlow,2020.1.2,59.89826782355895,
9,Block802.xls,B,2,4,35,35,None,congruent,Right,Right,Left,66,65,1,blue,2,5,/home/docky/apps/exp/images/66B.jpeg,/home/docky/apps/exp/images/35Yi.jpeg,0,8,8,8,0,3,3,3,989.9332157849999,None,989.9332157849999,None,1,3.1070773849999114,989.9332157849999,None,993.0720822809999,None,993.0720822809999,None,995.576997181,None,995.576997181,None,2.6205495019999034,997.3795239199999,None,997.3795239199999,None,6,0,0.7018111370000497,1000.0022677,None,1000.0022677,None,1000.0022677,None,1000.721079598,None,1,0.4674133680000523,1000.721079598,None,120,1001.204846852,None,127,B,1,2021_May_27_1800,GazeFlow,2020.1.2,59.89826782355895,
9,Block802.xls,B,2,5,42,42,None,congruent,Right,Right,Left,83,80,3,blue,2,5,/home/docky/apps/exp/images/83Bi.jpeg,/home/docky/apps/exp/images/80B.jpeg,0,8,8,8,0,4,4,4,1002.20737777,None,1002.20737777,None,1,3.7243198740000025,1002.20737777,None,1005.9655821900001,None,1005.9655821900001,None,1008.4683412869999,None,1008.4683412869999,None,1.0168395010000495,1010.2711599249999,None,1010.2711599249999,None,5,1,0.7009961630001271,1011.2750391449999,None,1011.2750391449999,None,1011.2750391449999,None,1011.992552896,None,1,0.5010812709999755,1011.992552896,None,122,1012.5102353949999,None,127,B,1,2021_May_27_1800,GazeFlow,2020.1.2,59.89826782355895,
9,Block802.xls,B,2,6,104,8,None,incongruent,Left,Right,Left,38,35,3,blue,2,5,/home/docky/apps/exp/images/38B.jpeg,/home/docky/apps/exp/images/35Bi.jpeg,0,8,8,8,0,5,5,5,1013.512461277,None,1013.512461277,None,1,3.8246432800001458,1013.512461277,None,1017.3710085759999,None,1017.3710085759999,None,1019.8742972770001,None,1019.8742972770001,None,1.401223826999967,1021.6775724469999,None,1021.6775724469999,None,5,1,0.7506151149998459,1023.064701792,None,1023.064701792,None,1023.064701792,None,1023.8323135999999,None,1,0.5015759329999128,1023.8323135999999,None,124,1024.350364173,None,127,B,1,2021_May_27_1800,GazeFlow,2020.1.2,59.89826782355895,
9,Block802.xls,B,2,7,22,22,None,congruent,Left,Left,Right,80,83,3,blue,2,6,/home/docky/apps/exp/images/80Bi.jpeg,/home/docky/apps/exp/images/83B.jpeg,0,8,8,8,0,6,6,6,1025.3518674709999,None,1025.3518674709999,None,1,3.174160857000061,1025.3518674709999,None,1028.559300015,None,1028.559300015,None,1031.063679375,None,1031.063679375,None,0.9502133870000762,1032.865404807,None,1032.865404807,None,6,1,0.8010013239997988,1033.802263524,None,1033.802263524,None,1033.802263524,None,1034.619821145,None,1,0.5349811159999263,1034.619821145,None,126,1035.171395673,None,127,B,1,2021_May_27_1800,GazeFlow,2020.1.2,59.89826782355895,
9,Block802.xls,B,2,8,54,54,None,congruent,Left,Left,Right,65,66,1,yellow,2,6,/home/docky/apps/exp/images/35Bi.jpeg,/home/docky/apps/exp/images/66Y.jpeg,0,8,8,8,0,7,7,7,1036.172861248,None,1036.172861248,None,1,2.9403358500001104,1036.172861248,None,1039.146387742,None,1039.146387742,None,1041.652281636,None,1041.652281636,None,1.1337327480000567,1043.452302611,None,1043.452302611,None,6,1,0.7340491410000141,1044.573127401,None,1044.573127401,None,1044.573127401,None,1045.323976428,None,1,0.48504142899992075,1045.323976428,None,128,1045.825493006,None,127,B,1,2021_May_27_1800,GazeFlow,2020.1.2,59.89826782355895,
9,Block802.xls,B,,,,,,,,,,,,,,,,,,0,8,8,8,,,,,,,,,,,,,,,,,,,,,,,,,,,,,,,,,,,,,,,,,,,,127,B,1,2021_May_27_1800,GazeFlow,2020.1.2,59.89826782355895,
10,Block813.xls,B,13,1,70,70,None,congruent,Left,Left,Right,79,82,3,yellow,2,6,/home/docky/apps/exp/images/79Yi.jpeg,/home/docky/apps/exp/images/80Y.jpeg,0,9,9,9,0,0,0,0,1066.901309573,None,1066.901309573,None,1,3.5133480120000513,1066.901309573,None,1070.437980202,None,1070.437980202,None,1072.962219307,None,1072.962219307,None,0.9493783059999714,1074.764305609,None,1074.764305609,None,6,1,0.6673144710000543,1075.70036974,None,1075.70036974,None,1075.70036974,None,1076.384517313,None,1,0.46751337899991086,1076.384517313,None,130,1076.868787067,None,127,B,1,2021_May_27_1800,GazeFlow,2020.1.2,59.89826782355895,
10,Block813.xls,B,13,2,60,60,None,congruent,Left,Left,Right,38,39,1,yellow,2,6,/home/docky/apps/exp/images/38Yi.jpeg,/home/docky/apps/exp/images/39Y.jpeg,0,9,9,9,0,1,1,1,1077.870614912,None,1077.870614912,None,1,2.5393969059998653,1077.870614912,None,1080.446868964,None,1080.446868964,None,1082.945935289,None,1082.945935289,None,0.9168397710000136,1084.75194188,None,1084.75194188,None,6,1,0.7344615679999151,1085.652946326,None,1085.652946326,None,1085.652946326,None,1086.4038137329999,None,1,0.4842773319999196,1086.4038137329999,None,132,1086.904611892,None,127,B,1,2021_May_27_1800,GazeFlow,2020.1.2,59.89826782355895,
10,Block813.xls,B,13,3,81,81,None,congruent,Right,Right,Left,66,65,1,yellow,2,5,/home/docky/apps/exp/images/66Y.jpeg,/home/docky/apps/exp/images/35Bi.jpeg,0,9,9,9,0,2,2,2,1087.906796503,None,1087.906796503,None,1,2.6725470690000748,1087.906796503,None,1090.611665096,None,1090.611665096,None,1093.116105623,None,1093.116105623,None,1.5512470149999444,1094.919550158,None,1094.919550158,None,6,0,0.8016524629999822,1096.457357917,None,1096.457357917,None,1096.457357917,None,1097.275315332,None,1,0.4850993740001286,1097.275315332,None,130,1097.776373354,None,127,B,1,2021_May_27_1800,GazeFlow,2020.1.2,59.89826782355895,
10,Block813.xls,B,13,4,110,14,None,incongruent,Right,Left,Right,65,66,1,yellow,2,6,/home/docky/apps/exp/images/35B.jpeg,/home/docky/apps/exp/images/66Yi.jpeg,0,9,9,9,0,3,3,3,1098.777874636,None,1098.777874636,None,1,3.507929396999998,1098.777874636,None,1102.317323939,None,1102.317323939,None,1104.822070373,None,1104.822070373,None,2.7543172480000067,1106.624758144,None,1106.624758144,None,6,1,0.6856739410000046,1109.381047544,None,1109.381047544,None,1109.381047544,None,1110.083267241,None,1,0.5510570450001069,1110.083267241,None,132,1110.650978874,None,127,B,1,2021_May_27_1800,GazeFlow,2020.1.2,59.89826782355895,
10,Block813.xls,B,13,5,17,17,None,congruent,Left,Left,Right,73,76,3,blue,2,6,/home/docky/apps/exp/images/73Bi.jpeg,/home/docky/apps/exp/images/76B.jpeg,0,9,9,9,0,4,4,4,1111.653000642,None,1111.653000642,None,1,2.722627753999859,1111.653000642,None,1114.408794893,None,1114.408794893,None,1116.9129460679999,None,1116.9129460679999,None,1.0335078360001262,1118.715772674,None,1118.715772674,None,6,1,0.8010512390001168,1119.735879262,None,1119.735879262,None,1119.735879262,None,1120.553470269,None,1,0.26741132500001186,1120.553470269,None,134,1120.837591109,None,127,B,1,2021_May_27_1800,GazeFlow,2020.1.2,59.89826782355895,
10,Block813.xls,B,13,6,111,15,None,incongruent,Right,Left,Right,62,65,3,yellow,2,6,/home/docky/apps/exp/images/38B.jpeg,/home/docky/apps/exp/images/35Bi.jpeg,0,9,9,9,0,5,5,5,1121.839705589,None,1121.839705589,None,1,2.0548027080001248,1121.839705589,None,1123.92770596,None,1123.92770596,None,1126.430109032,None,1126.430109032,None,2.320071667000093,1128.228826996,None,1128.228826996,None,6,1,0.6668109280001318,1130.540803368,None,1130.540803368,None,1130.540803368,None,1131.224249919,None,1,0.48482285299996875,1131.224249919,None,136,1131.725128443,None,127,B,1,2021_May_27_1800,GazeFlow,2020.1.2,59.89826782355895,
10,Block813.xls,B,13,7,55,55,None,congruent,Left,Left,Right,65,66,1,yellow,2,6,/home/docky/apps/exp/images/35B.jpeg,/home/docky/apps/exp/images/66Yi.jpeg,0,9,9,9,0,6,6,6,1132.727420723,None,1132.727420723,None,1,3.1404158760001337,1132.727420723,None,1135.901084091,None,1135.901084091,None,1138.404505028,None,1138.404505028,None,1.2506269149998843,1140.202914645,None,1140.202914645,None,6,1,0.7341656819999116,1141.444823439,None,1141.444823439,None,1141.444823439,None,1142.195774156,None,1,0.5349192759999823,1142.195774156,None,138,1142.747142811,None,127,B,1,2021_May_27_1800,GazeFlow,2020.1.2,59.89826782355895,
10,Block813.xls,B,13,8,26,26,None,congruent,Right,Right,Left,19,16,3,blue,2,5,/home/docky/apps/exp/images/19B.jpeg,/home/docky/apps/exp/images/16Bi.jpeg,0,9,9,9,0,7,7,7,1143.748649856,None,1143.748649856,None,1,3.9920871959998294,1143.748649856,None,1147.772191274,None,1147.772191274,None,1150.277054966,None,1150.277054966,None,1.0503821879999578,1152.075852442,None,1152.075852442,None,5,1,0.7344328540000333,1153.117396177,None,1153.117396177,None,1153.117396177,None,1153.868339786,None,1,0.6016735690000132,1153.868339786,None,140,1154.486549095,None,127,B,1,2021_May_27_1800,GazeFlow,2020.1.2,59.89826782355895,
10,Block813.xls,B,,,,,,,,,,,,,,,,,,0,9,9,9,,,,,,,,,,,,,,,,,,,,,,,,,,,,,,,,,,,,,,,,,,,,127,B,1,2021_May_27_1800,GazeFlow,2020.1.2,59.89826782355895,
11,Block806.xls,B,6,1,10,10,None,congruent,Left,Left,Right,65,66,1,blue,2,6,/home/docky/apps/exp/images/35Y.jpeg,/home/docky/apps/exp/images/66Bi.jpeg,0,10,10,10,0,0,0,0,1174.576653657,None,1174.576653657,None,1,3.749373803000026,1174.576653657,None,1178.352086771,None,1178.352086771,None,1180.870087212,None,1180.870087212,None,1.0831069129999378,1182.673295604,None,1182.673295604,None,6,1,0.7341474310001104,1183.7436533,None,1183.7436533,None,1183.7436533,None,1184.494444915,None,1,0.4175360470001124,1184.494444915,None,142,1184.928556098,None,127,B,1,2021_May_27_1800,GazeFlow,2020.1.2,59.89826782355895,
11,Block806.xls,B,6,2,89,89,None,congruent,Right,Right,Left,76,69,7,yellow,2,5,/home/docky/apps/exp/images/76Yi.jpeg,/home/docky/apps/exp/images/69Y.jpeg,0,10,10,10,0,1,1,1,1185.930551984,None,1185.930551984,None,1,2.773182441000017,1185.930551984,None,1188.7369491489999,None,1188.7369491489999,None,1191.240472358,None,1191.240472358,None,0.9998758439999165,1193.039485655,None,1193.039485655,None,5,1,0.9013106330000937,1194.0302956,None,1194.0302956,None,1194.0302956,None,1194.948187743,None,1,0.6187482129998898,1194.948187743,None,144,1195.583253548,None,127,B,1,2021_May_27_1800,GazeFlow,2020.1.2,59.89826782355895,
11,Block806.xls,B,6,3,88,88,None,congruent,Right,Right,Left,76,69,7,yellow,2,5,/home/docky/apps/exp/images/76Y.jpeg,/home/docky/apps/exp/images/69Yi.jpeg,0,10,10,10,0,2,2,2,1196.584366939,None,1196.584366939,None,1,2.3220702230000825,1196.584366939,None,1198.940354312,None,1198.940354312,None,1201.4451195679999,None,1201.4451195679999,None,1.2001412199999777,1203.245544141,None,1203.245544141,None,5,1,0.9014174300000377,1204.4337563,None,1204.4337563,None,1204.4337563,None,1205.351295841,None,1,0.5846094039998206,1205.351295841,None,146,1205.952502038,None,127,B,1,2021_May_27_1800,GazeFlow,2020.1.2,59.89826782355895,
11,Block806.xls,B,6,4,109,13,None,incongruent,Right,Left,Right,33,35,2,yellow,2,6,/home/docky/apps/exp/images/33Yi.jpeg,/home/docky/apps/exp/images/35Y.jpeg,0,10,10,10,0,3,3,3,1206.954693581,None,1206.954693581,None,1,2.6893105519998244,1206.954693581,None,1209.677919657,None,1209.677919657,None,1212.182807801,None,1212.182807801,None,1.401005262000126,1213.984655856,None,1213.984655856,None,5,0,0.7674874880001425,1215.371714745,None,1215.371714745,None,1215.371714745,None,1216.155942177,None,1,0.552098161999993,1216.155942177,None,144,1216.724137618,None,127,B,1,2021_May_27_1800,GazeFlow,2020.1.2,59.89826782355895,
11,Block806.xls,B,6,5,37,37,None,congruent,Right,Right,Left,79,73,6,blue,2,5,/home/docky/apps/exp/images/79Bi.jpeg,/home/docky/apps/exp/images/73B.jpeg,0,10,10,10,0,4,4,4,1217.725705534,None,1217.725705534,None,1,3.056616130000066,1217.725705534,None,1220.814651246,None,1220.814651246,None,1223.318651565,None,1223.318651565,None,1.0334444640000129,1225.116744189,None,1225.116744189,None,5,1,0.7844402499999887,1226.142628886,None,1226.142628886,None,1226.142628886,None,1226.943563074,None,1,0.5353990359999443,1226.943563074,None,146,1227.495117223,None,127,B,1,2021_May_27_1800,GazeFlow,2020.1.2,59.89826782355895,
11,Block806.xls,B,6,6,108,12,None,incongruent,Left,Right,Left,39,38,1,blue,2,5,/home/docky/apps/exp/images/39Bi.jpeg,/home/docky/apps/exp/images/38B.jpeg,0,10,10,10,0,5,5,5,1228.496532797,None,1228.496532797,None,1,3.1901926069999718,1228.496532797,None,1231.720633534,None,1231.720633534,None,1234.222940616,None,1234.222940616,None,3.5889351540001826,1236.027143432,None,1236.027143432,None,6,0,0.7168002969999634,1239.619758218,None,1239.619758218,None,1239.619758218,None,1240.352871133,None,1,0.4844130540000151,1240.352871133,None,144,1240.853806873,None,127,B,1,2021_May_27_1800,GazeFlow,2020.1.2,59.89826782355895,
11,Block806.xls,B,6,7,52,52,None,congruent,Left,Left,Right,65,66,1,yellow,2,6,/home/docky/apps/exp/images/35B.jpeg,/home/docky/apps/exp/images/66Yi.jpeg,0,10,10,10,0,6,6,6,1241.856202243,None,1241.856202243,None,1,3.640813671999922,1241.856202243,None,1245.534521514,None,1245.534521514,None,1248.0353724180002,None,1248.0353724180002,None,3.756055255999854,1249.8372832869998,None,1249.8372832869998,None,6,1,0.7183584620001966,1253.595059776,None,1253.595059776,None,1253.595059776,None,1254.330287564,None,1,0.4343143539999801,1254.330287564,None,146,1254.781144586,None,127,B,1,2021_May_27_1800,GazeFlow,2020.1.2,59.89826782355895,
11,Block806.xls,B,6,8,75,75,None,congruent,Right,Right,Left,35,33,2,yellow,2,5,/home/docky/apps/exp/images/35Yi.jpeg,/home/docky/apps/exp/images/33Y.jpeg,0,10,10,10,0,7,7,7,1255.783180822,None,1255.783180822,None,1,2.4555996889998823,1255.783180822,None,1258.272155932,None,1258.272155932,None,1260.7754808440002,None,1260.7754808440002,None,0.9166861300000164,1262.5775579540002,None,1262.5775579540002,None,5,1,0.7678026329999739,1263.481782531,None,1263.481782531,None,1263.481782531,None,1264.2660568079998,None,1,0.5177335820003464,1264.2660568079998,None,148,1264.8005187370002,None,127,B,1,2021_May_27_1800,GazeFlow,2020.1.2,59.89826782355895,
11,Block806.xls,B,,,,,,,,,,,,,,,,,,0,10,10,10,,,,,,,,,,,,,,,,,,,,,,,,,,,,,,,,,,,,,,,,,,,,127,B,1,2021_May_27_1800,GazeFlow,2020.1.2,59.89826782355895,
12,Block811.xls,B,11,1,86,86,None,congruent,Right,Right,Left,75,69,6,yellow,2,5,/home/docky/apps/exp/images/76Y.jpeg,/home/docky/apps/exp/images/69Yi.jpeg,0,11,11,11,0,0,0,0,1290.3679173389999,None,1290.3679173389999,None,1,2.763224078999883,1290.3679173389999,None,1293.1593907529998,None,1293.1593907529998,None,1295.678461739,None,1295.678461739,None,0.8658578780000425,1297.4816261049998,None,1297.4816261049998,None,5,1,0.7849963460002982,1298.3325651940002,None,1298.3325651940002,None,1298.3325651940002,None,1299.133761491,None,1,0.5012461400001484,1299.133761491,None,150,1299.651349213,None,127,B,1,2021_May_27_1800,GazeFlow,2020.1.2,59.89826782355895,
12,Block811.xls,B,11,2,83,83,None,congruent,Right,Right,Left,75,69,6,yellow,2,5,/home/docky/apps/exp/images/76Yi.jpeg,/home/docky/apps/exp/images/69Y.jpeg,0,11,11,11,0,1,1,1,1300.6534960790002,None,1300.6534960790002,None,1,2.4557687850001457,1300.6534960790002,None,1303.142802777,None,1303.142802777,None,1305.6455979300001,None,1305.6455979300001,None,1.033519762999731,1307.4485793249999,None,1307.4485793249999,None,5,1,0.8010615340003824,1308.469226641,None,1308.469226641,None,1308.469226641,None,1309.286704625,None,1,0.5351380629999767,1309.286704625,None,152,1309.838331916,None,127,B,1,2021_May_27_1800,GazeFlow,2020.1.2,59.89826782355895,
12,Block811.xls,B,11,3,28,28,None,congruent,Right,Right,Left,38,35,3,blue,2,5,/home/docky/apps/exp/images/38Bi.jpeg,/home/docky/apps/exp/images/35B.jpeg,0,11,11,11,0,2,2,2,1310.8398380269998,None,1310.8398380269998,None,1,2.2555088090002755,1310.8398380269998,None,1313.128942914,None,1313.128942914,None,1315.6318885479998,None,1315.6318885479998,None,0.9832222679997358,1317.4351819239998,None,1317.4351819239998,None,5,1,0.7675494119998802,1318.4050159360002,None,1318.4050159360002,None,1318.4050159360002,None,1319.189278659,None,1,0.5517900180002471,1319.189278659,None,154,1319.757520241,None,127,B,1,2021_May_27_1800,GazeFlow,2020.1.2,59.89826782355895,
12,Block811.xls,B,11,4,58,58,None,congruent,Left,Left,Right,62,65,3,yellow,2,6,/home/docky/apps/exp/images/38B.jpeg,/home/docky/apps/exp/images/35Bi.jpeg,0,11,11,11,0,3,3,3,1320.7594710310002,None,1320.7594710310002,None,1,2.388755097000285,1320.7594710310002,None,1323.1816222129999,None,1323.1816222129999,None,1325.6890950099998,None,1325.6890950099998,None,1.1003320099998746,1327.487046351,None,1327.487046351,None,6,1,0.7506095300000197,1328.5753282120002,None,1328.5753282120002,None,1328.5753282120002,None,1329.3424875970002,None,1,0.5187321630000952,1329.3424875970002,None,156,1329.877288031,None,127,B,1,2021_May_27_1800,GazeFlow,2020.1.2,59.89826782355895,
12,Block811.xls,B,11,5,32,32,None,congruent,Right,Right,Left,66,65,1,blue,2,5,/home/docky/apps/exp/images/66Bi.jpeg,/home/docky/apps/exp/images/35Y.jpeg,0,11,11,11,0,4,4,4,1330.8788250690002,None,1330.8788250690002,None,1,2.25544126900013,1330.8788250690002,None,1333.171101109,None,1333.171101109,None,1335.6738719399998,None,1335.6738719399998,None,1.0837410369999816,1337.4743407509998,None,1337.4743407509998,None,5,1,0.7173698569999942,1338.54446837,None,1338.54446837,None,1338.54446837,None,1339.2787431680001,None,1,0.5854031650001161,1339.2787431680001,None,158,1339.879896574,None,127,B,1,2021_May_27_1800,GazeFlow,2020.1.2,59.89826782355895,
12,Block811.xls,B,11,6,67,67,None,congruent,Left,Left,Right,72,77,5,yellow,2,6,/home/docky/apps/exp/images/72Y.jpeg,/home/docky/apps/exp/images/77Yi.jpeg,0,11,11,11,0,5,5,5,1340.8815388290002,None,1340.8815388290002,None,1,2.6557747359997848,1340.8815388290002,None,1343.571213978,None,1343.571213978,None,1346.075837475,None,1346.075837475,None,1.2507091820002643,1347.8782987040001,None,1347.8782987040001,None,6,1,0.7509784029998627,1349.1147661060002,None,1349.1147661060002,None,1349.1147661060002,None,1349.882601439,None,1,0.5018035960001725,1349.882601439,None,160,1350.4005058720002,None,127,B,1,2021_May_27_1800,GazeFlow,2020.1.2,59.89826782355895,
12,Block811.xls,B,11,7,120,24,None,incongruent,Left,Right,Left,77,72,5,yellow,2,5,/home/docky/apps/exp/images/77Y.jpeg,/home/docky/apps/exp/images/72Yi.jpeg,0,11,11,11,0,6,6,6,1351.4021689879999,None,1351.4021689879999,None,1,2.1046516999999767,1351.4021689879999,None,1353.5405440769998,None,1353.5405440769998,None,1356.0440951080002,None,1356.0440951080002,None,1.5177540909999152,1357.8490144730001,None,1357.8490144730001,None,5,1,0.785642824000206,1359.351438638,None,1359.351438638,None,1359.351438638,None,1360.1529736660002,None,1,0.5180708279999635,1360.1529736660002,None,162,1360.687241621,None,127,B,1,2021_May_27_1800,GazeFlow,2020.1.2,59.89826782355895,
12,Block811.xls,B,11,8,57,57,None,congruent,Left,Left,Right,62,65,3,yellow,2,6,/home/docky/apps/exp/images/38Bi.jpeg,/home/docky/apps/exp/images/35B.jpeg,0,11,11,11,0,7,7,7,1361.688440314,None,1361.688440314,None,1,2.489103562999844,1361.688440314,None,1364.2114553069998,None,1364.2114553069998,None,1366.7138199009999,None,1366.7138199009999,None,1.5680123569995885,1368.5176011350002,None,1368.5176011350002,None,6,1,2.504847477000112,1370.0719645800002,None,1370.0719645800002,None,1370.0719645800002,None,1372.5937587390001,None,1,0.8183309160003773,1372.5937587390001,None,164,1373.4285605359998,None,127,B,1,2021_May_27_1800,GazeFlow,2020.1.2,59.89826782355895,
12,Block811.xls,B,,,,,,,,,,,,,,,,,,0,11,11,11,,,,,,,,,,,,,,,,,,,,,,,,,,,,,,,,,,,,,,,,,,,,127,B,1,2021_May_27_1800,GazeFlow,2020.1.2,59.89826782355895,
13,Block808.xls,B,8,1,118,22,None,incongruent,Left,Right,Left,75,69,6,yellow,2,5,/home/docky/apps/exp/images/76Y.jpeg,/home/docky/apps/exp/images/69Yi.jpeg,0,12,12,12,0,0,0,0,1396.241870824,None,1396.241870824,None,1,3.192037193000033,1396.241870824,None,1399.460107786,None,1399.460107786,None,1401.9831888229999,None,1401.9831888229999,None,1.433712617999845,1403.7693195680001,None,1403.7693195680001,None,5,1,0.7182237359997998,1405.190387169,None,1405.190387169,None,1405.190387169,None,1405.924669574,None,1,0.5676302460001352,1405.924669574,None,166,1406.509177225,None,127,B,1,2021_May_27_1800,GazeFlow,2020.1.2,59.89826782355895,
13,Block808.xls,B,8,2,7,7,None,congruent,Left,Left,Right,65,66,1,blue,2,6,/home/docky/apps/exp/images/35Yi.jpeg,/home/docky/apps/exp/images/66B.jpeg,0,12,12,12,0,1,1,1,1407.5111681689998,None,1407.5111681689998,None,1,3.073437921999812,1407.5111681689998,None,1410.618160139,None,1410.618160139,None,1413.120887114,None,1413.120887114,None,1.0836674839997613,1414.924070418,None,1414.924070418,None,6,1,0.7346045210001648,1415.994789858,None,1415.994789858,None,1415.994789858,None,1416.7456523939998,None,1,0.4343101829999796,1416.7456523939998,None,168,1417.196758543,None,127,B,1,2021_May_27_1800,GazeFlow,2020.1.2,59.89826782355895,
13,Block808.xls,B,8,3,112,16,None,incongruent,Right,Left,Right,69,76,7,yellow,2,6,/home/docky/apps/exp/images/69Yi.jpeg,/home/docky/apps/exp/images/76Y.jpeg,0,12,12,12,0,2,2,2,1418.198474097,None,1418.198474097,None,1,2.8567210349997367,1418.198474097,None,1421.0885989629999,None,1421.0885989629999,None,1423.5933802920001,None,1423.5933802920001,None,1.1504442739997103,1425.395201855,None,1425.395201855,None,6,1,0.767804026000249,1426.5318737619998,None,1426.5318737619998,None,1426.5318737619998,None,1427.3161279439998,None,1,0.5183550219999233,1427.3161279439998,None,170,1427.850993579,None,127,B,1,2021_May_27_1800,GazeFlow,2020.1.2,59.89826782355895,
13,Block808.xls,B,8,4,97,1,None,incongruent,Right,Left,Right,16,19,3,blue,2,6,/home/docky/apps/exp/images/16Bi.jpeg,/home/docky/apps/exp/images/19B.jpeg,0,12,12,12,0,3,3,3,1428.8525123820002,None,1428.8525123820002,None,1,2.7564442530001543,1428.8525123820002,None,1431.6422700310002,None,1431.6422700310002,None,1434.145323906,None,1434.145323906,None,1.1504601500000717,1435.9483935179999,None,1435.9483935179999,None,6,1,0.7677558279997356,1437.0857074070002,None,1437.0857074070002,None,1437.0857074070002,None,1437.869978002,None,1,0.5179420029999164,1437.869978002,None,172,1438.404452036,None,127,B,1,2021_May_27_1800,GazeFlow,2020.1.2,59.89826782355895,
13,Block808.xls,B,8,5,24,24,None,congruent,Left,Left,Right,80,83,3,blue,2,6,/home/docky/apps/exp/images/80Bi.jpeg,/home/docky/apps/exp/images/83B.jpeg,0,12,12,12,0,4,4,4,1439.4064330550002,None,1439.4064330550002,None,1,3.0732329529996605,1439.4064330550002,None,1442.513771736,None,1442.513771736,None,1445.0181087170001,None,1445.0181087170001,None,1.0172394659998645,1446.820008761,None,1446.820008761,None,6,1,0.8678947789999256,1447.823227099,None,1447.823227099,None,1447.823227099,None,1448.707755908,None,1,0.5682248519997302,1448.707755908,None,174,1449.292635911,None,127,B,1,2021_May_27_1800,GazeFlow,2020.1.2,59.89826782355895,
13,Block808.xls,B,8,6,13,13,None,congruent,Left,Left,Right,38,39,1,blue,2,6,/home/docky/apps/exp/images/38Bi.jpeg,/home/docky/apps/exp/images/39B.jpeg,0,12,12,12,0,5,5,5,1450.2940492,None,1450.2940492,None,1,2.8062834289999046,1450.2940492,None,1453.1342149660002,None,1453.1342149660002,None,1455.6388885039999,None,1455.6388885039999,None,1.0171899560000384,1457.4421535919998,None,1457.4421535919998,None,6,1,0.9178135410002142,1458.4440317739998,None,1458.4440317739998,None,1458.4440317739998,None,1459.378422262,None,1,0.5520537610000247,1459.378422262,None,176,1459.9466662749999,None,127,B,1,2021_May_27_1800,GazeFlow,2020.1.2,59.89826782355895,
13,Block808.xls,B,8,7,8,8,None,congruent,Left,Left,Right,65,66,1,blue,2,6,/home/docky/apps/exp/images/35Y.jpeg,/home/docky/apps/exp/images/66Bi.jpeg,0,12,12,12,0,6,6,6,1460.948103287,None,1460.948103287,None,1,2.706650227999944,1460.948103287,None,1463.687636066,None,1463.687636066,None,1466.1907772490001,None,1466.1907772490001,None,1.1168551870000556,1467.994581536,None,1467.994581536,None,6,1,0.7675623569998606,1469.097881585,None,1469.097881585,None,1469.097881585,None,1469.882123865,None,1,0.518621584000357,1469.882123865,None,178,1470.416833476,None,127,B,1,2021_May_27_1800,GazeFlow,2020.1.2,59.89826782355895,
13,Block808.xls,B,8,8,31,31,None,congruent,Right,Right,Left,66,65,1,blue,2,5,/home/docky/apps/exp/images/66B.jpeg,/home/docky/apps/exp/images/35Yi.jpeg,0,12,12,12,0,7,7,7,1471.4186072609998,None,1471.4186072609998,None,1,2.623093630999847,1471.4186072609998,None,1474.0750713240002,None,1474.0750713240002,None,1476.5794868270002,None,1476.5794868270002,None,2.9042118560000745,1478.381549902,None,1478.381549902,None,6,0,0.7007591050000883,1481.2884108360001,None,1481.2884108360001,None,1481.2884108360001,None,1482.005658207,None,1,0.5013050549996478,1482.005658207,None,176,1482.5237091850001,None,127,B,1,2021_May_27_1800,GazeFlow,2020.1.2,59.89826782355895,
13,Block808.xls,B,,,,,,,,,,,,,,,,,,0,12,12,12,,,,,,,,,,,,,,,,,,,,,,,,,,,,,,,,,,,,,,,,,,,,127,B,1,2021_May_27_1800,GazeFlow,2020.1.2,59.89826782355895,
14,Block815.xls,B,15,1,65,65,None,congruent,Left,Left,Right,69,76,7,yellow,2,6,/home/docky/apps/exp/images/69Yi.jpeg,/home/docky/apps/exp/images/76Y.jpeg,0,13,13,13,0,0,0,0,1503.700149053,None,1503.700149053,None,1,3.8132866169999033,1503.700149053,None,1507.53961894,None,1507.53961894,None,1510.061402401,None,1510.061402401,None,1.0833968239999194,1511.8634087070002,None,1511.8634087070002,None,6,1,0.7508743800003685,1512.933184751,None,1512.933184751,None,1512.933184751,None,1513.7005416169998,None,1,0.5017630659999668,1513.7005416169998,None,178,1514.218822427,None,127,B,1,2021_May_27_1800,GazeFlow,2020.1.2,59.89826782355895,
14,Block815.xls,B,15,2,102,6,None,incongruent,Right,Left,Right,80,83,3,blue,2,6,/home/docky/apps/exp/images/80B.jpeg,/home/docky/apps/exp/images/83Bi.jpeg,0,13,13,13,0,1,1,1,1515.2200490070002,None,1515.2200490070002,None,1,2.5391521740002645,1515.2200490070002,None,1517.7910282280002,None,1517.7910282280002,None,1520.2961029370001,None,1520.2961029370001,None,1.3178073179997227,1522.0945477090002,None,1522.0945477090002,None,6,1,1.0687326769998435,1523.403404033,None,1523.403404033,None,1523.403404033,None,1524.488683796,None,1,0.5178356570004325,1524.488683796,None,180,1525.022542728,None,127,B,1,2021_May_27_1800,GazeFlow,2020.1.2,59.89826782355895,
14,Block815.xls,B,15,3,33,33,None,congruent,Right,Right,Left,66,65,1,blue,2,5,/home/docky/apps/exp/images/66Bi.jpeg,/home/docky/apps/exp/images/35Y.jpeg,0,13,13,13,0,2,2,2,1526.0244180430002,None,1526.0244180430002,None,1,2.3553768370002217,1526.0244180430002,None,1528.4122785920001,None,1528.4122785920001,None,1530.9167301179998,None,1530.9167301179998,None,1.3011006810002073,1532.7195160140002,None,1532.7195160140002,None,5,1,0.7509134500000982,1534.007381054,None,1534.007381054,None,1534.007381054,None,1534.77496756,None,1,0.5176746090000961,1534.77496756,None,182,1535.3088922559998,None,127,B,1,2021_May_27_1800,GazeFlow,2020.1.2,59.89826782355895,
14,Block815.xls,B,15,4,72,72,None,congruent,Left,Left,Right,79,82,3,yellow,2,6,/home/docky/apps/exp/images/79Yi.jpeg,/home/docky/apps/exp/images/80Y.jpeg,0,13,13,13,0,3,3,3,1536.3112769269999,None,1536.3112769269999,None,1,2.9068839179999486,1536.3112769269999,None,1539.251299076,None,1539.251299076,None,1541.7544427149999,None,1541.7544427149999,None,1.701637982000193,1543.5595945900002,None,1543.5595945900002,None,6,1,0.8017478540000411,1545.2458886410002,None,1545.2458886410002,None,1545.2458886410002,None,1546.063726396,None,1,0.8015647419997549,1546.063726396,None,184,1546.881632799,None,127,B,1,2021_May_27_1800,GazeFlow,2020.1.2,59.89826782355895,
14,Block815.xls,B,15,5,100,4,None,incongruent,Right,Left,Right,73,76,3,blue,2,6,/home/docky/apps/exp/images/73B.jpeg,/home/docky/apps/exp/images/76Bi.jpeg,0,13,13,13,0,4,4,4,1547.883737213,None,1547.883737213,None,1,3.374463990000095,1547.883737213,None,1551.291508997,None,1551.291508997,None,1553.7937904950002,None,1553.7937904950002,None,1.3507247480001752,1555.597164783,None,1555.597164783,None,6,1,0.8512308909998865,1556.935093034,None,1556.935093034,None,1556.935093034,None,1557.8029739810002,None,1,0.5350381299999754,1557.8029739810002,None,186,1558.3545661639998,None,127,B,1,2021_May_27_1800,GazeFlow,2020.1.2,59.89826782355895,
14,Block815.xls,B,15,6,45,45,None,congruent,Right,Right,Left,39,38,1,blue,2,5,/home/docky/apps/exp/images/39B.jpeg,/home/docky/apps/exp/images/38Bi.jpeg,0,13,13,13,0,5,5,5,1559.3563426540002,None,1559.3563426540002,None,1,3.791171066000061,1559.3563426540002,None,1563.18113101,None,1563.18113101,None,1565.6844555710002,None,1565.6844555710002,None,1.3843411929997274,1567.4892345750002,None,1567.4892345750002,None,5,1,0.5005861760000698,1568.858370009,None,1568.858370009,None,1568.858370009,None,1569.375476772,None,1,0.18368298900031732,1569.375476772,None,188,1569.575863249,None,127,B,1,2021_May_27_1800,GazeFlow,2020.1.2,59.89826782355895,
14,Block815.xls,B,15,7,98,2,None,incongruent,Right,Left,Right,35,38,3,blue,2,6,/home/docky/apps/exp/images/35Bi.jpeg,/home/docky/apps/exp/images/38B.jpeg,0,13,13,13,0,6,6,6,1570.5777997970001,None,1570.5777997970001,None,1,3.0900290260001384,1570.5777997970001,None,1573.7016833199998,None,1573.7016833199998,None,1576.2047558319998,None,1576.2047558319998,None,1.4843309689999842,1578.0084376399998,None,1578.0084376399998,None,5,0,0.7678265669997018,1579.479007219,None,1579.479007219,None,1579.479007219,None,1580.263289115,None,1,0.5684623540000757,1580.263289115,None,186,1580.8481981319999,None,127,B,1,2021_May_27_1800,GazeFlow,2020.1.2,59.89826782355895,
14,Block815.xls,B,15,8,59,59,None,congruent,Left,Left,Right,38,39,1,yellow,2,6,/home/docky/apps/exp/images/38Yi.jpeg,/home/docky/apps/exp/images/39Y.jpeg,0,13,13,13,0,7,7,7,1581.849732035,None,1581.849732035,None,1,3.5746727760001704,1581.849732035,None,1585.4574078459998,None,1585.4574078459998,None,1587.9609714770002,None,1587.9609714770002,None,2.3201195019996703,1589.7641471589998,None,1589.7641471589998,None,6,1,0.6838113630001317,1592.070426,None,1592.070426,None,1592.070426,None,1592.7708840490002,None,1,0.4176814600000398,1592.7708840490002,None,188,1593.2048375420002,None,127,B,1,2021_May_27_1800,GazeFlow,2020.1.2,59.89826782355895,
14,Block815.xls,B,,,,,,,,,,,,,,,,,,0,13,13,13,,,,,,,,,,,,,,,,,,,,,,,,,,,,,,,,,,,,,,,,,,,,127,B,1,2021_May_27_1800,GazeFlow,2020.1.2,59.89826782355895,
15,Block807.xls,B,7,1,71,71,None,congruent,Left,Left,Right,79,82,3,yellow,2,6,/home/docky/apps/exp/images/79Y.jpeg,/home/docky/apps/exp/images/80Yi.jpeg,0,14,14,14,0,0,0,0,1613.964642911,None,1613.964642911,None,1,3.030700207999871,1613.964642911,None,1617.021111232,None,1617.021111232,None,1619.541006908,None,1619.541006908,None,0.9993383460000587,1621.344432225,None,1621.344432225,None,6,1,0.7845283569999992,1622.328717516,None,1622.328717516,None,1622.328717516,None,1623.12991764,None,1,0.5009518310002932,1623.12991764,None,190,1623.647362073,None,127,B,1,2021_May_27_1800,GazeFlow,2020.1.2,59.89826782355895,
15,Block807.xls,B,7,2,44,44,None,congruent,Right,Right,Left,83,80,3,blue,2,5,/home/docky/apps/exp/images/83Bi.jpeg,/home/docky/apps/exp/images/80B.jpeg,0,14,14,14,0,1,1,1,1624.6494239330002,None,1624.6494239330002,None,1,2.672800931000438,1624.6494239330002,None,1627.3558126179998,None,1627.3558126179998,None,1629.859355322,None,1629.859355322,None,1.1003119179999885,1631.662625791,None,1631.662625791,None,5,1,0.8509810810001,1632.7493167760001,None,1632.7493167760001,None,1632.7493167760001,None,1633.61661906,None,1,0.6182328370000505,1633.61661906,None,192,1634.2514003600002,None,127,B,1,2021_May_27_1800,GazeFlow,2020.1.2,59.89826782355895,
15,Block807.xls,B,7,3,48,48,None,congruent,Right,Right,Left,39,38,1,blue,2,5,/home/docky/apps/exp/images/39Bi.jpeg,/home/docky/apps/exp/images/38B.jpeg,0,14,14,14,0,2,2,2,1635.253398815,None,1635.253398815,None,1,2.6557634390001112,1635.253398815,None,1637.9414314399999,None,1637.9414314399999,None,1640.4457730289998,None,1640.4457730289998,None,1.0502972310000587,1642.2472756159998,None,1642.2472756159998,None,5,1,0.7678781619997608,1643.2864076980002,None,1643.2864076980002,None,1643.2864076980002,None,1644.0705089619998,None,1,0.6024613399999907,1644.0705089619998,None,194,1644.688963969,None,127,B,1,2021_May_27_1800,GazeFlow,2020.1.2,59.89826782355895,
15,Block807.xls,B,7,4,113,17,None,incongruent,Right,Left,Right,72,77,5,yellow,2,6,/home/docky/apps/exp/images/72Yi.jpeg,/home/docky/apps/exp/images/77Y.jpeg,0,14,14,14,0,3,3,3,1645.690353655,None,1645.690353655,None,1,2.822933151000143,1645.690353655,None,1648.5469467300002,None,1648.5469467300002,None,1651.0501905110002,None,1651.0501905110002,None,1.5678308719998313,1652.853668245,None,1652.853668245,None,6,1,0.8682274299999335,1654.407949193,None,1654.407949193,None,1654.407949193,None,1655.2926383790002,None,1,0.43505319799987774,1655.2926383790002,None,196,1655.743701773,None,127,B,1,2021_May_27_1800,GazeFlow,2020.1.2,59.89826782355895,
15,Block807.xls,B,7,5,69,69,None,congruent,Left,Left,Right,72,77,5,yellow,2,6,/home/docky/apps/exp/images/72Y.jpeg,/home/docky/apps/exp/images/77Yi.jpeg,0,14,14,14,0,4,4,4,1656.7451696679998,None,1656.7451696679998,None,1,2.539473596999869,1656.7451696679998,None,1659.3175238229999,None,1659.3175238229999,None,1661.821097717,None,1661.821097717,None,1.167058895000082,1663.6244253399998,None,1663.6244253399998,None,6,1,0.8509715929999402,1664.77811568,None,1664.77811568,None,1664.77811568,None,1665.645859209,None,1,0.334695150999778,1665.645859209,None,198,1665.9968022609999,None,127,B,1,2021_May_27_1800,GazeFlow,2020.1.2,59.89826782355895,
15,Block807.xls,B,7,6,39,39,None,congruent,Right,Right,Left,79,76,3,blue,2,5,/home/docky/apps/exp/images/79B.jpeg,/home/docky/apps/exp/images/76Bi.jpeg,0,14,14,14,0,5,5,5,1666.9984898629998,None,1666.9984898629998,None,1,3.140609632000178,1666.9984898629998,None,1670.1707955509999,None,1670.1707955509999,None,1672.675676699,None,1672.675676699,None,1.1840024049997737,1674.47865996,None,1674.47865996,None,5,1,0.6005469229999107,1675.6492232849998,None,1675.6492232849998,None,1675.6492232849998,None,1676.26667712,None,1,0.2003131520000352,1676.26667712,None,200,1676.4834279999998,None,127,B,1,2021_May_27_1800,GazeFlow,2020.1.2,59.89826782355895,
15,Block807.xls,B,7,7,50,50,None,congruent,Left,Left,Right,33,35,2,yellow,2,6,/home/docky/apps/exp/images/33Y.jpeg,/home/docky/apps/exp/images/35Yi.jpeg,0,14,14,14,0,6,6,6,1677.485609044,None,1677.485609044,None,1,2.6727974420000464,1677.485609044,None,1680.1913875920002,None,1680.1913875920002,None,1682.696564916,None,1682.696564916,None,1.0170767970002998,1684.497416777,None,1684.497416777,None,6,1,0.817724243000157,1685.501649357,None,1685.501649357,None,1685.501649357,None,1686.3361906869998,None,1,0.2671594870002991,1686.3361906869998,None,202,1686.6199519680001,None,127,B,1,2021_May_27_1800,GazeFlow,2020.1.2,59.89826782355895,
15,Block807.xls,B,7,8,19,19,None,congruent,Left,Left,Right,76,79,3,blue,2,6,/home/docky/apps/exp/images/76B.jpeg,/home/docky/apps/exp/images/79Bi.jpeg,0,14,14,14,0,7,7,7,1687.621848078,None,1687.621848078,None,1,2.90637137900012,1687.621848078,None,1690.5621690649998,None,1690.5621690649998,None,1693.0653585030002,None,1693.0653585030002,None,0.8664549989998704,1694.8726179910002,None,1694.8726179910002,None,6,1,0.8510267019996718,1695.721637041,None,1695.721637041,None,1695.721637041,None,1696.5894672749998,None,1,0.5344417570004225,1696.5894672749998,None,204,1697.14039866,None,127,B,1,2021_May_27_1800,GazeFlow,2020.1.2,59.89826782355895,
15,Block807.xls,B,,,,,,,,,,,,,,,,,,0,14,14,14,,,,,,,,,,,,,,,,,,,,,,,,,,,,,,,,,,,,,,,,,,,,127,B,1,2021_May_27_1800,GazeFlow,2020.1.2,59.89826782355895,
