Nblock,condsFile,grouping,Block,TrialBlock,N,trialN,trialCond,gazeCon,gazedirR,corrBinR,corrBinP,valLBY,valRBY,diff,colorCube,feedbacktext,corrAns,imageL,imageR,SelBlocks.thisRepN,SelBlocks.thisTrialN,SelBlocks.thisN,SelBlocks.thisIndex,Trials.thisRepN,Trials.thisTrialN,Trials.thisN,Trials.thisIndex,waitCube.started,waitCube.stopped,text_3.started,text_3.stopped,StartKeyPress.keys,StartKeyPress.rt,StartKeyPress.started,StartKeyPress.stopped,StimL.started,StimL.stopped,StimR.started,StimR.stopped,imageStim2L.started,imageStim2L.stopped,imageStim2R.started,imageStim2R.stopped,RTkeyRelease,imageStim3L.started,imageStim3L.stopped,imageStim3R.started,imageStim3R.stopped,dropResp.keys,dropResp.corr,dropResp.rt,dropResp.started,dropResp.stopped,imageStim5L.started,imageStim5L.stopped,imageStim5R.started,imageStim5R.stopped,text_2.started,text_2.stopped,ReturnSpace.keys,ReturnSpace.rt,ReturnSpace.started,ReturnSpace.stopped,totalpoints,textFeedback.started,textFeedback.stopped,participant,group,session,date,expName,psychopyVersion,frameRate,
9,Block507.xls,A,7,1,110,50,22,incongruent,Left,Right,Left,66,65,1,yellow,2,5,/home/docky/apps/exp/images/66Y.jpeg,/home/docky/apps/exp/images/35Bi.jpeg,0,0,0,0,0,0,0,0,95.94573228299942,None,95.94573228299942,None,1,4.075351724000029,95.94573228299942,None,100.06320522799979,None,100.06320522799979,None,102.57526234299985,None,102.57526234299985,None,1.4503815209991444,104.37736193699948,None,104.37736193699948,None,5,1,1.2864012250001906,105.81048328799989,None,105.81048328799989,None,105.81048328799989,None,107.11285741399934,None,1,0.500528913999915,107.11285741399934,None,78,107.63010081099947,None,1282,A,1,2021_May_28_0949,GazeFlow,2020.1.2,59.89281019711927,
9,Block507.xls,A,7,2,90,30,22,incongruent,Right,Left,Right,16,19,3,blue,2,6,/home/docky/apps/exp/images/16Bi.jpeg,/home/docky/apps/exp/images/19B.jpeg,0,0,0,0,0,1,1,1,108.63230994399964,None,108.63230994399964,None,1,3.406980085000214,108.63230994399964,None,112.07290144299986,None,112.07290144299986,None,114.57799750100003,None,114.57799750100003,None,1.8683531449996735,116.37433593099922,None,116.37433593099922,None,6,1,0.8523542819993963,118.23416893299964,None,118.23416893299964,None,118.23416893299964,None,119.10255678799967,None,1,0.36683518799964077,119.10255678799967,None,80,119.48600005999924,None,1282,A,1,2021_May_28_0949,GazeFlow,2020.1.2,59.89281019711927,
9,Block507.xls,A,7,3,16,16,11,congruent,Left,Left,Right,33,35,2,yellow,2,6,/home/docky/apps/exp/images/33Yi.jpeg,/home/docky/apps/exp/images/35Y.jpeg,0,0,0,0,0,2,2,2,120.48848301699945,None,120.48848301699945,None,1,2.321948281999539,120.48848301699945,None,122.84362345099998,None,122.84362345099998,None,125.34848489999968,None,125.34848489999968,None,1.4342212740002651,127.15054996899926,None,127.15054996899926,None,5,0,0.8176237010002296,128.5710986139993,None,128.5710986139993,None,128.5710986139993,None,129.40562679999948,None,1,0.33448614700046164,129.40562679999948,None,78,129.75660201799928,None,1282,A,1,2021_May_28_0949,GazeFlow,2020.1.2,59.89281019711927,
9,Block507.xls,A,7,4,117,57,22,incongruent,Left,Right,Left,77,72,5,yellow,2,5,/home/docky/apps/exp/images/77Y.jpeg,/home/docky/apps/exp/images/72Yi.jpeg,0,0,0,0,0,3,3,3,130.75773559299978,None,130.75773559299978,None,1,3.2905967960005,130.75773559299978,None,134.08203104899985,None,134.08203104899985,None,136.58558754299975,None,136.58558754299975,None,0.8163961000000199,138.3834374299995,None,138.3834374299995,None,5,1,0.9847335389995351,139.1913184469995,None,139.1913184469995,None,139.1913184469995,None,140.1927634879994,None,1,0.2842200920003961,140.1927634879994,None,80,140.49339854899972,None,1282,A,1,2021_May_28_0949,GazeFlow,2020.1.2,59.89281019711927,
9,Block507.xls,A,7,5,53,53,12,congruent,Right,Right,Left,75,69,6,yellow,2,5,/home/docky/apps/exp/images/76Yi.jpeg,/home/docky/apps/exp/images/69Y.jpeg,0,0,0,0,0,4,4,4,141.49526920299922,None,141.49526920299922,None,1,3.540898393000134,141.49526920299922,None,145.06964997899922,None,145.06964997899922,None,147.5734587049992,None,147.5734587049992,None,1.417496358999415,149.37621363699964,None,149.37621363699964,None,5,1,0.9355901930002801,150.78061378499933,None,150.78061378499933,None,150.78061378499933,None,151.7321636759998,None,1,0.3506821259998105,151.7321636759998,None,82,152.09947787199962,None,1282,A,1,2021_May_28_0949,GazeFlow,2020.1.2,59.89281019711927,
9,Block507.xls,A,7,6,96,36,22,incongruent,Left,Right,Left,66,65,1,blue,2,5,/home/docky/apps/exp/images/66Bi.jpeg,/home/docky/apps/exp/images/35Y.jpeg,0,0,0,0,0,5,5,5,153.10106395099956,None,153.10106395099956,None,1,3.2068965970001955,153.10106395099956,None,156.341696384,None,156.341696384,None,158.84663749299943,None,158.84663749299943,None,1.3174180099995283,160.65017304199955,None,160.65017304199955,None,6,0,0.8678811339996173,161.95209565699952,None,161.95209565699952,None,161.95209565699952,None,162.83671027299988,None,1,1.218811566000113,162.83671027299988,None,80,164.0722226859998,None,1282,A,1,2021_May_28_0949,GazeFlow,2020.1.2,59.89281019711927,
9,Block507.xls,A,7,7,58,58,12,congruent,Right,Right,Left,77,72,5,yellow,2,5,/home/docky/apps/exp/images/77Yi.jpeg,/home/docky/apps/exp/images/72Y.jpeg,0,0,0,0,0,6,6,6,165.07400192499972,None,165.07400192499972,None,1,1.8714429989995551,165.07400192499972,None,166.9791607319994,None,166.9791607319994,None,169.4822774109998,None,169.4822774109998,None,1.3505551010002819,171.28540252099992,None,171.28540252099992,None,5,1,0.83431564699913,172.62268090699945,None,172.62268090699945,None,172.62268090699945,None,173.47344548399997,None,1,1.2860549150000224,173.47344548399997,None,82,174.77621307199934,None,1282,A,1,2021_May_28_0949,GazeFlow,2020.1.2,59.89281019711927,
9,Block507.xls,A,7,8,41,41,12,congruent,Right,Right,Left,79,76,3,blue,2,5,/home/docky/apps/exp/images/79Bi.jpeg,/home/docky/apps/exp/images/76B.jpeg,0,0,0,0,0,7,7,7,175.77868207399933,None,175.77868207399933,None,1,1.7034308319998672,175.77868207399933,None,177.5157095179993,None,177.5157095179993,None,180.02046674299982,None,180.02046674299982,None,1.0333651609998924,181.82298676999926,None,181.82298676999926,None,5,1,0.8348219939998671,182.84204833799959,None,182.84204833799959,None,182.84204833799959,None,183.69329579199984,None,1,1.2359631170002103,183.69329579199984,None,84,184.94549616299992,None,1282,A,1,2021_May_28_0949,GazeFlow,2020.1.2,59.89281019711927,
9,Block507.xls,A,,,,,,,,,,,,,,,,,,0,0,0,0,,,,,,,,,,,,,,,,,,,,,,,,,,,,,,,,,,,,,,,,,,,,1282,A,1,2021_May_28_0949,GazeFlow,2020.1.2,59.89281019711927,
10,Block515.xls,A,15,1,107,47,22,incongruent,Left,Right,Left,35,33,2,yellow,2,5,/home/docky/apps/exp/images/35Yi.jpeg,/home/docky/apps/exp/images/33Y.jpeg,0,1,1,1,0,0,0,0,212.4677846299992,None,212.4677846299992,None,1,8.086731815000348,212.4677846299992,None,220.5861355219995,None,220.5861355219995,None,223.10752601900003,None,223.10752601900003,None,0.782348028999877,224.90746174499964,None,224.90746174499964,None,5,1,1.903556688000208,225.67510702299933,None,225.67510702299933,None,225.67510702299933,None,227.5951400619997,None,1,0.5506928670001798,227.5951400619997,None,86,228.1624371729995,None,1282,A,1,2021_May_28_0949,GazeFlow,2020.1.2,59.89281019711927,
10,Block515.xls,A,15,2,55,55,12,congruent,Right,Right,Left,76,69,7,yellow,2,5,/home/docky/apps/exp/images/76Yi.jpeg,/home/docky/apps/exp/images/69Y.jpeg,0,1,1,1,0,1,1,1,229.16466228799982,None,229.16466228799982,None,1,2.338744389000567,229.16466228799982,None,231.5386568389995,None,231.5386568389995,None,234.040225103,None,234.040225103,None,2.2360474670003896,235.84270575799928,None,235.84270575799928,None,5,1,1.3191322739994575,238.06556517399986,None,238.06556517399986,None,238.06556517399986,None,239.40088028799983,None,1,0.38400388799982466,239.40088028799983,None,88,239.80170772399924,None,1282,A,1,2021_May_28_0949,GazeFlow,2020.1.2,59.89281019711927,
10,Block515.xls,A,15,3,75,15,21,incongruent,Right,Left,Right,33,35,2,yellow,2,6,/home/docky/apps/exp/images/33Yi.jpeg,/home/docky/apps/exp/images/35Y.jpeg,0,1,1,1,0,2,2,2,240.80399386099998,None,240.80399386099998,None,1,3.6916791079993345,240.80399386099998,None,244.52927047100002,None,244.52927047100002,None,247.03329758099972,None,247.03329758099972,None,1.100307456000337,248.83549312499963,None,248.83549312499963,None,5,0,1.719731753000815,249.92187943599947,None,249.92187943599947,None,249.92187943599947,None,251.65778453799976,None,1,0.38433329799954663,251.65778453799976,None,86,252.0587357689992,None,1282,A,1,2021_May_28_0949,GazeFlow,2020.1.2,59.89281019711927,
10,Block515.xls,A,15,4,62,2,21,incongruent,Right,Left,Right,35,38,3,blue,2,6,/home/docky/apps/exp/images/35Bi.jpeg,/home/docky/apps/exp/images/38B.jpeg,0,1,1,1,0,3,3,3,253.06086096299987,None,253.06086096299987,None,1,3.340273668000009,253.06086096299987,None,256.43497814999955,None,256.43497814999955,None,258.93807877699965,None,258.93807877699965,None,2.620465673000581,260.7411682389993,None,260.7411682389993,None,5,0,0.9340323839996927,263.36491047099935,None,263.36491047099935,None,263.36491047099935,None,264.3155898979994,None,1,0.3843561799994859,264.3155898979994,None,84,264.7163436839992,None,1282,A,1,2021_May_28_0949,GazeFlow,2020.1.2,59.89281019711927,
10,Block515.xls,A,15,5,100,40,22,incongruent,Left,Right,Left,79,76,3,blue,2,5,/home/docky/apps/exp/images/79Bi.jpeg,/home/docky/apps/exp/images/76B.jpeg,0,1,1,1,0,4,4,4,265.7188111259993,None,265.7188111259993,None,1,3.0895445830001336,265.7188111259993,None,268.84262767899963,None,268.84262767899963,None,271.34685613700003,None,271.34685613700003,None,0.8163286010003503,273.1486530789998,None,273.1486530789998,None,5,1,0.9008030320001126,273.9518410949995,None,273.9518410949995,None,273.9518410949995,None,274.86919670799944,None,1,1.4197061320001012,274.86919670799944,None,86,276.3053240649997,None,1282,A,1,2021_May_28_0949,GazeFlow,2020.1.2,59.89281019711927,
10,Block515.xls,A,15,6,108,48,22,incongruent,Left,Right,Left,39,38,1,yellow,2,5,/home/docky/apps/exp/images/39Y.jpeg,/home/docky/apps/exp/images/38Yi.jpeg,0,1,1,1,0,5,5,5,277.30753743699916,None,277.30753743699916,None,1,2.3382634879999387,277.30753743699916,None,279.67982191099964,None,279.67982191099964,None,282.18305351399977,None,282.18305351399977,None,0.6662229650000882,283.9853929619994,None,283.9853929619994,None,6,0,0.8008108890007861,284.6389538129997,None,284.6389538129997,None,284.6389538129997,None,285.45639194399973,None,1,0.5680582129998584,285.45639194399973,None,84,286.04075538300003,None,1282,A,1,2021_May_28_0949,GazeFlow,2020.1.2,59.89281019711927,
10,Block515.xls,A,15,7,59,59,12,congruent,Right,Right,Left,80,79,1,yellow,2,5,/home/docky/apps/exp/images/80Y.jpeg,/home/docky/apps/exp/images/79Yi.jpeg,0,1,1,1,0,6,6,6,287.0428679529996,None,287.0428679529996,None,1,2.8061197959996207,287.0428679529996,None,289.8827263409994,None,289.8827263409994,None,292.3929031429998,None,292.3929031429998,None,0.7996799290003764,294.1908189079995,None,294.1908189079995,None,5,1,0.8508826260003843,294.97548423199987,None,294.97548423199987,None,294.97548423199987,None,295.843217566,None,1,0.5513108789991747,295.843217566,None,86,296.4110637269996,None,1282,A,1,2021_May_28_0949,GazeFlow,2020.1.2,59.89281019711927,
10,Block515.xls,A,15,8,8,8,11,congruent,Left,Left,Right,38,39,1,blue,2,6,/home/docky/apps/exp/images/38B.jpeg,/home/docky/apps/exp/images/39Bi.jpeg,0,1,1,1,0,7,7,7,297.4127655529992,None,297.4127655529992,None,1,2.8898528119998446,297.4127655529992,None,300.33422597199933,None,300.33422597199933,None,302.8411619689996,None,302.8411619689996,None,0.7328335810007047,304.64304333699965,None,304.64304333699965,None,6,1,0.7509130650005318,305.36222655799975,None,305.36222655799975,None,305.36222655799975,None,306.12946578799983,None,1,0.3841925959995933,306.12946578799983,None,88,306.530409985,None,1282,A,1,2021_May_28_0949,GazeFlow,2020.1.2,59.89281019711927,
10,Block515.xls,A,,,,,,,,,,,,,,,,,,0,1,1,1,,,,,,,,,,,,,,,,,,,,,,,,,,,,,,,,,,,,,,,,,,,,1282,A,1,2021_May_28_0949,GazeFlow,2020.1.2,59.89281019711927,
11,Block512.xls,A,12,1,30,30,11,congruent,Left,Left,Right,79,82,3,yellow,2,6,/home/docky/apps/exp/images/79Yi.jpeg,/home/docky/apps/exp/images/80Y.jpeg,0,2,2,2,0,0,0,0,328.59175073499955,None,328.59175073499955,None,1,8.573500802000126,328.59175073499955,None,337.1922037129998,None,337.1922037129998,None,339.7125433709998,None,339.7125433709998,None,10.569000039999992,341.51017000199954,None,341.51017000199954,None,6,1,1.4339594690000013,352.0875320339992,None,352.0875320339992,None,352.0875320339992,None,353.5381879249999,None,1,0.4340232959993955,353.5381879249999,None,90,353.98885543899996,None,1282,A,1,2021_May_28_0949,GazeFlow,2020.1.2,59.89281019711927,
11,Block512.xls,A,12,2,115,55,22,incongruent,Left,Right,Left,76,69,7,yellow,2,5,/home/docky/apps/exp/images/76Yi.jpeg,/home/docky/apps/exp/images/69Y.jpeg,0,2,2,2,0,1,1,1,354.9912668749994,None,354.9912668749994,None,1,2.10411703400041,354.9912668749994,None,357.12951267599965,None,357.12951267599965,None,359.6320311549998,None,359.6320311549998,None,0.966944243999933,361.4298869479999,None,361.4298869479999,None,5,1,0.8180754519999027,362.38918354,None,362.38918354,None,362.38918354,None,363.2234383669993,None,1,0.3174633560001894,363.2234383669993,None,92,363.55743648599946,None,1282,A,1,2021_May_28_0949,GazeFlow,2020.1.2,59.89281019711927,
11,Block512.xls,A,12,3,66,6,21,incongruent,Right,Left,Right,38,39,1,blue,2,6,/home/docky/apps/exp/images/38B.jpeg,/home/docky/apps/exp/images/39Bi.jpeg,0,2,2,2,0,2,2,2,364.55952158499986,None,364.55952158499986,None,1,5.411077836000004,364.55952158499986,None,370.0043989859996,None,370.0043989859996,None,372.5077077529995,None,372.5077077529995,None,0.8831428419998701,374.3127665289994,None,374.3127665289994,None,6,1,0.9177807339992796,375.18055824899966,None,375.18055824899966,None,375.18055824899966,None,376.1149950679992,None,1,0.3843567570002051,376.1149950679992,None,94,376.5157333299994,None,1282,A,1,2021_May_28_0949,GazeFlow,2020.1.2,59.89281019711927,
11,Block512.xls,A,12,4,35,35,12,congruent,Right,Right,Left,66,65,1,blue,2,5,/home/docky/apps/exp/images/66B.jpeg,/home/docky/apps/exp/images/35Yi.jpeg,0,2,2,2,0,3,3,3,377.5176660399993,None,377.5176660399993,None,1,2.823251548999906,377.5176660399993,None,380.3741936489996,None,380.3741936489996,None,382.87763524899947,None,382.87763524899947,None,1.3007656210002096,384.6812376979997,None,384.6812376979997,None,5,1,0.8847478890002094,385.9680073869995,None,385.9680073869995,None,385.9680073869995,None,386.86918505999984,None,1,0.5692718130003414,386.86918505999984,None,96,387.4541271829994,None,1282,A,1,2021_May_28_0949,GazeFlow,2020.1.2,59.89281019711927,
11,Block512.xls,A,12,5,40,40,12,congruent,Right,Right,Left,79,76,3,blue,2,5,/home/docky/apps/exp/images/79Bi.jpeg,/home/docky/apps/exp/images/76B.jpeg,0,2,2,2,0,4,4,4,388.45547956299924,None,388.45547956299924,None,1,2.939800651999576,388.45547956299924,None,391.43012243999965,None,391.43012243999965,None,393.93220520499926,None,393.93220520499926,None,1.3676309009997567,395.7373729819992,None,395.7373729819992,None,5,1,1.403239064000445,397.08951447099935,None,397.08951447099935,None,397.08951447099935,None,398.5087748719998,None,1,0.9684805970000525,398.5087748719998,None,98,399.4934110989998,None,1282,A,1,2021_May_28_0949,GazeFlow,2020.1.2,59.89281019711927,
11,Block512.xls,A,12,6,64,4,21,incongruent,Right,Left,Right,65,66,1,blue,2,6,/home/docky/apps/exp/images/35Yi.jpeg,/home/docky/apps/exp/images/66B.jpeg,0,2,2,2,0,5,5,5,400.4959646499992,None,400.4959646499992,None,1,2.488358908999544,400.4959646499992,None,403.0181753299994,None,403.0181753299994,None,405.5280960479995,None,405.5280960479995,None,0.9668802389996927,407.3243427109992,None,407.3243427109992,None,6,1,0.9680911379991812,408.27760593899984,None,408.27760593899984,None,408.27760593899984,None,409.2621879439994,None,1,0.3519215129999793,409.2621879439994,None,100,409.63039072099946,None,1282,A,1,2021_May_28_0949,GazeFlow,2020.1.2,59.89281019711927,
11,Block512.xls,A,12,7,12,12,11,congruent,Left,Left,Right,76,79,3,blue,2,6,/home/docky/apps/exp/images/76B.jpeg,/home/docky/apps/exp/images/79Bi.jpeg,0,2,2,2,0,6,6,6,410.6318267589995,None,410.6318267589995,None,1,3.9751246440000614,410.6318267589995,None,414.6408615669998,None,414.6408615669998,None,417.14561613299975,None,417.14561613299975,None,1.534677345000091,418.948891905,None,418.948891905,None,6,1,2.0534543720004876,420.4680245519994,None,420.4680245519994,None,420.4680245519994,None,422.53815158,None,1,0.350847815000634,422.53815158,None,102,422.90594361499916,None,1282,A,1,2021_May_28_0949,GazeFlow,2020.1.2,59.89281019711927,
11,Block512.xls,A,12,8,49,49,12,congruent,Right,Right,Left,39,38,1,yellow,2,5,/home/docky/apps/exp/images/39Y.jpeg,/home/docky/apps/exp/images/38Yi.jpeg,0,2,2,2,0,7,7,7,423.90781057299955,None,423.90781057299955,None,1,2.555778162999559,423.90781057299955,None,426.49692573099946,None,426.49692573099946,None,429.00148326,None,429.00148326,None,1.0002144419995602,430.8025123079997,None,430.8025123079997,None,6,0,0.9678374140003143,431.7901305209998,None,431.7901305209998,None,431.7901305209998,None,432.7748943659999,None,1,0.4677944969998862,432.7748943659999,None,100,433.25934762699944,None,1282,A,1,2021_May_28_0949,GazeFlow,2020.1.2,59.89281019711927,
11,Block512.xls,A,,,,,,,,,,,,,,,,,,0,2,2,2,,,,,,,,,,,,,,,,,,,,,,,,,,,,,,,,,,,,,,,,,,,,1282,A,1,2021_May_28_0949,GazeFlow,2020.1.2,59.89281019711927,
12,Block503.xls,A,3,1,22,22,11,congruent,Left,Left,Right,62,65,3,yellow,2,6,/home/docky/apps/exp/images/38Bi.jpeg,/home/docky/apps/exp/images/35B.jpeg,0,3,3,3,0,0,0,0,465.6404237399993,None,465.6404237399993,None,1,3.581027533999986,465.6404237399993,None,469.25105005799924,None,469.25105005799924,None,471.76806530999966,None,471.76806530999966,None,0.8826254440000412,473.5653526449996,None,473.5653526449996,None,6,1,1.0017081189998862,474.43900316799954,None,474.43900316799954,None,474.43900316799954,None,475.4571117589994,None,1,0.46833561999937956,475.4571117589994,None,102,475.94164406099935,None,1282,A,1,2021_May_28_0949,GazeFlow,2020.1.2,59.89281019711927,
12,Block503.xls,A,3,2,65,5,21,incongruent,Right,Left,Right,65,66,1,blue,2,6,/home/docky/apps/exp/images/35Y.jpeg,/home/docky/apps/exp/images/66Bi.jpeg,0,3,3,3,0,1,1,1,476.94354797099913,None,476.94354797099913,None,1,3.2902316680001604,476.94354797099913,None,480.26753925399953,None,480.26753925399953,None,482.7724474209999,None,482.7724474209999,None,0.8330264229998647,484.57002131899935,None,484.57002131899935,None,5,0,0.9345861479996529,485.39371256899994,None,485.39371256899994,None,485.39371256899994,None,486.3451115359994,None,1,1.1855809950002367,486.3451115359994,None,100,487.54735882099976,None,1282,A,1,2021_May_28_0949,GazeFlow,2020.1.2,59.89281019711927,
12,Block503.xls,A,3,3,76,16,21,incongruent,Right,Left,Right,33,35,2,yellow,2,6,/home/docky/apps/exp/images/33Y.jpeg,/home/docky/apps/exp/images/35Yi.jpeg,0,3,3,3,0,2,2,2,488.54991327099924,None,488.54991327099924,None,1,2.188071962000322,488.54991327099924,None,490.7724222889992,None,490.7724222889992,None,493.27623394199964,None,493.27623394199964,None,0.8331787919996714,495.07824343799984,None,495.07824343799984,None,6,1,0.8346248329999071,495.89748972599955,None,495.89748972599955,None,495.89748972599955,None,496.7484631219995,None,1,0.5179600619994744,496.7484631219995,None,102,497.28284723199977,None,1282,A,1,2021_May_28_0949,GazeFlow,2020.1.2,59.89281019711927,
12,Block503.xls,A,3,4,29,29,11,congruent,Left,Left,Right,79,82,3,yellow,2,6,/home/docky/apps/exp/images/79Y.jpeg,/home/docky/apps/exp/images/80Yi.jpeg,0,3,3,3,0,3,3,3,498.2849722029996,None,498.2849722029996,None,1,2.5726416210000025,498.2849722029996,None,500.8908311089999,None,500.8908311089999,None,503.39591590099917,None,503.39591590099917,None,0.9836903449995589,505.19939604799947,None,505.19939604799947,None,6,1,0.8348052410001401,506.16723075999926,None,506.16723075999926,None,506.16723075999926,None,507.01846683299937,None,1,0.4345674229998622,507.01846683299937,None,104,507.46918865599946,None,1282,A,1,2021_May_28_0949,GazeFlow,2020.1.2,59.89281019711927,
12,Block503.xls,A,3,5,103,43,22,incongruent,Left,Right,Left,39,38,1,blue,2,5,/home/docky/apps/exp/images/39Bi.jpeg,/home/docky/apps/exp/images/38B.jpeg,0,3,3,3,0,4,4,4,508.4713081509999,None,508.4713081509999,None,1,2.4052066820004256,508.4713081509999,None,510.90867298299963,None,510.90867298299963,None,513.3980131059998,None,513.3980131059998,None,1.101649403999545,515.2017610639996,None,515.2017610639996,None,5,1,0.9177602600002501,516.3037560699995,None,516.3037560699995,None,516.3037560699995,None,517.2382885439993,None,1,0.40072329899976467,517.2382885439993,None,106,517.6555611839995,None,1282,A,1,2021_May_28_0949,GazeFlow,2020.1.2,59.89281019711927,
12,Block503.xls,A,3,6,47,47,12,congruent,Right,Right,Left,35,33,2,yellow,2,5,/home/docky/apps/exp/images/35Yi.jpeg,/home/docky/apps/exp/images/33Y.jpeg,0,3,3,3,0,5,5,5,518.6578386839992,None,518.6578386839992,None,1,4.24173660499946,518.6578386839992,None,522.9164954309999,None,522.9164954309999,None,525.421189011,None,525.421189011,None,0.8343570390006789,527.224927024,None,527.224927024,None,5,1,0.918074601000626,528.0599859309996,None,528.0599859309996,None,528.0599859309996,None,528.9948495419994,None,1,0.35057318800045323,528.9948495419994,None,108,529.3617633609992,None,1282,A,1,2021_May_28_0949,GazeFlow,2020.1.2,59.89281019711927,
12,Block503.xls,A,3,7,20,20,11,congruent,Left,Left,Right,65,66,1,yellow,2,6,/home/docky/apps/exp/images/35Bi.jpeg,/home/docky/apps/exp/images/66Y.jpeg,0,3,3,3,0,6,6,6,530.3639083819999,None,530.3639083819999,None,1,2.9221129150000706,530.3639083819999,None,533.3038020289996,None,533.3038020289996,None,535.8231951769994,None,535.8231951769994,None,0.7830858249999437,537.6266422089993,None,537.6266422089993,None,6,1,0.9008674220003741,538.3964119259999,None,538.3964119259999,None,538.3964119259999,None,539.3144075399996,None,1,0.4507313639996937,539.3144075399996,None,110,539.7815404929997,None,1282,A,1,2021_May_28_0949,GazeFlow,2020.1.2,59.89281019711927,
12,Block503.xls,A,3,8,27,27,11,congruent,Left,Left,Right,72,77,5,yellow,2,6,/home/docky/apps/exp/images/72Yi.jpeg,/home/docky/apps/exp/images/77Y.jpeg,0,3,3,3,0,7,7,7,540.7840512999992,None,540.7840512999992,None,1,2.338312046000283,540.7840512999992,None,543.1562784509997,None,543.1562784509997,None,545.6590119029997,None,545.6590119029997,None,0.065781851999418,547.4569304359993,None,547.4569304359993,None,6,1,2.275321100999463,547.5265619989996,None,547.5265619989996,None,547.5265619989996,None,549.8184257129997,None,1,0.6012654910000492,549.8184257129997,None,112,550.4360046449992,None,1282,A,1,2021_May_28_0949,GazeFlow,2020.1.2,59.89281019711927,
12,Block503.xls,A,,,,,,,,,,,,,,,,,,0,3,3,3,,,,,,,,,,,,,,,,,,,,,,,,,,,,,,,,,,,,,,,,,,,,1282,A,1,2021_May_28_0949,GazeFlow,2020.1.2,59.89281019711927,
13,Block501.xls,A,1,1,54,54,12,congruent,Right,Right,Left,75,69,6,yellow,2,5,/home/docky/apps/exp/images/76Y.jpeg,/home/docky/apps/exp/images/69Yi.jpeg,0,4,4,4,0,0,0,0,569.7084786349997,None,569.7084786349997,None,1,2.9959900700005164,569.7084786349997,None,572.7325530439994,None,572.7325530439994,None,575.2515523459997,None,575.2515523459997,None,1.233519446000173,577.0535748039993,None,577.0535748039993,None,5,1,0.9347077519996674,578.2737220189993,None,578.2737220189993,None,578.2737220189993,None,579.2251244129993,None,1,0.28692513100031647,579.2251244129993,None,114,579.5258066769993,None,1282,A,1,2021_May_28_0949,GazeFlow,2020.1.2,59.89281019711927,
13,Block501.xls,A,1,2,70,10,21,incongruent,Right,Left,Right,73,76,3,blue,2,6,/home/docky/apps/exp/images/73Bi.jpeg,/home/docky/apps/exp/images/76B.jpeg,0,4,4,4,0,1,1,1,580.5275638029998,None,580.5275638029998,None,1,3.4077255160000277,580.5275638029998,None,583.9684782999993,None,583.9684782999993,None,586.4717276919991,None,586.4717276919991,None,1.1505123389997607,588.2753289519997,None,588.2753289519997,None,6,1,0.9513645159995576,589.4118872279996,None,589.4118872279996,None,589.4118872279996,None,590.3800619249996,None,1,0.3850435980002658,590.3800619249996,None,116,590.781107367,None,1282,A,1,2021_May_28_0949,GazeFlow,2020.1.2,59.89281019711927,
13,Block501.xls,A,1,3,84,24,21,incongruent,Right,Left,Right,69,76,7,yellow,2,6,/home/docky/apps/exp/images/69Yi.jpeg,/home/docky/apps/exp/images/76Y.jpeg,0,4,4,4,0,2,2,2,591.7826025729992,None,591.7826025729992,None,1,1.9546545630000765,591.7826025729992,None,593.7692308849992,None,593.7692308849992,None,596.2735198119999,None,596.2735198119999,None,0.9834231360000558,598.0771045199999,None,598.0771045199999,None,6,1,0.7841751380001369,599.0473771849993,None,599.0473771849993,None,599.0473771849993,None,599.8481893619992,None,1,0.3841938879995723,599.8481893619992,None,118,600.2489010789996,None,1282,A,1,2021_May_28_0949,GazeFlow,2020.1.2,59.89281019711927,
13,Block501.xls,A,1,4,26,26,11,congruent,Left,Left,Right,69,75,6,yellow,2,6,/home/docky/apps/exp/images/69Y.jpeg,/home/docky/apps/exp/images/76Yi.jpeg,0,4,4,4,0,3,3,3,601.2510145059996,None,601.2510145059996,None,1,2.0215693069994813,601.2510145059996,None,603.3061018389999,None,603.3061018389999,None,605.8090518699992,None,605.8090518699992,None,0.9825791549992573,607.6125823589991,None,607.6125823589991,None,6,1,0.9012965150004675,608.5823361859993,None,608.5823361859993,None,608.5823361859993,None,609.5002111869999,None,1,0.43509620199984056,609.5002111869999,None,120,609.9513899679996,None,1282,A,1,2021_May_28_0949,GazeFlow,2020.1.2,59.89281019711927,
13,Block501.xls,A,1,5,97,37,22,incongruent,Left,Right,Left,79,73,6,blue,2,5,/home/docky/apps/exp/images/79B.jpeg,/home/docky/apps/exp/images/73Bi.jpeg,0,4,4,4,0,4,4,4,610.9531279739995,None,610.9531279739995,None,1,1.9048285500002748,610.9531279739995,None,612.891401547,None,612.891401547,None,615.3963634959991,None,615.3963634959991,None,0.9167194780002319,617.1975915979992,None,617.1975915979992,None,5,1,0.8344206500005384,618.1009383929995,None,618.1009383929995,None,618.1009383929995,None,618.9518375839998,None,1,0.4344011610000962,618.9518375839998,None,122,619.4028060239998,None,1282,A,1,2021_May_28_0949,GazeFlow,2020.1.2,59.89281019711927,
13,Block501.xls,A,1,6,98,38,22,incongruent,Left,Right,Left,79,73,6,blue,2,5,/home/docky/apps/exp/images/79B.jpeg,/home/docky/apps/exp/images/73Bi.jpeg,0,4,4,4,0,5,5,5,620.4048622839991,None,620.4048622839991,None,1,2.9061507619999247,620.4048622839991,None,623.3448304919993,None,623.3448304919993,None,625.8480922509998,None,625.8480922509998,None,1.0000387260006391,627.651743204,None,627.651743204,None,5,1,0.8511317279999275,628.6379177869994,None,628.6379177869994,None,628.6379177869994,None,629.5059952889997,None,1,0.3338824989996283,629.5059952889997,None,124,629.8563911429992,None,1282,A,1,2021_May_28_0949,GazeFlow,2020.1.2,59.89281019711927,
13,Block501.xls,A,1,7,77,17,21,incongruent,Right,Left,Right,65,66,1,yellow,2,6,/home/docky/apps/exp/images/35B.jpeg,/home/docky/apps/exp/images/66Yi.jpeg,0,4,4,4,0,6,6,6,630.8582967869997,None,630.8582967869997,None,1,3.407737408000685,630.8582967869997,None,634.2992602679997,None,634.2992602679997,None,636.8029115689997,None,636.8029115689997,None,2.0687515219997294,638.6046775859995,None,638.6046775859995,None,5,0,0.9180065559994546,640.6612610429993,None,640.6612610429993,None,640.6612610429993,None,641.5957919759994,None,1,0.36739185100032046,641.5957919759994,None,122,641.979800735,None,1282,A,1,2021_May_28_0949,GazeFlow,2020.1.2,59.89281019711927,
13,Block501.xls,A,1,8,50,50,12,congruent,Right,Right,Left,66,65,1,yellow,2,5,/home/docky/apps/exp/images/66Y.jpeg,/home/docky/apps/exp/images/35Bi.jpeg,0,4,4,4,0,7,7,7,642.9822578989997,None,642.9822578989997,None,1,4.192284766999364,642.9822578989997,None,647.2077329719996,None,647.2077329719996,None,649.7127091969996,None,649.7127091969996,None,0.9665825750007571,651.5091662679997,None,651.5091662679997,None,5,1,0.7842661599997882,652.4676735229996,None,652.4676735229996,None,652.4676735229996,None,653.2684770979995,None,1,0.5185704790001182,653.2684770979995,None,124,653.8031127259992,None,1282,A,1,2021_May_28_0949,GazeFlow,2020.1.2,59.89281019711927,
13,Block501.xls,A,,,,,,,,,,,,,,,,,,0,4,4,4,,,,,,,,,,,,,,,,,,,,,,,,,,,,,,,,,,,,,,,,,,,,1282,A,1,2021_May_28_0949,GazeFlow,2020.1.2,59.89281019711927,
14,Block513.xls,A,13,1,32,32,12,congruent,Right,Right,Left,19,16,3,blue,2,5,/home/docky/apps/exp/images/19B.jpeg,/home/docky/apps/exp/images/16Bi.jpeg,0,5,5,5,0,0,0,0,686.8686922769994,None,686.8686922769994,None,1,3.0120807159992182,686.8686922769994,None,689.9112699009993,None,689.9112699009993,None,692.4289250519996,None,692.4289250519996,None,0.7987982989998272,694.2325897009996,None,694.2325897009996,None,5,1,0.7839426659993478,695.016865777,None,695.016865777,None,695.016865777,None,695.8174093179996,None,1,0.31754555399948003,695.8174093179996,None,126,696.1514365549992,None,1282,A,1,2021_May_28_0949,GazeFlow,2020.1.2,59.89281019711927,
14,Block513.xls,A,13,2,81,21,21,incongruent,Right,Left,Right,38,39,1,yellow,2,6,/home/docky/apps/exp/images/38Yi.jpeg,/home/docky/apps/exp/images/39Y.jpeg,0,5,5,5,0,1,1,1,697.1533944469993,None,697.1533944469993,None,1,2.889884076999806,697.1533944469993,None,700.0746745609995,None,700.0746745609995,None,702.5816243189993,None,702.5816243189993,None,0.8837225270008275,704.3779066179995,None,704.3779066179995,None,5,0,0.9178744289993119,705.2533239279992,None,705.2533239279992,None,705.2533239279992,None,706.1877713469994,None,1,0.30074065900043934,706.1877713469994,None,124,706.5050904499994,None,1282,A,1,2021_May_28_0949,GazeFlow,2020.1.2,59.89281019711927,
14,Block513.xls,A,13,3,92,32,22,incongruent,Left,Right,Left,19,16,3,blue,2,5,/home/docky/apps/exp/images/19B.jpeg,/home/docky/apps/exp/images/16Bi.jpeg,0,5,5,5,0,2,2,2,707.5071595019999,None,707.5071595019999,None,1,3.8419756860002963,707.5071595019999,None,711.3822998099995,None,711.3822998099995,None,713.8903665359994,None,713.8903665359994,None,1.8348467229998278,715.6902215609998,None,715.6902215609998,None,5,1,1.0537227009999697,717.5100779099994,None,717.5100779099994,None,717.5100779099994,None,718.578813741,None,1,0.38374886400015384,718.578813741,None,126,718.9792200089996,None,1282,A,1,2021_May_28_0949,GazeFlow,2020.1.2,59.89281019711927,
14,Block513.xls,A,13,4,6,6,11,congruent,Left,Left,Right,65,66,1,blue,2,6,/home/docky/apps/exp/images/35Y.jpeg,/home/docky/apps/exp/images/66Bi.jpeg,0,5,5,5,0,3,3,3,719.9818357109998,None,719.9818357109998,None,1,3.4237556919997587,719.9818357109998,None,723.4391577569995,None,723.4391577569995,None,725.9437742789996,None,725.9437742789996,None,0.8501125570001022,727.7459484769997,None,727.7459484769997,None,5,0,0.8511170850006238,728.581760266,None,728.581760266,None,728.581760266,None,729.4494976889991,None,1,0.31734910100021807,729.4494976889991,None,124,729.783357673,None,1282,A,1,2021_May_28_0949,GazeFlow,2020.1.2,59.89281019711927,
14,Block513.xls,A,13,5,67,7,21,incongruent,Right,Left,Right,38,39,1,blue,2,6,/home/docky/apps/exp/images/38Bi.jpeg,/home/docky/apps/exp/images/39B.jpeg,0,5,5,5,0,4,4,4,730.7855546159999,None,730.7855546159999,None,1,3.824718247000419,730.7855546159999,None,734.6439407279995,None,734.6439407279995,None,737.1475019099998,None,737.1475019099998,None,0.89992264600005,738.9522352419999,None,738.9522352419999,None,6,1,0.8512015840005915,739.836998756,None,739.836998756,None,739.836998756,None,740.7047644079994,None,1,0.4004975560001185,740.7047644079994,None,126,741.1221290969997,None,1282,A,1,2021_May_28_0949,GazeFlow,2020.1.2,59.89281019711927,
14,Block513.xls,A,13,6,111,51,22,incongruent,Left,Right,Left,66,65,1,yellow,2,5,/home/docky/apps/exp/images/66Yi.jpeg,/home/docky/apps/exp/images/35B.jpeg,0,5,5,5,0,5,5,5,742.124189014,None,742.124189014,None,1,2.4892041379998773,742.124189014,None,744.6531236949995,None,744.6531236949995,None,747.1497463129999,None,747.1497463129999,None,1.3506030770004145,748.9524078089999,None,748.9524078089999,None,6,0,1.6696322409998174,750.290531396,None,750.290531396,None,750.290531396,None,751.9766063709994,None,1,0.43451123500017275,751.9766063709994,None,124,752.4273863979997,None,1282,A,1,2021_May_28_0949,GazeFlow,2020.1.2,59.89281019711927,
14,Block513.xls,A,13,7,88,28,21,incongruent,Right,Left,Right,79,82,3,yellow,2,6,/home/docky/apps/exp/images/79Y.jpeg,/home/docky/apps/exp/images/80Yi.jpeg,0,5,5,5,0,6,6,6,753.4294931919994,None,753.4294931919994,None,1,2.522252548000324,753.4294931919994,None,755.9851433719996,None,755.9851433719996,None,758.4904232439994,None,758.4904232439994,None,2.9210627120000936,760.294001839,None,760.294001839,None,5,0,0.9511422420000599,763.2160417229998,None,763.2160417229998,None,763.2160417229998,None,764.1838289999996,None,1,0.5843438379997679,764.1838289999996,None,122,764.7848255219997,None,1282,A,1,2021_May_28_0949,GazeFlow,2020.1.2,59.89281019711927,
14,Block513.xls,A,13,8,14,14,11,congruent,Left,Left,Right,80,83,3,blue,2,6,/home/docky/apps/exp/images/80B.jpeg,/home/docky/apps/exp/images/83Bi.jpeg,0,5,5,5,0,7,7,7,765.7871611769997,None,765.7871611769997,None,1,3.20644496299974,765.7871611769997,None,769.0274641669994,None,769.0274641669994,None,771.5325042719996,None,771.5325042719996,None,4.190127916000165,773.3330995849992,None,773.3330995849992,None,6,1,0.9337271349995717,777.5274120139993,None,777.5274120139993,None,777.5274120139993,None,778.4778397509999,None,1,0.31772301599994535,778.4778397509999,None,124,778.8122170059996,None,1282,A,1,2021_May_28_0949,GazeFlow,2020.1.2,59.89281019711927,
14,Block513.xls,A,,,,,,,,,,,,,,,,,,0,5,5,5,,,,,,,,,,,,,,,,,,,,,,,,,,,,,,,,,,,,,,,,,,,,1282,A,1,2021_May_28_0949,GazeFlow,2020.1.2,59.89281019711927,
15,Block514.xls,A,14,1,113,53,22,incongruent,Left,Right,Left,75,69,6,yellow,2,5,/home/docky/apps/exp/images/76Y.jpeg,/home/docky/apps/exp/images/69Yi.jpeg,0,6,6,6,0,0,0,0,801.0077597309992,None,801.0077597309992,None,1,4.380026866000662,801.0077597309992,None,805.4181919749999,None,805.4181919749999,None,807.9348596949994,None,807.9348596949994,None,0.9993996789999073,809.7398822299992,None,809.7398822299992,None,5,1,0.9512158179995822,810.724617506,None,810.724617506,None,810.724617506,None,811.6924931099993,None,1,2.1043794959996376,811.6924931099993,None,126,813.8134354189997,None,1282,A,1,2021_May_28_0949,GazeFlow,2020.1.2,59.89281019711927,
15,Block514.xls,A,14,2,45,45,12,congruent,Right,Right,Left,39,38,1,blue,2,5,/home/docky/apps/exp/images/39B.jpeg,/home/docky/apps/exp/images/38Bi.jpeg,0,6,6,6,0,1,1,1,814.815639376,None,814.815639376,None,1,3.1565858519998073,814.815639376,None,818.0059398939993,None,818.0059398939993,None,820.5088862709999,None,820.5088862709999,None,1.0837118450008347,822.3124719809994,None,822.3124719809994,None,6,0,0.8678449400003956,823.3824358969996,None,823.3824358969996,None,823.3824358969996,None,824.2668663209997,None,1,0.3348228830000153,824.2668663209997,None,124,824.6178249209997,None,1282,A,1,2021_May_28_0949,GazeFlow,2020.1.2,59.89281019711927,
15,Block514.xls,A,14,3,52,52,12,congruent,Right,Right,Left,75,69,6,yellow,2,5,/home/docky/apps/exp/images/76Y.jpeg,/home/docky/apps/exp/images/69Yi.jpeg,0,6,6,6,0,2,2,2,825.6196862469997,None,825.6196862469997,None,1,3.0563853769999696,825.6196862469997,None,828.70803901,None,828.70803901,None,831.2131214349993,None,831.2131214349993,None,3.2549769759998526,833.0165087169999,None,833.0165087169999,None,5,1,0.9001678060003542,836.275134773,None,836.275134773,None,836.275134773,None,837.192058609,None,1,0.317141773000003,837.192058609,None,126,837.5258280459993,None,1282,A,1,2021_May_28_0949,GazeFlow,2020.1.2,59.89281019711927,
15,Block514.xls,A,14,4,106,46,22,incongruent,Left,Right,Left,35,33,2,yellow,2,5,/home/docky/apps/exp/images/35Yi.jpeg,/home/docky/apps/exp/images/33Y.jpeg,0,6,6,6,0,3,3,3,838.5279026389999,None,838.5279026389999,None,1,3.9583667690003494,838.5279026389999,None,842.5201658059996,None,842.5201658059996,None,845.0263090569997,None,845.0263090569997,None,0.8168133020008099,846.8261475629997,None,846.8261475629997,None,5,1,0.9680182489992148,847.6294230919993,None,847.6294230919993,None,847.6294230919993,None,848.6142907149997,None,1,0.4508911940001781,848.6142907149997,None,128,849.081720489,None,1282,A,1,2021_May_28_0949,GazeFlow,2020.1.2,59.89281019711927,
15,Block514.xls,A,14,5,109,49,22,incongruent,Left,Right,Left,39,38,1,yellow,2,5,/home/docky/apps/exp/images/39Yi.jpeg,/home/docky/apps/exp/images/38Y.jpeg,0,6,6,6,0,4,4,4,850.0837965539995,None,850.0837965539995,None,1,3.5073787910005194,850.0837965539995,None,853.6249461899997,None,853.6249461899997,None,856.1281982099999,None,856.1281982099999,None,1.0170307099997444,857.931413802,None,857.931413802,None,5,1,1.452836188999754,858.934881184,None,858.934881184,None,858.934881184,None,860.4041450729992,None,1,0.40131541499977175,860.4041450729992,None,130,860.8216912019998,None,1282,A,1,2021_May_28_0949,GazeFlow,2020.1.2,59.89281019711927,
15,Block514.xls,A,14,6,89,29,21,incongruent,Right,Left,Right,79,82,3,yellow,2,6,/home/docky/apps/exp/images/79Yi.jpeg,/home/docky/apps/exp/images/80Y.jpeg,0,6,6,6,0,5,5,5,861.823272269,None,861.823272269,None,1,4.309030987000369,861.823272269,None,866.164133067,None,866.164133067,None,868.6708845099993,None,868.6708845099993,None,1.2505142749996594,870.4676367859993,None,870.4676367859993,None,6,1,1.5365797940003176,871.7094838679996,None,871.7094838679996,None,871.7094838679996,None,873.2622875079996,None,1,0.3339208890001828,873.2622875079996,None,132,873.6125225199994,None,1282,A,1,2021_May_28_0949,GazeFlow,2020.1.2,59.89281019711927,
15,Block514.xls,A,14,7,91,31,22,incongruent,Left,Right,Left,19,16,3,blue,2,5,/home/docky/apps/exp/images/19Bi.jpeg,/home/docky/apps/exp/images/16B.jpeg,0,6,6,6,0,6,6,6,874.6150037579991,None,874.6150037579991,None,1,2.889660093999737,874.6150037579991,None,877.5380780119995,None,877.5380780119995,None,880.0412120409992,None,880.0412120409992,None,0.8331579170007899,881.8439332749995,None,881.8439332749995,None,5,1,0.9344205789993794,882.6643175299996,None,882.6643175299996,None,882.6643175299996,None,883.6153594129992,None,1,0.3673208380005235,883.6153594129992,None,134,883.9994895219997,None,1282,A,1,2021_May_28_0949,GazeFlow,2020.1.2,59.89281019711927,
15,Block514.xls,A,14,8,79,19,21,incongruent,Right,Left,Right,62,65,3,yellow,2,6,/home/docky/apps/exp/images/38B.jpeg,/home/docky/apps/exp/images/35Bi.jpeg,0,6,6,6,0,7,7,7,885.001382378,None,885.001382378,None,1,2.9235640759998205,885.001382378,None,887.9581813099994,None,887.9581813099994,None,890.461614629,None,890.461614629,None,0.7164329150000412,892.2653015299993,None,892.2653015299993,None,6,1,0.9178082369999174,892.9673478249997,None,892.9673478249997,None,892.9673478249997,None,893.9022099649992,None,1,0.3841393840002638,893.9022099649992,None,136,894.303025788,None,1282,A,1,2021_May_28_0949,GazeFlow,2020.1.2,59.89281019711927,
15,Block514.xls,A,,,,,,,,,,,,,,,,,,0,6,6,6,,,,,,,,,,,,,,,,,,,,,,,,,,,,,,,,,,,,,,,,,,,,1282,A,1,2021_May_28_0949,GazeFlow,2020.1.2,59.89281019711927,
