Nblock,condsFile,grouping,Block,TrialBlock,N,trialN,trialCond,gazeCon,gazedirR,corrBinR,corrBinP,valLBY,valRBY,diff,colorCube,feedbacktext,corrAns,imageL,imageR,SelBlocks.thisRepN,SelBlocks.thisTrialN,SelBlocks.thisN,SelBlocks.thisIndex,Trials.thisRepN,Trials.thisTrialN,Trials.thisN,Trials.thisIndex,waitCube.started,waitCube.stopped,text_3.started,text_3.stopped,StartKeyPress.keys,StartKeyPress.rt,StartKeyPress.started,StartKeyPress.stopped,StimL.started,StimL.stopped,StimR.started,StimR.stopped,imageStim2L.started,imageStim2L.stopped,imageStim2R.started,imageStim2R.stopped,RTkeyRelease,imageStim3L.started,imageStim3L.stopped,imageStim3R.started,imageStim3R.stopped,dropResp.keys,dropResp.corr,dropResp.rt,dropResp.started,dropResp.stopped,imageStim5L.started,imageStim5L.stopped,imageStim5R.started,imageStim5R.stopped,text_2.started,text_2.stopped,ReturnSpace.keys,ReturnSpace.rt,ReturnSpace.started,ReturnSpace.stopped,totalpoints,textFeedback.started,textFeedback.stopped,participant,group,session,date,expName,psychopyVersion,frameRate,
1,Block502.xls,A,2,1,93,33,22,incongruent,Left,Right,Left,38,35,3,blue,2,5,/home/docky/apps/exp/images/38B.jpeg,/home/docky/apps/exp/images/35Bi.jpeg,0,0,0,0,0,0,0,0,71.39802940800018,None,71.39802940800018,None,1,3.512839619999795,71.39802940800018,None,74.94247461000032,None,74.94247461000032,None,77.46498452100059,None,77.46498452100059,None,3.103755787999944,79.26337770300051,None,79.26337770300051,None,5,1,0.7498970980004742,82.367893095,None,82.367893095,None,82.367893095,None,83.13408609900034,None,1,0.7684672810000848,83.13408609900034,None,2,83.91913267700056,None,128,A,1,2021_May_28_0926,GazeFlow,2020.1.2,59.86570864352556,
1,Block502.xls,A,2,2,42,42,12,congruent,Right,Right,Left,83,80,3,blue,2,5,/home/docky/apps/exp/images/83Bi.jpeg,/home/docky/apps/exp/images/80B.jpeg,0,0,0,0,0,1,1,1,84.92144769200058,None,84.92144769200058,None,1,4.642639374999817,84.92144769200058,None,89.59798453500025,None,89.59798453500025,None,92.10294016599983,None,92.10294016599983,None,1.3675187799999549,93.90643994200036,None,93.90643994200036,None,5,1,1.1021959870004139,95.25846795800044,None,95.25846795800044,None,95.25846795800044,None,96.37699286299994,None,1,0.4672253759999876,96.37699286299994,None,4,96.86073343099997,None,128,A,1,2021_May_28_0926,GazeFlow,2020.1.2,59.86570864352556,
1,Block502.xls,A,2,3,9,9,11,congruent,Left,Left,Right,38,39,1,blue,2,6,/home/docky/apps/exp/images/38Bi.jpeg,/home/docky/apps/exp/images/39B.jpeg,0,0,0,0,0,2,2,2,97.86285651300022,None,97.86285651300022,None,1,3.8920223140003145,97.86285651300022,None,101.78820742800053,None,101.78820742800053,None,104.2916721040001,None,104.2916721040001,None,1.067077812000207,106.09522955000011,None,106.09522955000011,None,5,0,1.10172355099985,107.14805268300006,None,107.14805268300006,None,107.14805268300006,None,108.26639306300058,None,1,0.618952017999618,108.26639306300058,None,2,108.90138968500014,None,128,A,1,2021_May_28_0926,GazeFlow,2020.1.2,59.86570864352556,
1,Block502.xls,A,2,4,23,23,11,congruent,Left,Left,Right,38,39,1,yellow,2,6,/home/docky/apps/exp/images/38Yi.jpeg,/home/docky/apps/exp/images/39Y.jpeg,0,0,0,0,0,3,3,3,109.9031723070002,None,109.9031723070002,None,1,3.9245439200003602,109.9031723070002,None,113.86249235000014,None,113.86249235000014,None,116.36503070500021,None,116.36503070500021,None,1.0003885829992214,118.168459257,None,118.168459257,None,5,0,1.0851200529996277,119.15485110100053,None,119.15485110100053,None,119.15485110100053,None,120.25628570000026,None,1,0.5017514669998491,120.25628570000026,None,0,120.77459688199997,None,128,A,1,2021_May_28_0926,GazeFlow,2020.1.2,59.86570864352556,
1,Block502.xls,A,2,5,57,57,12,congruent,Right,Right,Left,77,72,5,yellow,2,5,/home/docky/apps/exp/images/77Y.jpeg,/home/docky/apps/exp/images/72Yi.jpeg,0,0,0,0,0,4,4,4,121.77576344699992,None,121.77576344699992,None,1,4.7936031859999275,121.77576344699992,None,126.60323079400041,None,126.60323079400041,None,129.10812488200008,None,129.10812488200008,None,0.8999242559993945,130.91158468600042,None,130.91158468600042,None,5,1,0.918021179999414,131.79609594500016,None,131.79609594500016,None,131.79609594500016,None,132.73068164600045,None,1,0.4009173109998301,132.73068164600045,None,2,133.14821594600016,None,128,A,1,2021_May_28_0926,GazeFlow,2020.1.2,59.86570864352556,
1,Block502.xls,A,2,6,118,58,22,incongruent,Left,Right,Left,80,79,1,yellow,2,5,/home/docky/apps/exp/images/80Yi.jpeg,/home/docky/apps/exp/images/79Y.jpeg,0,0,0,0,0,5,5,5,134.15021170799992,None,134.15021170799992,None,1,4.009809450999455,134.15021170799992,None,138.19647168700067,None,138.19647168700067,None,140.69705939600044,None,140.69705939600044,None,1.9018054180005493,142.5003241580007,None,142.5003241580007,None,5,1,1.0515787120002642,144.3871613500005,None,144.3871613500005,None,144.3871613500005,None,145.45543234100023,None,1,0.50116252800035,145.45543234100023,None,4,145.97315409400017,None,128,A,1,2021_May_28_0926,GazeFlow,2020.1.2,59.86570864352556,
1,Block502.xls,A,2,7,101,41,22,incongruent,Left,Right,Left,83,80,3,blue,2,5,/home/docky/apps/exp/images/83Bi.jpeg,/home/docky/apps/exp/images/80B.jpeg,0,0,0,0,0,6,6,6,146.974897004,None,146.974897004,None,1,3.891707812000277,146.974897004,None,150.9001994170003,None,150.9001994170003,None,153.40557924899986,None,153.40557924899986,None,0.91674483999941,155.20861889500065,None,155.20861889500065,None,5,1,0.9181153380004616,156.11013929900037,None,156.11013929900037,None,156.11013929900037,None,157.04476848800005,None,1,0.3839175270004489,157.04476848800005,None,6,157.44550371400055,None,128,A,1,2021_May_28_0926,GazeFlow,2020.1.2,59.86570864352556,
1,Block502.xls,A,2,8,69,9,21,incongruent,Right,Left,Right,73,76,3,blue,2,6,/home/docky/apps/exp/images/73B.jpeg,/home/docky/apps/exp/images/76Bi.jpeg,0,0,0,0,0,7,7,7,158.44728555300026,None,158.44728555300026,None,1,3.2236846109999533,158.44728555300026,None,161.70492376400034,None,161.70492376400034,None,164.2079538630005,None,164.2079538630005,None,0.8332553650006957,166.01072968900007,None,166.01072968900007,None,5,0,0.8845899009993445,166.8309331620003,None,166.8309331620003,None,166.8309331620003,None,167.73216087299988,None,1,0.36758692500006873,167.73216087299988,None,4,168.11643092400027,None,128,A,1,2021_May_28_0926,GazeFlow,2020.1.2,59.86570864352556,
1,Block502.xls,A,,,,,,,,,,,,,,,,,,0,0,0,0,,,,,,,,,,,,,,,,,,,,,,,,,,,,,,,,,,,,,,,,,,,,128,A,1,2021_May_28_0926,GazeFlow,2020.1.2,59.86570864352556,
2,Block506.xls,A,6,1,120,60,22,incongruent,Left,Right,Left,80,79,1,yellow,2,5,/home/docky/apps/exp/images/80Yi.jpeg,/home/docky/apps/exp/images/79Y.jpeg,0,1,1,1,0,0,0,0,186.83818111800065,None,186.83818111800065,None,1,7.604733936999764,186.83818111800065,None,194.46527605400024,None,194.46527605400024,None,196.98989625300055,None,196.98989625300055,None,2.5029049419999865,198.78687398700004,None,198.78687398700004,None,6,0,1.1345229879998442,201.2985806249999,None,201.2985806249999,None,201.2985806249999,None,202.44964081099988,None,1,0.45096746099989105,202.44964081099988,None,2,202.91727645799983,None,128,A,1,2021_May_28_0926,GazeFlow,2020.1.2,59.86570864352556,
2,Block506.xls,A,6,2,51,51,12,congruent,Right,Right,Left,66,65,1,yellow,2,5,/home/docky/apps/exp/images/66Y.jpeg,/home/docky/apps/exp/images/35Bi.jpeg,0,1,1,1,0,1,1,1,203.91965066900048,None,203.91965066900048,None,1,5.060117675000583,203.91965066900048,None,209.01372362300026,None,209.01372362300026,None,211.51696218000052,None,211.51696218000052,None,0.8665211309998995,213.3218917260001,None,213.3218917260001,None,5,1,0.88499454399971,214.17288104399995,None,214.17288104399995,None,214.17288104399995,None,215.07434144499985,None,1,0.33384467199994106,215.07434144499985,None,4,215.4247055880005,None,128,A,1,2021_May_28_0926,GazeFlow,2020.1.2,59.86570864352556,
2,Block506.xls,A,6,3,119,59,22,incongruent,Left,Right,Left,80,79,1,yellow,2,5,/home/docky/apps/exp/images/80Y.jpeg,/home/docky/apps/exp/images/79Yi.jpeg,0,1,1,1,0,2,2,2,216.42681911900036,None,216.42681911900036,None,1,4.459353668000404,216.42681911900036,None,220.91998402399986,None,220.91998402399986,None,223.42329783900004,None,223.42329783900004,None,1.0501401749997967,225.228402922,None,225.228402922,None,5,1,0.9345203210004911,226.26348577200042,None,226.26348577200042,None,226.26348577200042,None,227.21437391400013,None,1,2.5221979590005503,227.21437391400013,None,6,229.75307462599994,None,128,A,1,2021_May_28_0926,GazeFlow,2020.1.2,59.86570864352556,
2,Block506.xls,A,6,4,28,28,11,congruent,Left,Left,Right,72,77,5,yellow,2,6,/home/docky/apps/exp/images/72Y.jpeg,/home/docky/apps/exp/images/77Yi.jpeg,0,1,1,1,0,3,3,3,230.75518100099998,None,230.75518100099998,None,1,3.123706332999973,230.75518100099998,None,233.91172626800017,None,233.91172626800017,None,236.41683520800052,None,236.41683520800052,None,0.8666171009999744,238.21867113200005,None,238.21867113200005,None,6,1,0.9013188779999837,239.07145316700007,None,239.07145316700007,None,239.07145316700007,None,239.98939081300068,None,1,0.36790200699942943,239.98939081300068,None,8,240.37378440800057,None,128,A,1,2021_May_28_0926,GazeFlow,2020.1.2,59.86570864352556,
2,Block506.xls,A,6,5,85,25,21,incongruent,Right,Left,Right,69,75,6,yellow,2,6,/home/docky/apps/exp/images/69Y.jpeg,/home/docky/apps/exp/images/76Yi.jpeg,0,1,1,1,0,4,4,4,241.3755854990004,None,241.3755854990004,None,1,3.2569370940000226,241.3755854990004,None,244.66635450100057,None,244.66635450100057,None,247.16939629900025,None,247.16939629900025,None,0.6998773410005015,248.97263580900017,None,248.97263580900017,None,6,1,2.7718055650002498,249.65874129700023,None,249.65874129700023,None,249.65874129700023,None,252.44685223600027,None,1,0.9355806389994541,252.44685223600027,None,10,253.39909673000057,None,128,A,1,2021_May_28_0926,GazeFlow,2020.1.2,59.86570864352556,
2,Block506.xls,A,6,6,71,11,21,incongruent,Right,Left,Right,76,79,3,blue,2,6,/home/docky/apps/exp/images/76B.jpeg,/home/docky/apps/exp/images/79Bi.jpeg,0,1,1,1,0,5,5,5,254.4012245390004,None,254.4012245390004,None,1,3.591059299000335,254.4012245390004,None,258.0256289409999,None,258.0256289409999,None,260.52892310600055,None,260.52892310600055,None,0.9833490639994125,262.3341193320002,None,262.3341193320002,None,6,1,0.9845480640005917,263.30210432900003,None,263.30210432900003,None,263.30210432900003,None,264.3035162470005,None,1,0.4346531459996186,264.3035162470005,None,12,264.7547093009998,None,128,A,1,2021_May_28_0926,GazeFlow,2020.1.2,59.86570864352556,
2,Block506.xls,A,6,7,56,56,12,congruent,Right,Right,Left,76,69,7,yellow,2,5,/home/docky/apps/exp/images/76Yi.jpeg,/home/docky/apps/exp/images/69Y.jpeg,0,1,1,1,0,6,6,6,265.7560632020004,None,265.7560632020004,None,1,3.056790970000293,265.7560632020004,None,268.84824115100037,None,268.84824115100037,None,271.35155486199983,None,271.35155486199983,None,0.7830294080004023,273.1530834570003,None,273.1530834570003,None,5,1,0.9346717340004034,273.9227355540006,None,273.9227355540006,None,273.9227355540006,None,274.8739330060007,None,1,0.2840194469999915,274.8739330060007,None,14,275.17467274499995,None,128,A,1,2021_May_28_0926,GazeFlow,2020.1.2,59.86570864352556,
2,Block506.xls,A,6,8,33,33,12,congruent,Right,Right,Left,38,35,3,blue,2,5,/home/docky/apps/exp/images/38B.jpeg,/home/docky/apps/exp/images/35Bi.jpeg,0,1,1,1,0,7,7,7,276.17641753299995,None,276.17641753299995,None,1,3.1908123490002254,276.17641753299995,None,279.4005547750003,None,279.4005547750003,None,281.90311209599986,None,281.90311209599986,None,0.8831581779995759,283.70172220899985,None,283.70172220899985,None,5,1,0.8845351199997822,284.5766727420005,None,284.5766727420005,None,284.5766727420005,None,285.478169686,None,1,0.3670808629995008,285.478169686,None,16,285.86221491700053,None,128,A,1,2021_May_28_0926,GazeFlow,2020.1.2,59.86570864352556,
2,Block506.xls,A,,,,,,,,,,,,,,,,,,0,1,1,1,,,,,,,,,,,,,,,,,,,,,,,,,,,,,,,,,,,,,,,,,,,,128,A,1,2021_May_28_0926,GazeFlow,2020.1.2,59.86570864352556,
3,Block505.xls,A,5,1,1,1,11,congruent,Left,Left,Right,16,19,3,blue,2,6,/home/docky/apps/exp/images/16Bi.jpeg,/home/docky/apps/exp/images/19B.jpeg,0,2,2,2,0,0,0,0,305.68461720600044,None,305.68461720600044,None,1,4.699492724000265,305.68461720600044,None,310.41707743500046,None,310.41707743500046,None,312.93238890500015,None,312.93238890500015,None,0.9161119219998,314.7299578080001,None,314.7299578080001,None,6,1,0.8516126080003232,315.6371374340006,None,315.6371374340006,None,315.6371374340006,None,316.5049353230006,None,1,1.0528066710003259,316.5049353230006,None,18,317.57422737900015,None,128,A,1,2021_May_28_0926,GazeFlow,2020.1.2,59.86570864352556,
3,Block505.xls,A,5,2,10,10,11,congruent,Left,Left,Right,73,76,3,blue,2,6,/home/docky/apps/exp/images/73B.jpeg,/home/docky/apps/exp/images/76Bi.jpeg,0,2,2,2,0,1,1,1,318.5757910070006,None,318.5757910070006,None,1,2.405840700999761,318.5757910070006,None,321.01485459000014,None,321.01485459000014,None,323.519212485,None,323.519212485,None,1.3179678440001226,325.3234915990006,None,325.3234915990006,None,6,1,0.91779764399962,326.62540075500056,None,326.62540075500056,None,326.62540075500056,None,327.56020992400045,None,1,0.45121932399979414,327.56020992400045,None,20,328.0277742070002,None,128,A,1,2021_May_28_0926,GazeFlow,2020.1.2,59.86570864352556,
3,Block505.xls,A,5,3,95,35,22,incongruent,Left,Right,Left,66,65,1,blue,2,5,/home/docky/apps/exp/images/66B.jpeg,/home/docky/apps/exp/images/35Yi.jpeg,0,2,2,2,0,2,2,2,329.0294184880004,None,329.0294184880004,None,1,2.538940272999753,329.0294184880004,None,331.6023402990004,None,331.6023402990004,None,334.1071504649999,None,334.1071504649999,None,0.9166721760002474,335.9106381950005,None,335.9106381950005,None,5,1,0.8508838000007017,336.81201044800036,None,336.81201044800036,None,336.81201044800036,None,337.6798882789999,None,1,0.3503915669998605,337.6798882789999,None,22,338.0469582559999,None,128,A,1,2021_May_28_0926,GazeFlow,2020.1.2,59.86570864352556,
3,Block505.xls,A,5,4,46,46,12,congruent,Right,Right,Left,35,33,2,yellow,2,5,/home/docky/apps/exp/images/35Yi.jpeg,/home/docky/apps/exp/images/33Y.jpeg,0,2,2,2,0,3,3,3,339.04917229200055,None,339.04917229200055,None,1,2.9231147670006976,339.04917229200055,None,342.0056062419999,None,342.0056062419999,None,344.50895042400043,None,344.50895042400043,None,0.7663101739999547,346.3125329330005,None,346.3125329330005,None,5,1,0.9346495149993643,347.06518155899994,None,347.06518155899994,None,347.06518155899994,None,348.016370888,None,1,0.26719129999946745,348.016370888,None,24,348.3002391959999,None,128,A,1,2021_May_28_0926,GazeFlow,2020.1.2,59.86570864352556,
3,Block505.xls,A,5,5,78,18,21,incongruent,Right,Left,Right,65,66,1,yellow,2,6,/home/docky/apps/exp/images/35Bi.jpeg,/home/docky/apps/exp/images/66Y.jpeg,0,2,2,2,0,4,4,4,349.3022831420003,None,349.3022831420003,None,1,3.3237100350006585,349.3022831420003,None,352.6600391890006,None,352.6600391890006,None,355.16506500500054,None,355.16506500500054,None,1.918579480000517,356.96838386200034,None,356.96838386200034,None,6,1,0.8854048110006261,358.87155845600046,None,358.87155845600046,None,358.87155845600046,None,359.7730809530003,None,1,0.350556981000409,359.7730809530003,None,26,360.14001932500014,None,128,A,1,2021_May_28_0926,GazeFlow,2020.1.2,59.86570864352556,
3,Block505.xls,A,5,6,43,43,12,congruent,Right,Right,Left,83,80,3,blue,2,5,/home/docky/apps/exp/images/83B.jpeg,/home/docky/apps/exp/images/80Bi.jpeg,0,2,2,2,0,5,5,5,361.1419384560004,None,361.1419384560004,None,1,2.1715878779996274,361.1419384560004,None,363.3450084820006,None,363.3450084820006,None,365.8523266020002,None,365.8523266020002,None,0.8664767359996404,367.64827616300045,None,367.64827616300045,None,5,1,0.9015162830000918,368.50699210699986,None,368.50699210699986,None,368.50699210699986,None,369.42471887100055,None,1,0.635955284999909,369.42471887100055,None,28,370.07655181800055,None,128,A,1,2021_May_28_0926,GazeFlow,2020.1.2,59.86570864352556,
3,Block505.xls,A,5,7,44,44,12,congruent,Right,Right,Left,39,38,1,blue,2,5,/home/docky/apps/exp/images/39Bi.jpeg,/home/docky/apps/exp/images/38B.jpeg,0,2,2,2,0,6,6,6,371.078154926,None,371.078154926,None,1,2.9730247799998324,371.078154926,None,374.08572962700055,None,374.08572962700055,None,376.58970038700045,None,376.58970038700045,None,0.7662631509992934,378.39197547000003,None,378.39197547000003,None,5,1,0.9010878360004426,379.14437791,None,379.14437791,None,379.14437791,None,380.06215133600017,None,1,0.3175954329999513,380.06215133600017,None,30,380.39623693700014,None,128,A,1,2021_May_28_0926,GazeFlow,2020.1.2,59.86570864352556,
3,Block505.xls,A,5,8,116,56,22,incongruent,Left,Right,Left,77,72,5,yellow,2,5,/home/docky/apps/exp/images/77Y.jpeg,/home/docky/apps/exp/images/72Y.jpeg,0,2,2,2,0,7,7,7,381.3981747460002,None,381.3981747460002,None,1,3.457419970999581,381.3981747460002,None,384.889274698,None,384.889274698,None,387.3924278300001,None,387.3924278300001,None,0.8165456420001647,389.19553084200015,None,389.19553084200015,None,5,1,0.9016602130004685,389.99878677700053,None,389.99878677700053,None,389.99878677700053,None,390.9170132469999,None,1,0.33380316700004187,390.9170132469999,None,32,391.2672664970005,None,128,A,1,2021_May_28_0926,GazeFlow,2020.1.2,59.86570864352556,
3,Block505.xls,A,,,,,,,,,,,,,,,,,,0,2,2,2,,,,,,,,,,,,,,,,,,,,,,,,,,,,,,,,,,,,,,,,,,,,128,A,1,2021_May_28_0926,GazeFlow,2020.1.2,59.86570864352556,
4,Block509.xls,A,9,1,34,34,12,congruent,Right,Right,Left,38,35,3,blue,2,5,/home/docky/apps/exp/images/38Bi.jpeg,/home/docky/apps/exp/images/35B.jpeg,0,3,3,3,0,0,0,0,421.7611671650002,None,421.7611671650002,None,1,4.484242008000365,421.7611671650002,None,426.2698808089999,None,426.2698808089999,None,428.791755061,None,428.791755061,None,0.7657303490004779,430.59522801500043,None,430.59522801500043,None,5,1,0.9181907040001533,431.3459998449998,None,431.3459998449998,None,431.3459998449998,None,432.28061156400054,None,1,0.317433680999784,432.28061156400054,None,34,432.614539876,None,128,A,1,2021_May_28_0926,GazeFlow,2020.1.2,59.86570864352556,
4,Block509.xls,A,9,2,7,7,11,congruent,Left,Left,Right,65,66,1,blue,2,6,/home/docky/apps/exp/images/35Yi.jpeg,/home/docky/apps/exp/images/66B.jpeg,0,3,3,3,0,1,1,1,433.61679020300016,None,433.61679020300016,None,1,3.17336100600005,433.61679020300016,None,436.82407256700026,None,436.82407256700026,None,439.32702675700057,None,439.32702675700057,None,0.6995646159994067,441.12965127700045,None,441.12965127700045,None,6,1,0.8678315760007536,441.8164034860001,None,441.8164034860001,None,441.8164034860001,None,442.7011708930004,None,1,0.8689559760005068,442.7011708930004,None,36,443.5865291830005,None,128,A,1,2021_May_28_0926,GazeFlow,2020.1.2,59.86570864352556,
4,Block509.xls,A,9,3,74,14,21,incongruent,Right,Left,Right,80,83,3,blue,2,6,/home/docky/apps/exp/images/80B.jpeg,/home/docky/apps/exp/images/83Bi.jpeg,0,3,3,3,0,2,2,2,444.58814178600005,None,444.58814178600005,None,1,2.3216922270003124,444.58814178600005,None,446.94381495000016,None,446.94381495000016,None,449.4482922750003,None,449.4482922750003,None,1.8688591330001145,451.250216636,None,451.250216636,None,5,0,0.9519351779999852,453.1049839490006,None,453.1049839490006,None,453.1049839490006,None,454.07355778000056,None,1,0.36703805799970723,454.07355778000056,None,34,454.4572562150006,None,128,A,1,2021_May_28_0926,GazeFlow,2020.1.2,59.86570864352556,
4,Block509.xls,A,9,4,19,19,11,congruent,Left,Left,Right,65,66,1,yellow,2,6,/home/docky/apps/exp/images/35Bi.jpeg,/home/docky/apps/exp/images/66Y.jpeg,0,3,3,3,0,3,3,3,455.459317801,None,455.459317801,None,1,3.4073096140000416,455.459317801,None,458.9002843260005,None,458.9002843260005,None,461.40497102600057,None,461.40497102600057,None,0.7829133210007058,463.20732742900054,None,463.20732742900054,None,6,1,0.8678665090001232,463.976312752,None,463.976312752,None,463.976312752,None,464.86068192200037,None,1,0.43446356100048433,464.86068192200037,None,36,465.31166367400056,None,128,A,1,2021_May_28_0926,GazeFlow,2020.1.2,59.86570864352556,
4,Block509.xls,A,9,5,60,60,12,congruent,Right,Right,Left,80,79,1,yellow,2,5,/home/docky/apps/exp/images/80Yi.jpeg,/home/docky/apps/exp/images/79Y.jpeg,0,3,3,3,0,4,4,4,466.3138734410004,None,466.3138734410004,None,1,2.622834194999996,466.3138734410004,None,468.96995504999995,None,468.96995504999995,None,471.4746055229998,None,471.4746055229998,None,0.9166223380007068,473.2769285780005,None,473.2769285780005,None,6,0,0.9682866290004313,474.1794748729999,None,474.1794748729999,None,474.1794748729999,None,475.1639512040001,None,1,0.3507844229998227,475.1639512040001,None,34,475.5317451640003,None,128,A,1,2021_May_28_0926,GazeFlow,2020.1.2,59.86570864352556,
4,Block509.xls,A,9,6,83,23,21,incongruent,Right,Left,Right,38,39,1,yellow,2,6,/home/docky/apps/exp/images/38Yi.jpeg,/home/docky/apps/exp/images/39Y.jpeg,0,3,3,3,0,5,5,5,476.5337881730002,None,476.5337881730002,None,1,2.3717198539998208,476.5337881730002,None,478.93943696099996,None,478.93943696099996,None,481.4440093889998,None,481.4440093889998,None,0.8835903070003042,483.2459560719999,None,483.2459560719999,None,5,0,0.9682013339997866,484.115397175,None,484.115397175,None,484.115397175,None,485.1002335910007,None,1,0.4008892130004824,485.1002335910007,None,32,485.51786829400044,None,128,A,1,2021_May_28_0926,GazeFlow,2020.1.2,59.86570864352556,
4,Block509.xls,A,9,7,4,4,11,congruent,Left,Left,Right,35,38,3,blue,2,6,/home/docky/apps/exp/images/35B.jpeg,/home/docky/apps/exp/images/38Bi.jpeg,0,3,3,3,0,6,6,6,486.5197789720005,None,486.5197789720005,None,1,4.409549443999822,486.5197789720005,None,490.9628241850005,None,490.9628241850005,None,493.4676565150003,None,493.4676565150003,None,1.451059680999606,495.26863287000015,None,495.26863287000015,None,6,1,0.9851721720006026,496.70705122800064,None,496.70705122800064,None,496.70705122800064,None,497.70872101500026,None,1,0.41770166699916444,497.70872101500026,None,34,498.14290033199995,None,128,A,1,2021_May_28_0926,GazeFlow,2020.1.2,59.86570864352556,
4,Block509.xls,A,9,8,24,24,11,congruent,Left,Left,Right,38,39,1,yellow,2,6,/home/docky/apps/exp/images/38Y.jpeg,/home/docky/apps/exp/images/39Yi.jpeg,0,3,3,3,0,7,7,7,499.1441087330004,None,499.1441087330004,None,1,4.560157758000059,499.1441087330004,None,503.7378486890002,None,503.7378486890002,None,506.24263892100043,None,506.24263892100043,None,1.06689600899972,508.0441045289999,None,508.0441045289999,None,6,1,0.8510983719997967,509.097642879,None,509.097642879,None,509.097642879,None,509.9655777630005,None,1,0.4176078119999147,509.9655777630005,None,36,510.40034966500025,None,128,A,1,2021_May_28_0926,GazeFlow,2020.1.2,59.86570864352556,
4,Block509.xls,A,,,,,,,,,,,,,,,,,,0,3,3,3,,,,,,,,,,,,,,,,,,,,,,,,,,,,,,,,,,,,,,,,,,,,128,A,1,2021_May_28_0926,GazeFlow,2020.1.2,59.86570864352556,
5,Block504.xls,A,4,1,11,11,11,congruent,Left,Left,Right,73,76,3,blue,2,6,/home/docky/apps/exp/images/73Bi.jpeg,/home/docky/apps/exp/images/76B.jpeg,0,4,4,4,0,0,0,0,531.6258645980006,None,531.6258645980006,None,1,4.331888059999983,531.6258645980006,None,535.9805825250005,None,535.9805825250005,None,538.5055866190005,None,538.5055866190005,None,0.7157464029996845,540.3074085070002,None,540.3074085070002,None,6,1,0.8844279280001501,541.0100802870002,None,541.0100802870002,None,541.0100802870002,None,541.9111670250004,None,1,0.45082922099936695,541.9111670250004,None,38,542.3787841700005,None,128,A,1,2021_May_28_0926,GazeFlow,2020.1.2,59.86570864352556,
5,Block504.xls,A,4,2,87,27,21,incongruent,Right,Left,Right,72,77,5,yellow,2,6,/home/docky/apps/exp/images/72Y.jpeg,/home/docky/apps/exp/images/77Yi.jpeg,0,4,4,4,0,1,1,1,543.3808003109998,None,543.3808003109998,None,1,3.2240867639993667,543.3808003109998,None,546.6365151549999,None,546.6365151549999,None,549.1415143290005,None,549.1415143290005,None,18.501546835000227,550.9442870090006,None,550.9442870090006,None,5,0,3.0738257820003128,569.4475884230005,None,569.4475884230005,None,569.4475884230005,None,572.5379929660003,None,1,1.5864628650006125,572.5379929660003,None,36,574.1411499619999,None,128,A,1,2021_May_28_0926,GazeFlow,2020.1.2,59.86570864352556,
5,Block504.xls,A,4,3,48,48,12,congruent,Right,Right,Left,39,38,1,yellow,2,5,/home/docky/apps/exp/images/39Yi.jpeg,/home/docky/apps/exp/images/38Y.jpeg,0,4,4,4,0,2,2,2,575.1432247020002,None,575.1432247020002,None,1,3.7742514530000335,575.1432247020002,None,578.951243605,None,578.951243605,None,581.4545023310002,None,581.4545023310002,None,3.271927668999524,583.2572751060006,None,583.2572751060006,None,5,1,0.4525546980003128,586.5308777580003,None,586.5308777580003,None,586.5308777580003,None,586.999655742,None,1,0.8178254309996191,586.999655742,None,38,587.8341036460006,None,128,A,1,2021_May_28_0926,GazeFlow,2020.1.2,59.86570864352556,
5,Block504.xls,A,4,4,38,38,12,congruent,Right,Right,Left,79,73,6,blue,2,5,/home/docky/apps/exp/images/79B.jpeg,/home/docky/apps/exp/images/73Bi.jpeg,0,4,4,4,0,3,3,3,588.8360408420003,None,588.8360408420003,None,1,3.8414776800000254,588.8360408420003,None,592.7095712560003,None,592.7095712560003,None,595.2142030949999,None,595.2142030949999,None,1.8685537790006492,597.017261467,None,597.017261467,None,5,1,0.9021439959997224,598.8728801950001,None,598.8728801950001,None,598.8728801950001,None,599.7911241540005,None,1,0.4504278250005882,599.7911241540005,None,40,600.2585605730001,None,128,A,1,2021_May_28_0926,GazeFlow,2020.1.2,59.86570864352556,
5,Block504.xls,A,4,5,2,2,11,congruent,Left,Left,Right,16,19,3,blue,2,6,/home/docky/apps/exp/images/16B.jpeg,/home/docky/apps/exp/images/19Bi.jpeg,0,4,4,4,0,4,4,4,601.2605229380006,None,601.2605229380006,None,1,3.373668813000222,601.2605229380006,None,604.6680771669999,None,604.6680771669999,None,607.1725844860002,None,607.1725844860002,None,1.0503177109994795,608.97487413,None,608.97487413,None,6,1,0.7681305719997908,610.0112806369998,None,610.0112806369998,None,610.0112806369998,None,610.7957748240005,None,1,0.4846065239999007,610.7957748240005,None,42,611.2966052330003,None,128,A,1,2021_May_28_0926,GazeFlow,2020.1.2,59.86570864352556,
5,Block504.xls,A,4,6,73,13,21,incongruent,Right,Left,Right,80,83,3,blue,2,6,/home/docky/apps/exp/images/80Bi.jpeg,/home/docky/apps/exp/images/83B.jpeg,0,4,4,4,0,5,5,5,612.2988409990003,None,612.2988409990003,None,1,3.52433898199979,612.2988409990003,None,615.8627661830005,None,615.8627661830005,None,618.3597336370003,None,618.3597336370003,None,0.8996747930004858,620.1629066650003,None,620.1629066650003,None,6,1,0.9682578900001317,621.0495218400001,None,621.0495218400001,None,621.0495218400001,None,622.034097574,None,1,0.36756661999970675,622.034097574,None,44,622.4185015250005,None,128,A,1,2021_May_28_0926,GazeFlow,2020.1.2,59.86570864352556,
5,Block504.xls,A,4,7,63,3,21,incongruent,Right,Left,Right,35,38,3,blue,2,6,/home/docky/apps/exp/images/35B.jpeg,/home/docky/apps/exp/images/38Bi.jpeg,0,4,4,4,0,6,6,6,623.4202809090002,None,623.4202809090002,None,1,2.8064664289995562,623.4202809090002,None,626.2602505700006,None,626.2602505700006,None,628.7649533020003,None,628.7649533020003,None,0.866445568999552,630.5666821680006,None,630.5666821680006,None,6,1,1.0013953480001874,631.4196986380002,None,631.4196986380002,None,631.4196986380002,None,632.4378649830005,None,1,0.3842827230000694,632.4378649830005,None,46,632.8386673530003,None,128,A,1,2021_May_28_0926,GazeFlow,2020.1.2,59.86570864352556,
5,Block504.xls,A,4,8,86,26,21,incongruent,Right,Left,Right,72,77,5,yellow,2,6,/home/docky/apps/exp/images/72Yi.jpeg,/home/docky/apps/exp/images/77Y.jpeg,0,4,4,4,0,7,7,7,633.840511335,None,633.840511335,None,1,1.4200879360005274,633.840511335,None,635.285486498,None,635.285486498,None,637.7992127990001,None,637.7992127990001,None,0.8832698070000333,639.6013367840005,None,639.6013367840005,None,6,1,1.035059182000623,640.4706935410004,None,640.4706935410004,None,640.4706935410004,None,641.5222168260007,None,1,0.3008980590002466,641.5222168260007,None,48,641.8391795580001,None,128,A,1,2021_May_28_0926,GazeFlow,2020.1.2,59.86570864352556,
5,Block504.xls,A,,,,,,,,,,,,,,,,,,0,4,4,4,,,,,,,,,,,,,,,,,,,,,,,,,,,,,,,,,,,,,,,,,,,,128,A,1,2021_May_28_0926,GazeFlow,2020.1.2,59.86570864352556,
6,Block511.xls,A,11,1,15,15,11,congruent,Left,Left,Right,80,83,3,blue,2,6,/home/docky/apps/exp/images/80Bi.jpeg,/home/docky/apps/exp/images/83B.jpeg,0,5,5,5,0,0,0,0,661.3793614370006,None,661.3793614370006,None,1,4.165908196000601,661.3793614370006,None,665.5670791130005,None,665.5670791130005,None,668.091695563,None,668.091695563,None,0.9157913099998041,669.8936952399999,None,669.8936952399999,None,6,1,1.2352060310004163,670.7967058670001,None,670.7967058670001,None,670.7967058670001,None,672.048297452,None,1,0.33420864999970945,672.048297452,None,50,672.3989901360001,None,128,A,1,2021_May_28_0926,GazeFlow,2020.1.2,59.86570864352556,
6,Block511.xls,A,11,2,105,45,22,incongruent,Left,Right,Left,39,38,1,blue,2,5,/home/docky/apps/exp/images/39Bi.jpeg,/home/docky/apps/exp/images/38B.jpeg,0,5,5,5,0,1,1,1,673.4012609430001,None,673.4012609430001,None,1,2.57218389100035,673.4012609430001,None,676.0051976840004,None,676.0051976840004,None,678.5099022980003,None,678.5099022980003,None,0.799728337000488,680.3139424350002,None,680.3139424350002,None,5,1,1.0186488690005717,681.0998621750005,None,681.0998621750005,None,681.0998621750005,None,682.1345112839999,None,1,0.3510030569996161,682.1345112839999,None,52,682.5022929249999,None,128,A,1,2021_May_28_0926,GazeFlow,2020.1.2,59.86570864352556,
6,Block511.xls,A,11,3,68,8,21,incongruent,Right,Left,Right,38,39,1,blue,2,6,/home/docky/apps/exp/images/38B.jpeg,/home/docky/apps/exp/images/39Bi.jpeg,0,5,5,5,0,2,2,2,683.5043579190005,None,683.5043579190005,None,1,2.0715619000002334,683.5043579190005,None,685.6110285160003,None,685.6110285160003,None,688.1122354110003,None,688.1122354110003,None,1.0335328500004834,689.91620401,None,689.91620401,None,6,1,1.8205353900002592,690.9359632559999,None,690.9359632559999,None,690.9359632559999,None,692.772579384,None,1,1.3360467850006899,692.772579384,None,54,694.1246956650002,None,128,A,1,2021_May_28_0926,GazeFlow,2020.1.2,59.86570864352556,
6,Block511.xls,A,11,4,80,20,21,incongruent,Right,Left,Right,62,65,3,yellow,2,6,/home/docky/apps/exp/images/38Bi.jpeg,/home/docky/apps/exp/images/35B.jpeg,0,5,5,5,0,3,3,3,695.1272446090006,None,695.1272446090006,None,1,1.3360682649999944,695.1272446090006,None,696.4971086750002,None,696.4971086750002,None,699.0008691070007,None,699.0008691070007,None,0.8496232110001074,700.7987300720006,None,700.7987300720006,None,6,1,6.913909435000278,701.6401314519999,None,701.6401314519999,None,701.6401314519999,None,708.5701463400001,None,1,1.3527919680000196,708.5701463400001,None,56,709.939527945,None,128,A,1,2021_May_28_0926,GazeFlow,2020.1.2,59.86570864352556,
6,Block511.xls,A,11,5,5,5,11,congruent,Left,Left,Right,65,66,1,blue,2,6,/home/docky/apps/exp/images/35Yi.jpeg,/home/docky/apps/exp/images/66B.jpeg,0,5,5,5,0,4,4,4,710.9414409669998,None,710.9414409669998,None,1,2.6058128719996603,710.9414409669998,None,713.5804878180006,None,713.5804878180006,None,716.084054854,None,716.084054854,None,0.8163431639995906,717.8889120499998,None,717.8889120499998,None,6,1,0.9680423909994715,718.6901211820004,None,718.6901211820004,None,718.6901211820004,None,719.6745282820002,None,1,0.434288657000252,719.6745282820002,None,58,720.1256351290003,None,128,A,1,2021_May_28_0926,GazeFlow,2020.1.2,59.86570864352556,
6,Block511.xls,A,11,6,18,18,11,congruent,Left,Left,Right,65,66,1,yellow,2,6,/home/docky/apps/exp/images/35B.jpeg,/home/docky/apps/exp/images/66Yi.jpeg,0,5,5,5,0,5,5,5,721.1272457340001,None,721.1272457340001,None,1,2.388982122000016,721.1272457340001,None,723.5500964540006,None,723.5500964540006,None,726.053029398,None,726.053029398,None,0.8663247040003625,727.8565396459999,None,727.8565396459999,None,5,0,1.0516151850006281,728.7097453269998,None,728.7097453269998,None,728.7097453269998,None,729.7779585340004,None,1,0.5854415920002793,729.7779585340004,None,56,730.3794686110004,None,128,A,1,2021_May_28_0926,GazeFlow,2020.1.2,59.86570864352556,
6,Block511.xls,A,11,7,25,25,11,congruent,Left,Left,Right,69,75,6,yellow,2,6,/home/docky/apps/exp/images/69Yi.jpeg,/home/docky/apps/exp/images/76Y.jpeg,0,5,5,5,0,6,6,6,731.3818325040002,None,731.3818325040002,None,1,3.4065464639998027,731.3818325040002,None,734.8219757870002,None,734.8219757870002,None,737.3254434870005,None,737.3254434870005,None,0.9331474010004968,739.1290164520005,None,739.1290164520005,None,6,1,3.1223452140002337,740.048217089,None,740.048217089,None,740.048217089,None,743.1873200710006,None,1,1.5039537230004498,743.1873200710006,None,58,744.7073480690005,None,128,A,1,2021_May_28_0926,GazeFlow,2020.1.2,59.86570864352556,
6,Block511.xls,A,11,8,3,3,11,congruent,Left,Left,Right,35,38,3,blue,2,6,/home/docky/apps/exp/images/35Bi.jpeg,/home/docky/apps/exp/images/38B.jpeg,0,5,5,5,0,7,7,7,745.7093107970004,None,745.7093107970004,None,1,3.122767351999755,745.7093107970004,None,748.8661473270004,None,748.8661473270004,None,751.3688106469999,None,751.3688106469999,None,1.234041986000193,753.1722949000005,None,753.1722949000005,None,5,0,1.0512630729999728,754.3931985650006,None,754.3931985650006,None,754.3931985650006,None,755.4613728109998,None,1,0.5683278590004193,755.4613728109998,None,56,756.046103271,None,128,A,1,2021_May_28_0926,GazeFlow,2020.1.2,59.86570864352556,
6,Block511.xls,A,,,,,,,,,,,,,,,,,,0,5,5,5,,,,,,,,,,,,,,,,,,,,,,,,,,,,,,,,,,,,,,,,,,,,128,A,1,2021_May_28_0926,GazeFlow,2020.1.2,59.86570864352556,
7,Block508.xls,A,8,1,13,13,11,congruent,Left,Left,Right,76,79,3,blue,2,6,/home/docky/apps/exp/images/76Bi.jpeg,/home/docky/apps/exp/images/79B.jpeg,0,6,6,6,0,0,0,0,775.6848845230006,None,775.6848845230006,None,1,4.530103481999504,775.6848845230006,None,780.2499921640001,None,780.2499921640001,None,782.7654832830003,None,782.7654832830003,None,1.6674478140002975,784.5509349180002,None,784.5509349180002,None,6,1,0.8187227839998741,786.2051279920006,None,786.2051279920006,None,786.2051279920006,None,787.0400735339999,None,1,0.5178050570002597,787.0400735339999,None,58,787.5741480360002,None,128,A,1,2021_May_28_0926,GazeFlow,2020.1.2,59.86570864352556,
7,Block508.xls,A,8,2,21,21,11,congruent,Left,Left,Right,62,65,3,yellow,2,6,/home/docky/apps/exp/images/38B.jpeg,/home/docky/apps/exp/images/35Bi.jpeg,0,6,6,6,0,1,1,1,788.5758257540001,None,788.5758257540001,None,1,2.3558799339998586,788.5758257540001,None,790.9631628249999,None,790.9631628249999,None,793.4699325350002,None,793.4699325350002,None,0.783172590000504,795.2712368420007,None,795.2712368420007,None,5,0,0.9179846170000019,796.0411354360003,None,796.0411354360003,None,796.0411354360003,None,796.9755175380005,None,1,0.45111623799948575,796.9755175380005,None,56,797.4429897650007,None,128,A,1,2021_May_28_0926,GazeFlow,2020.1.2,59.86570864352556,
7,Block508.xls,A,8,3,99,39,22,incongruent,Left,Right,Left,79,76,3,blue,2,5,/home/docky/apps/exp/images/79Bi.jpeg,/home/docky/apps/exp/images/76B.jpeg,0,6,6,6,0,2,2,2,798.4451131300002,None,798.4451131300002,None,1,6.062384724999902,798.4451131300002,None,804.5412705540002,None,804.5412705540002,None,807.044463098,None,807.044463098,None,1.067136097999537,808.8461395290005,None,808.8461395290005,None,5,1,1.4362471099993854,809.9014348340006,None,809.9014348340006,None,809.9014348340006,None,811.3542402080002,None,1,0.4013091240003632,811.3542402080002,None,58,811.7716961310007,None,128,A,1,2021_May_28_0926,GazeFlow,2020.1.2,59.86570864352556,
7,Block508.xls,A,8,4,37,37,12,congruent,Right,Right,Left,66,65,1,blue,2,5,/home/docky/apps/exp/images/66Bi.jpeg,/home/docky/apps/exp/images/35Y.jpeg,0,6,6,6,0,3,3,3,812.7731450870006,None,812.7731450870006,None,1,5.261537125999894,812.7731450870006,None,818.0677244890003,None,818.0677244890003,None,820.5737874550005,None,820.5737874550005,None,1.935137630999634,822.3747258990006,None,822.3747258990006,None,6,0,0.8518153690001782,824.2963255410004,None,824.2963255410004,None,824.2963255410004,None,825.1645167380002,None,1,0.4006361800002196,825.1645167380002,None,56,825.5813740439999,None,128,A,1,2021_May_28_0926,GazeFlow,2020.1.2,59.86570864352556,
7,Block508.xls,A,8,5,82,22,21,incongruent,Right,Left,Right,38,39,1,yellow,2,6,/home/docky/apps/exp/images/38Y.jpeg,/home/docky/apps/exp/images/39Yi.jpeg,0,6,6,6,0,4,4,4,826.583355232,None,826.583355232,None,1,3.5240843709998444,826.583355232,None,830.1400546510004,None,830.1400546510004,None,832.644916538,None,832.644916538,None,0.8831904569997278,834.4476705140005,None,834.4476705140005,None,6,1,0.8848120110005766,835.3177121280005,None,835.3177121280005,None,835.3177121280005,None,836.2188827330001,None,1,0.48440037599993957,836.2188827330001,None,58,836.7202323920001,None,128,A,1,2021_May_28_0926,GazeFlow,2020.1.2,59.86570864352556,
7,Block508.xls,A,8,6,104,44,22,incongruent,Left,Right,Left,39,38,1,blue,2,5,/home/docky/apps/exp/images/39B.jpeg,/home/docky/apps/exp/images/38Bi.jpeg,0,6,6,6,0,5,5,5,837.7219567410002,None,837.7219567410002,None,1,2.9735767639995174,837.7219567410002,None,840.7292219540004,None,840.7292219540004,None,843.2338205780006,None,843.2338205780006,None,0.9668531240004086,845.0354416629998,None,845.0354416629998,None,6,0,0.9846462199993766,845.9889387410003,None,845.9889387410003,None,845.9889387410003,None,846.9899034150003,None,1,0.5017177330000777,846.9899034150003,None,56,847.5079126549999,None,128,A,1,2021_May_28_0926,GazeFlow,2020.1.2,59.86570864352556,
7,Block508.xls,A,8,7,39,39,12,congruent,Right,Right,Left,79,73,6,blue,2,5,/home/docky/apps/exp/images/79B.jpeg,/home/docky/apps/exp/images/73Bi.jpeg,0,6,6,6,0,6,6,6,848.509595906,None,848.509595906,None,1,2.9069642619997467,848.509595906,None,851.4500808530001,None,851.4500808530001,None,853.9546803540006,None,853.9546803540006,None,0.7999303010001313,855.7508800240003,None,855.7508800240003,None,5,1,1.018235853999613,856.5425228020003,None,856.5425228020003,None,856.5425228020003,None,857.577296085,None,1,0.3676421419995677,857.577296085,None,58,857.9617107290005,None,128,A,1,2021_May_28_0926,GazeFlow,2020.1.2,59.86570864352556,
7,Block508.xls,A,8,8,36,36,12,congruent,Right,Right,Left,66,65,1,blue,2,5,/home/docky/apps/exp/images/66B.jpeg,/home/docky/apps/exp/images/35Yi.jpeg,0,6,6,6,0,7,7,7,858.9633503340001,None,858.9633503340001,None,1,5.244258093000099,858.9633503340001,None,864.2412624220005,None,864.2412624220005,None,866.7427554690003,None,866.7427554690003,None,1.2673608260001856,868.5470471160006,None,868.5470471160006,None,5,1,1.102169849999882,869.8017463650003,None,869.8017463650003,None,869.8017463650003,None,870.9204829520004,None,1,1.4689638659992852,870.9204829520004,None,60,872.4063324899998,None,128,A,1,2021_May_28_0926,GazeFlow,2020.1.2,59.86570864352556,
7,Block508.xls,A,,,,,,,,,,,,,,,,,,0,6,6,6,,,,,,,,,,,,,,,,,,,,,,,,,,,,,,,,,,,,,,,,,,,,128,A,1,2021_May_28_0926,GazeFlow,2020.1.2,59.86570864352556,
8,Block510.xls,A,10,1,102,42,22,incongruent,Left,Right,Left,83,80,3,blue,2,5,/home/docky/apps/exp/images/83B.jpeg,/home/docky/apps/exp/images/80Bi.jpeg,0,7,7,7,0,0,0,0,892.262725783,None,892.262725783,None,1,6.521649406000506,892.262725783,None,898.8111703190007,None,898.8111703190007,None,901.3307066260004,None,901.3307066260004,None,1.0331996310005707,903.1340764070001,None,903.1340764070001,None,5,1,1.0014125780007817,904.1522147149999,None,904.1522147149999,None,904.1522147149999,None,905.1701668060005,None,1,0.3346842340006333,905.1701668060005,None,62,905.5212371910002,None,128,A,1,2021_May_28_0926,GazeFlow,2020.1.2,59.86570864352556,
8,Block510.xls,A,10,2,114,54,22,incongruent,Left,Right,Left,76,69,7,yellow,2,5,/home/docky/apps/exp/images/76Yi.jpeg,/home/docky/apps/exp/images/69Y.jpeg,0,7,7,7,0,1,1,1,906.5230518130002,None,906.5230518130002,None,1,3.423936853999294,906.5230518130002,None,909.9808716010002,None,909.9808716010002,None,912.486117896,None,912.486117896,None,0.8499753440000859,914.2868136020006,None,914.2868136020006,None,5,1,2.4707257350000873,915.1238256910001,None,915.1238256910001,None,915.1238256910001,None,917.611152042,None,1,1.5207521539996378,917.611152042,None,64,919.1480028430005,None,128,A,1,2021_May_28_0926,GazeFlow,2020.1.2,59.86570864352556,
8,Block510.xls,A,10,3,72,12,21,incongruent,Right,Left,Right,76,79,3,blue,2,6,/home/docky/apps/exp/images/76Bi.jpeg,/home/docky/apps/exp/images/79B.jpeg,0,7,7,7,0,2,2,2,920.1499726380007,None,920.1499726380007,None,1,2.872530419999748,920.1499726380007,None,923.056358365,None,923.056358365,None,925.5594815680006,None,925.5594815680006,None,1.0673029070003395,927.362093701,None,927.362093701,None,6,1,1.0179306090003593,928.4163855380002,None,928.4163855380002,None,928.4163855380002,None,929.4510286550003,None,1,0.5350885750003727,929.4510286550003,None,66,930.0025522550004,None,128,A,1,2021_May_28_0926,GazeFlow,2020.1.2,59.86570864352556,
8,Block510.xls,A,10,4,112,52,22,incongruent,Left,Right,Left,75,69,6,yellow,2,5,/home/docky/apps/exp/images/76Y.jpeg,/home/docky/apps/exp/images/69Yi.jpeg,0,7,7,7,0,3,3,3,931.0041527700005,None,931.0041527700005,None,1,2.4387060950002706,931.0041527700005,None,933.4766651170003,None,933.4766651170003,None,935.9815525530003,None,935.9815525530003,None,1.4846695109999928,937.77848464,None,937.77848464,None,5,1,1.1190023149993067,939.2540187559998,None,939.2540187559998,None,939.2540187559998,None,940.3894267820006,None,1,0.46705632799967134,940.3894267820006,None,68,940.8734379750003,None,128,A,1,2021_May_28_0926,GazeFlow,2020.1.2,59.86570864352556,
8,Block510.xls,A,10,5,17,17,11,congruent,Left,Left,Right,33,35,2,yellow,2,6,/home/docky/apps/exp/images/33Y.jpeg,/home/docky/apps/exp/images/35Yi.jpeg,0,7,7,7,0,4,4,4,941.8751927530002,None,941.8751927530002,None,1,3.8249941949998174,941.8751927530002,None,945.7324975500005,None,945.7324975500005,None,948.236720502,None,948.236720502,None,1.0502773179996439,950.0406974260004,None,950.0406974260004,None,6,1,0.8513332040001842,951.0771927000005,None,951.0771927000005,None,951.0771927000005,None,951.9451013050002,None,1,0.3840061679993596,951.9451013050002,None,70,952.3458025179998,None,128,A,1,2021_May_28_0926,GazeFlow,2020.1.2,59.86570864352556,
8,Block510.xls,A,10,6,31,31,12,congruent,Right,Right,Left,19,16,3,blue,2,5,/home/docky/apps/exp/images/19Bi.jpeg,/home/docky/apps/exp/images/16B.jpeg,0,7,7,7,0,5,5,5,953.3476868550006,None,953.3476868550006,None,1,2.3724365069992928,953.3476868550006,None,955.7534623830006,None,955.7534623830006,None,958.2583529980002,None,958.2583529980002,None,0.8667342730004748,960.0598852940002,None,960.0598852940002,None,5,1,0.8510696969997298,960.9130893700003,None,960.9130893700003,None,960.9130893700003,None,961.7808307650002,None,1,0.3507486839998819,961.7808307650002,None,72,962.1482723839999,None,128,A,1,2021_May_28_0926,GazeFlow,2020.1.2,59.86570864352556,
8,Block510.xls,A,10,7,61,1,21,incongruent,Right,Left,Right,16,19,3,blue,2,6,/home/docky/apps/exp/images/16Bi.jpeg,/home/docky/apps/exp/images/19B.jpeg,0,7,7,7,0,6,6,6,963.1502604070001,None,963.1502604070001,None,1,3.524118652000652,963.1502604070001,None,966.7080438660005,None,966.7080438660005,None,969.2132438690005,None,969.2132438690005,None,0.06546140600039507,971.016751655,None,971.016751655,None,6,1,3.7824797709999984,971.0745877740001,None,971.0745877740001,None,971.0745877740001,None,974.8734796360004,None,1,1.5035856869999407,974.8734796360004,None,74,976.3931694210005,None,128,A,1,2021_May_28_0926,GazeFlow,2020.1.2,59.86570864352556,
8,Block510.xls,A,10,8,94,34,22,incongruent,Left,Right,Left,38,35,3,blue,2,5,/home/docky/apps/exp/images/38Bi.jpeg,/home/docky/apps/exp/images/35B.jpeg,0,7,7,7,0,7,7,7,977.395137171,None,977.395137171,None,1,5.9624776340006065,977.395137171,None,983.3967055890007,None,983.3967055890007,None,985.8930779230004,None,985.8930779230004,None,1.8185121930000605,987.6914470040001,None,987.6914470040001,None,5,1,1.2684697639997466,989.5024062720004,None,989.5024062720004,None,989.5024062720004,None,990.7872123430006,None,1,0.5180947329999981,990.7872123430006,None,76,991.3220513330007,None,128,A,1,2021_May_28_0926,GazeFlow,2020.1.2,59.86570864352556,
8,Block510.xls,A,,,,,,,,,,,,,,,,,,0,7,7,7,,,,,,,,,,,,,,,,,,,,,,,,,,,,,,,,,,,,,,,,,,,,128,A,1,2021_May_28_0926,GazeFlow,2020.1.2,59.86570864352556,
9,Block507.xls,A,7,1,110,50,22,incongruent,Left,Right,Left,66,65,1,yellow,2,5,/home/docky/apps/exp/images/66Y.jpeg,/home/docky/apps/exp/images/35Bi.jpeg,0,8,8,8,0,0,0,0,1046.8620258,None,1046.8620258,None,1,7.200413546999698,1046.8620258,None,1054.0888256920007,None,1054.0888256920007,None,1056.6137381100007,None,1056.6137381100007,None,3.170953599999848,1058.398717266,None,1058.398717266,None,6,0,7.129964097999618,1061.573319434,None,1061.573319434,None,1061.573319434,None,1068.719474396,None,1,0.6851863399997455,1068.719474396,None,74,1069.420848238,None,128,A,1,2021_May_28_0926,GazeFlow,2020.1.2,59.86570864352556,
