Nblock,condsFile,grouping,Block,TrialBlock,N,trialN,trialCond,gazeCon,gazedirR,corrBinR,corrBinP,valLBY,valRBY,diff,colorCube,feedbacktext,corrAns,imageL,imageR,SelBlocks.thisRepN,SelBlocks.thisTrialN,SelBlocks.thisN,SelBlocks.thisIndex,Trials.thisRepN,Trials.thisTrialN,Trials.thisN,Trials.thisIndex,waitCube.started,waitCube.stopped,text_3.started,text_3.stopped,StartKeyPress.keys,StartKeyPress.rt,StartKeyPress.started,StartKeyPress.stopped,StimL.started,StimL.stopped,StimR.started,StimR.stopped,imageStim2L.started,imageStim2L.stopped,imageStim2R.started,imageStim2R.stopped,RTkeyRelease,imageStim3L.started,imageStim3L.stopped,imageStim3R.started,imageStim3R.stopped,dropResp.keys,dropResp.corr,dropResp.rt,dropResp.started,dropResp.stopped,imageStim5L.started,imageStim5L.stopped,imageStim5R.started,imageStim5R.stopped,text_2.started,text_2.stopped,ReturnSpace.keys,ReturnSpace.rt,ReturnSpace.started,ReturnSpace.stopped,totalpoints,textFeedback.started,textFeedback.stopped,participant,group,session,date,expName,psychopyVersion,frameRate,
1,Block502.xls,A,2,1,93,33,22,incongruent,Left,Right,Left,38,35,3,blue,2,5,/home/docky/apps/exp/images/38B.jpeg,/home/docky/apps/exp/images/35Bi.jpeg,0,0,0,0,0,0,0,0,25.255694772000425,None,25.255694772000425,None,1,5.252611182999317,25.255694772000425,None,30.53591984599916,None,30.53591984599916,None,33.05656458299927,None,33.05656458299927,None,2.1348685960001603,34.8588651150003,None,34.8588651150003,None,5,1,1.1686267250006495,36.977735360000224,None,36.977735360000224,None,36.977735360000224,None,38.162542431000475,None,1,0.6348549529993761,38.162542431000475,None,2,38.814089822000824,None,129,A,1,2021_May_28_1112,GazeFlow,2020.1.2,59.925088605628,
1,Block502.xls,A,2,2,42,42,12,congruent,Right,Right,Left,83,80,3,blue,2,5,/home/docky/apps/exp/images/83Bi.jpeg,/home/docky/apps/exp/images/80B.jpeg,0,0,0,0,0,1,1,1,39.81624341499992,None,39.81624341499992,None,1,11.539827091999541,39.81624341499992,None,51.38956654100002,None,51.38956654100002,None,53.892719494999255,None,53.892719494999255,None,0.9667385730008391,55.69066988600025,None,55.69066988600025,None,5,1,0.9350220469987107,56.6490937260005,None,56.6490937260005,None,56.6490937260005,None,57.60038015399914,None,1,0.4515980790001777,57.60038015399914,None,4,58.06834925700059,None,129,A,1,2021_May_28_1112,GazeFlow,2020.1.2,59.925088605628,
1,Block502.xls,A,2,3,9,9,11,congruent,Left,Left,Right,38,39,1,blue,2,6,/home/docky/apps/exp/images/38Bi.jpeg,/home/docky/apps/exp/images/39B.jpeg,0,0,0,0,0,2,2,2,59.06991370799915,None,59.06991370799915,None,1,2.839936255999419,59.06991370799915,None,61.943878714000675,None,61.943878714000675,None,64.44820138199975,None,64.44820138199975,None,1.3175735149998218,66.2501043909997,None,66.2501043909997,None,6,1,0.8176609570000437,67.55383058299958,None,67.55383058299958,None,67.55383058299958,None,68.38832200499928,None,1,0.41793195699938224,68.38832200499928,None,6,68.82269409100081,None,129,A,1,2021_May_28_1112,GazeFlow,2020.1.2,59.925088605628,
1,Block502.xls,A,2,4,23,23,11,congruent,Left,Left,Right,38,39,1,yellow,2,6,/home/docky/apps/exp/images/38Yi.jpeg,/home/docky/apps/exp/images/39Y.jpeg,0,0,0,0,0,3,3,3,69.82418394500019,None,69.82418394500019,None,1,3.0904910579993157,69.82418394500019,None,72.94799120599964,None,72.94799120599964,None,75.45273747200008,None,75.45273747200008,None,0.7329860729987558,77.25455707100082,None,77.25455707100082,None,6,1,0.9176408799994533,77.9740986830002,None,77.9740986830002,None,77.9740986830002,None,78.90842971100028,None,1,0.38407680300042557,78.90842971100028,None,8,79.30931165500078,None,129,A,1,2021_May_28_1112,GazeFlow,2020.1.2,59.925088605628,
1,Block502.xls,A,2,5,57,57,12,congruent,Right,Right,Left,77,72,5,yellow,2,5,/home/docky/apps/exp/images/77Y.jpeg,/home/docky/apps/exp/images/72Yi.jpeg,0,0,0,0,0,4,4,4,80.31130466499962,None,80.31130466499962,None,1,2.288892697000847,80.31130466499962,None,82.63337661399964,None,82.63337661399964,None,85.13685806899957,None,85.13685806899957,None,0.716509091998887,86.94171512200046,None,86.94171512200046,None,5,1,1.0348414080017392,87.64277618000051,None,87.64277618000051,None,87.64277618000051,None,88.69413562999944,None,1,0.5685016280003765,88.69413562999944,None,10,89.27894750000087,None,129,A,1,2021_May_28_1112,GazeFlow,2020.1.2,59.925088605628,
1,Block502.xls,A,2,6,118,58,22,incongruent,Left,Right,Left,80,79,1,yellow,2,5,/home/docky/apps/exp/images/80Yi.jpeg,/home/docky/apps/exp/images/79Y.jpeg,0,0,0,0,0,5,5,5,90.28037958200002,None,90.28037958200002,None,1,3.4741771320004773,90.28037958200002,None,93.78893732100005,None,93.78893732100005,None,96.29331450099926,None,96.29331450099926,None,0.783261886001128,98.09526969900071,None,98.09526969900071,None,5,1,0.9008827350007778,98.8645869310003,None,98.8645869310003,None,98.8645869310003,None,99.78226560599978,None,1,0.4676276840000355,99.78226560599978,None,12,100.26679372999934,None,129,A,1,2021_May_28_1112,GazeFlow,2020.1.2,59.925088605628,
1,Block502.xls,A,2,7,101,41,22,incongruent,Left,Right,Left,83,80,3,blue,2,5,/home/docky/apps/exp/images/83Bi.jpeg,/home/docky/apps/exp/images/80B.jpeg,0,0,0,0,0,6,6,6,101.26847903499947,None,101.26847903499947,None,1,2.573107913000058,101.26847903499947,None,103.87632686300094,None,103.87632686300094,None,106.37799665900093,None,106.37799665900093,None,1.0167710780006018,108.18153769899982,None,108.18153769899982,None,5,1,0.9014022680003109,109.18447138199917,None,109.18447138199917,None,109.18447138199917,None,110.10405639000055,None,1,0.46699851599987596,110.10405639000055,None,14,110.58717032899949,None,129,A,1,2021_May_28_1112,GazeFlow,2020.1.2,59.925088605628,
1,Block502.xls,A,2,8,69,9,21,incongruent,Right,Left,Right,73,76,3,blue,2,6,/home/docky/apps/exp/images/73B.jpeg,/home/docky/apps/exp/images/76Bi.jpeg,0,0,0,0,0,7,7,7,111.58873161699921,None,111.58873161699921,None,1,3.1568244179998146,111.58873161699921,None,114.77897944200049,None,114.77897944200049,None,117.28410316500049,None,117.28410316500049,None,0.7159096830000635,119.08630744400034,None,119.08630744400034,None,6,1,0.8175672980014497,119.78859381999973,None,119.78859381999973,None,119.78859381999973,None,120.6228835790007,None,1,0.25064585899963276,120.6228835790007,None,16,120.8899399969996,None,129,A,1,2021_May_28_1112,GazeFlow,2020.1.2,59.925088605628,
1,Block502.xls,A,,,,,,,,,,,,,,,,,,0,0,0,0,,,,,,,,,,,,,,,,,,,,,,,,,,,,,,,,,,,,,,,,,,,,129,A,1,2021_May_28_1112,GazeFlow,2020.1.2,59.925088605628,
2,Block506.xls,A,6,1,120,60,22,incongruent,Left,Right,Left,80,79,1,yellow,2,5,/home/docky/apps/exp/images/80Yi.jpeg,/home/docky/apps/exp/images/79Y.jpeg,0,1,1,1,0,0,0,0,142.05061499899966,None,142.05061499899966,None,1,6.498541607999869,142.05061499899966,None,148.57600995900066,None,148.57600995900066,None,151.09998701400036,None,151.09998701400036,None,2.419204064000951,152.90204801000073,None,152.90204801000073,None,5,1,1.8456079280003905,155.3152032979997,None,155.3152032979997,None,155.3152032979997,None,157.17718712200076,None,1,1.1030218910000258,157.17718712200076,None,18,158.29645845999949,None,129,A,1,2021_May_28_1112,GazeFlow,2020.1.2,59.925088605628,
2,Block506.xls,A,6,2,51,51,12,congruent,Right,Right,Left,66,65,1,yellow,2,5,/home/docky/apps/exp/images/66Y.jpeg,/home/docky/apps/exp/images/35Bi.jpeg,0,1,1,1,0,1,1,1,159.29823330100044,None,159.29823330100044,None,1,4.4759961269992345,159.29823330100044,None,163.80831804300033,None,163.80831804300033,None,166.3126269860004,None,166.3126269860004,None,1.7181070249989716,168.11427293700035,None,168.11427293700035,None,5,1,9.201183040000615,169.81910392600003,None,169.81910392600003,None,169.81910392600003,None,179.0367847310008,None,1,0.7851434570002311,179.0367847310008,None,20,179.83835175000058,None,129,A,1,2021_May_28_1112,GazeFlow,2020.1.2,59.925088605628,
2,Block506.xls,A,6,3,119,59,22,incongruent,Left,Right,Left,80,79,1,yellow,2,5,/home/docky/apps/exp/images/80Y.jpeg,/home/docky/apps/exp/images/79Yi.jpeg,0,1,1,1,0,2,2,2,180.8403004819993,None,180.8403004819993,None,1,2.8061625020000065,180.8403004819993,None,183.68003300800046,None,183.68003300800046,None,186.18472941099935,None,186.18472941099935,None,0.7997760109992669,187.9868387589995,None,187.9868387589995,None,5,1,0.9179923960000451,188.77272336399983,None,188.77272336399983,None,188.77272336399983,None,189.70730367000033,None,1,0.4682187390008039,189.70730367000033,None,22,190.19126878399948,None,129,A,1,2021_May_28_1112,GazeFlow,2020.1.2,59.925088605628,
2,Block506.xls,A,6,4,28,28,11,congruent,Left,Left,Right,72,77,5,yellow,2,6,/home/docky/apps/exp/images/72Y.jpeg,/home/docky/apps/exp/images/77Yi.jpeg,0,1,1,1,0,3,3,3,191.1934642310007,None,191.1934642310007,None,1,1.9218694869996398,191.1934642310007,None,193.1481099320008,None,193.1481099320008,None,195.65323377099958,None,195.65323377099958,None,0.9334295699991344,197.45507657599956,None,197.45507657599956,None,6,1,0.8176305360011611,198.37456186300005,None,198.37456186300005,None,198.37456186300005,None,199.20893058600086,None,1,0.35078427200096485,199.20893058600086,None,24,199.5762839859999,None,129,A,1,2021_May_28_1112,GazeFlow,2020.1.2,59.925088605628,
2,Block506.xls,A,6,5,85,25,21,incongruent,Right,Left,Right,69,75,6,yellow,2,6,/home/docky/apps/exp/images/69Y.jpeg,/home/docky/apps/exp/images/76Yi.jpeg,0,1,1,1,0,4,4,4,200.57845411800008,None,200.57845411800008,None,1,1.7708803989989974,200.57845411800008,None,202.38302968099924,None,202.38302968099924,None,204.8853955300001,None,204.8853955300001,None,0.9836312210009055,206.68444248800006,None,206.68444248800006,None,6,1,3.088890111001092,207.65922864000095,None,207.65922864000095,None,207.65922864000095,None,210.7645953880001,None,1,0.685475532000055,210.7645953880001,None,26,211.46654982700056,None,129,A,1,2021_May_28_1112,GazeFlow,2020.1.2,59.925088605628,
2,Block506.xls,A,6,6,71,11,21,incongruent,Right,Left,Right,76,79,3,blue,2,6,/home/docky/apps/exp/images/76B.jpeg,/home/docky/apps/exp/images/79Bi.jpeg,0,1,1,1,0,5,5,5,212.46844327299914,None,212.46844327299914,None,1,2.722055713998998,212.46844327299914,None,215.22454146900054,None,215.22454146900054,None,217.7329467260006,None,217.7329467260006,None,1.0168225720008195,219.53133999199963,None,219.53133999199963,None,6,1,0.9347000799989473,220.53418290300033,None,220.53418290300033,None,220.53418290300033,None,221.48577802900036,None,1,0.6352133760010474,221.48577802900036,None,28,222.13722439999947,None,129,A,1,2021_May_28_1112,GazeFlow,2020.1.2,59.925088605628,
2,Block506.xls,A,6,7,56,56,12,congruent,Right,Right,Left,76,69,7,yellow,2,5,/home/docky/apps/exp/images/76Yi.jpeg,/home/docky/apps/exp/images/69Y.jpeg,0,1,1,1,0,6,6,6,223.13893651599938,None,223.13893651599938,None,1,2.6556842330010113,223.13893651599938,None,225.8282356159998,None,225.8282356159998,None,228.33583146599995,None,228.33583146599995,None,0.7662391320009192,230.13666906800063,None,230.13666906800063,None,5,1,0.9347236149988021,230.8875128189993,None,230.8875128189993,None,230.8875128189993,None,231.83903819400075,None,1,0.7353265550009382,231.83903819400075,None,30,232.5908810639994,None,129,A,1,2021_May_28_1112,GazeFlow,2020.1.2,59.925088605628,
2,Block506.xls,A,6,8,33,33,12,congruent,Right,Right,Left,38,35,3,blue,2,5,/home/docky/apps/exp/images/38B.jpeg,/home/docky/apps/exp/images/35Bi.jpeg,0,1,1,1,0,7,7,7,233.5924064589999,None,233.5924064589999,None,1,1.5871153420011979,233.5924064589999,None,235.21313046499927,None,235.21313046499927,None,237.7183034110003,None,237.7183034110003,None,1.0834366979997867,239.51993737699922,None,239.51993737699922,None,5,1,1.4693537450002623,240.5900713989995,None,240.5900713989995,None,240.5900713989995,None,242.07547357899966,None,1,0.584509653999703,242.07547357899966,None,32,242.67662487900088,None,129,A,1,2021_May_28_1112,GazeFlow,2020.1.2,59.925088605628,
2,Block506.xls,A,,,,,,,,,,,,,,,,,,0,1,1,1,,,,,,,,,,,,,,,,,,,,,,,,,,,,,,,,,,,,,,,,,,,,129,A,1,2021_May_28_1112,GazeFlow,2020.1.2,59.925088605628,
3,Block505.xls,A,5,1,1,1,11,congruent,Left,Left,Right,16,19,3,blue,2,6,/home/docky/apps/exp/images/16Bi.jpeg,/home/docky/apps/exp/images/19B.jpeg,0,2,2,2,0,0,0,0,264.9889158090009,None,264.9889158090009,None,1,4.2985490020000725,264.9889158090009,None,269.3090007989995,None,269.3090007989995,None,271.83457688700037,None,271.83457688700037,None,0.8657675700014806,273.63178764199984,None,273.63178764199984,None,6,1,0.7842396730011387,274.48925754000084,None,274.48925754000084,None,274.48925754000084,None,275.2901053639998,None,1,0.5512020740006847,275.2901053639998,None,34,275.85796191699956,None,129,A,1,2021_May_28_1112,GazeFlow,2020.1.2,59.925088605628,
3,Block505.xls,A,5,2,10,10,11,congruent,Left,Left,Right,73,76,3,blue,2,6,/home/docky/apps/exp/images/73B.jpeg,/home/docky/apps/exp/images/76Bi.jpeg,0,2,2,2,0,1,1,1,276.85976615099935,None,276.85976615099935,None,1,1.6878344079996168,276.85976615099935,None,278.5809379359998,None,278.5809379359998,None,281.0858124210008,None,281.0858124210008,None,0.7828530499991757,282.88760661800006,None,282.88760661800006,None,6,1,0.8010394329994597,283.6569719880008,None,283.6569719880008,None,283.6569719880008,None,284.47468488400045,None,1,0.3678461340005015,284.47468488400045,None,36,284.85834478200013,None,129,A,1,2021_May_28_1112,GazeFlow,2020.1.2,59.925088605628,
3,Block505.xls,A,5,3,95,35,22,incongruent,Left,Right,Left,66,65,1,blue,2,5,/home/docky/apps/exp/images/66B.jpeg,/home/docky/apps/exp/images/35Yi.jpeg,0,2,2,2,0,2,2,2,285.8605262830006,None,285.8605262830006,None,1,2.989961659999608,285.8605262830006,None,288.88425381699926,None,288.88425381699926,None,291.38916753100057,None,291.38916753100057,None,0.8667877530006081,293.19060602399986,None,293.19060602399986,None,5,1,0.8343363429994497,294.0438776579995,None,294.0438776579995,None,294.0438776579995,None,294.8950920879997,None,1,0.4506682560004265,294.8950920879997,None,38,295.36245021600007,None,129,A,1,2021_May_28_1112,GazeFlow,2020.1.2,59.925088605628,
3,Block505.xls,A,5,4,46,46,12,congruent,Right,Right,Left,35,33,2,yellow,2,5,/home/docky/apps/exp/images/35Yi.jpeg,/home/docky/apps/exp/images/33Y.jpeg,0,2,2,2,0,3,3,3,296.3643748209997,None,296.3643748209997,None,1,1.9716768010002852,296.3643748209997,None,298.36948795399985,None,298.36948795399985,None,300.8742275980003,None,300.8742275980003,None,0.7832831439991423,302.670694507,None,302.670694507,None,5,1,0.8010845449989574,303.44551139299983,None,303.44551139299983,None,303.44551139299983,None,304.2629785530007,None,1,0.43437424800140434,304.2629785530007,None,40,304.71417388400005,None,129,A,1,2021_May_28_1112,GazeFlow,2020.1.2,59.925088605628,
3,Block505.xls,A,5,5,78,18,21,incongruent,Right,Left,Right,65,66,1,yellow,2,6,/home/docky/apps/exp/images/35Bi.jpeg,/home/docky/apps/exp/images/66Y.jpeg,0,2,2,2,0,4,4,4,305.7158807830001,None,305.7158807830001,None,1,1.9880576399991696,305.7158807830001,None,307.7373663849994,None,307.7373663849994,None,310.2408144689998,None,310.2408144689998,None,0.7496805529990525,312.0459863190008,None,312.0459863190008,None,6,1,0.8009205480011587,312.7803378469998,None,312.7803378469998,None,312.7803378469998,None,313.59783699699983,None,1,0.3675483829993027,313.59783699699983,None,42,313.98186181500023,None,129,A,1,2021_May_28_1112,GazeFlow,2020.1.2,59.925088605628,
3,Block505.xls,A,5,6,43,43,12,congruent,Right,Right,Left,83,80,3,blue,2,5,/home/docky/apps/exp/images/83B.jpeg,/home/docky/apps/exp/images/80Bi.jpeg,0,2,2,2,0,5,5,5,314.98391652600003,None,314.98391652600003,None,1,1.9378106280000793,314.98391652600003,None,316.95565858900045,None,316.95565858900045,None,319.4603689840005,None,319.4603689840005,None,0.7827835859989136,321.2619818790008,None,321.2619818790008,None,5,1,0.9181637389992829,322.0313126100009,None,322.0313126100009,None,322.0313126100009,None,322.9658236310006,None,1,0.5179267100011202,322.9658236310006,None,44,323.5005259520003,None,129,A,1,2021_May_28_1112,GazeFlow,2020.1.2,59.925088605628,
3,Block505.xls,A,5,7,44,44,12,congruent,Right,Right,Left,39,38,1,blue,2,5,/home/docky/apps/exp/images/39Bi.jpeg,/home/docky/apps/exp/images/38B.jpeg,0,2,2,2,0,6,6,6,324.5024032849997,None,324.5024032849997,None,1,2.655849417000354,324.5024032849997,None,327.19208972600063,None,327.19208972600063,None,329.6951784369994,None,329.6951784369994,None,0.832905256000231,331.4980591120002,None,331.4980591120002,None,5,1,0.8011685149995174,332.3180652629999,None,332.3180652629999,None,332.3180652629999,None,333.13567701099964,None,1,0.46786786899974686,333.13567701099964,None,46,333.6202051220007,None,129,A,1,2021_May_28_1112,GazeFlow,2020.1.2,59.925088605628,
3,Block505.xls,A,5,8,116,56,22,incongruent,Left,Right,Left,77,72,5,yellow,2,5,/home/docky/apps/exp/images/77Y.jpeg,/home/docky/apps/exp/images/72Y.jpeg,0,2,2,2,0,7,7,7,334.6220026890005,None,334.6220026890005,None,1,2.4221233450007276,334.6220026890005,None,337.0776182160007,None,337.0776182160007,None,339.58033040699956,None,339.58033040699956,None,0.6829739920012798,341.38397278900084,None,341.38397278900084,None,5,1,0.8512170009998954,342.0538880010008,None,342.0538880010008,None,342.0538880010008,None,342.92148742599966,None,1,0.4508142089998728,342.92148742599966,None,48,343.38910628600024,None,129,A,1,2021_May_28_1112,GazeFlow,2020.1.2,59.925088605628,
3,Block505.xls,A,,,,,,,,,,,,,,,,,,0,2,2,2,,,,,,,,,,,,,,,,,,,,,,,,,,,,,,,,,,,,,,,,,,,,129,A,1,2021_May_28_1112,GazeFlow,2020.1.2,59.925088605628,
4,Block509.xls,A,9,1,34,34,12,congruent,Right,Right,Left,38,35,3,blue,2,5,/home/docky/apps/exp/images/38Bi.jpeg,/home/docky/apps/exp/images/35B.jpeg,0,3,3,3,0,0,0,0,365.6511654370006,None,365.6511654370006,None,1,3.9738952099996823,365.6511654370006,None,369.6510457690001,None,369.6510457690001,None,372.17964188599944,None,372.17964188599944,None,1.0999068910005008,373.96484446499926,None,373.96484446499926,None,5,1,0.8178065539996169,375.05116280400034,None,375.05116280400034,None,375.05116280400034,None,375.8854515380008,None,1,0.4851962939992518,375.8854515380008,None,50,376.3869173969997,None,129,A,1,2021_May_28_1112,GazeFlow,2020.1.2,59.925088605628,
4,Block509.xls,A,9,2,7,7,11,congruent,Left,Left,Right,65,66,1,blue,2,6,/home/docky/apps/exp/images/35Yi.jpeg,/home/docky/apps/exp/images/66B.jpeg,0,3,3,3,0,1,1,1,377.3884995009994,None,377.3884995009994,None,1,1.8041777660000662,377.3884995009994,None,379.2263059430006,None,379.2263059430006,None,381.73257909099993,None,381.73257909099993,None,1.0168581670004642,383.53215214400007,None,383.53215214400007,None,6,1,0.7844547189997684,384.53643330200066,None,384.53643330200066,None,384.53643330200066,None,385.3371874860004,None,1,0.5516634579998936,385.3371874860004,None,52,385.90545969699997,None,129,A,1,2021_May_28_1112,GazeFlow,2020.1.2,59.925088605628,
4,Block509.xls,A,9,3,74,14,21,incongruent,Right,Left,Right,80,83,3,blue,2,6,/home/docky/apps/exp/images/80B.jpeg,/home/docky/apps/exp/images/83Bi.jpeg,0,3,3,3,0,2,2,2,386.9069368929995,None,386.9069368929995,None,1,2.5059753019995696,386.9069368929995,None,389.4467500770006,None,389.4467500770006,None,391.94995834099973,None,391.94995834099973,None,0.7163764649994846,393.74788183300006,None,393.74788183300006,None,6,1,0.7510730869998952,394.4556851990001,None,394.4556851990001,None,394.4556851990001,None,395.22296074299993,None,1,0.40075615600107994,395.22296074299993,None,54,395.64074587100004,None,129,A,1,2021_May_28_1112,GazeFlow,2020.1.2,59.925088605628,
4,Block509.xls,A,9,4,19,19,11,congruent,Left,Left,Right,65,66,1,yellow,2,6,/home/docky/apps/exp/images/35Bi.jpeg,/home/docky/apps/exp/images/66Y.jpeg,0,3,3,3,0,3,3,3,396.6431123429993,None,396.6431123429993,None,1,2.104219868000655,396.6431123429993,None,398.7814227350009,None,398.7814227350009,None,401.28437387399936,None,401.28437387399936,None,0.6659951700003148,403.0879360500003,None,403.0879360500003,None,5,0,0.8339062180002657,403.74045790799937,None,403.74045790799937,None,403.74045790799937,None,404.5911866259994,None,1,0.5179940260004514,404.5911866259994,None,52,405.12557714799914,None,129,A,1,2021_May_28_1112,GazeFlow,2020.1.2,59.925088605628,
4,Block509.xls,A,9,5,60,60,12,congruent,Right,Right,Left,80,79,1,yellow,2,5,/home/docky/apps/exp/images/80Yi.jpeg,/home/docky/apps/exp/images/79Y.jpeg,0,3,3,3,0,4,4,4,406.12751226600085,None,406.12751226600085,None,1,2.0051496340001904,406.12751226600085,None,408.1695392879992,None,408.1695392879992,None,410.67056054800014,None,410.67056054800014,None,0.7165937520003354,412.47244339200006,None,412.47244339200006,None,6,0,0.8009833649994107,413.1753902950004,None,413.1753902950004,None,413.1753902950004,None,413.99281612199957,None,1,0.3673639499993442,413.99281612199957,None,50,414.3770096930002,None,129,A,1,2021_May_28_1112,GazeFlow,2020.1.2,59.925088605628,
4,Block509.xls,A,9,6,83,23,21,incongruent,Right,Left,Right,38,39,1,yellow,2,6,/home/docky/apps/exp/images/38Yi.jpeg,/home/docky/apps/exp/images/39Y.jpeg,0,3,3,3,0,5,5,5,415.37948443300047,None,415.37948443300047,None,1,2.6552577080001356,415.37948443300047,None,418.06877053800054,None,418.06877053800054,None,420.5734451589997,None,420.5734451589997,None,0.7161217399989255,422.37543185600043,None,422.37543185600043,None,6,1,0.7510100270010298,423.07774086300014,None,423.07774086300014,None,423.07774086300014,None,423.84562162099974,None,1,0.3674509240008774,423.84562162099974,None,52,424.2295765300005,None,129,A,1,2021_May_28_1112,GazeFlow,2020.1.2,59.925088605628,
4,Block509.xls,A,9,7,4,4,11,congruent,Left,Left,Right,35,38,3,blue,2,6,/home/docky/apps/exp/images/35B.jpeg,/home/docky/apps/exp/images/38Bi.jpeg,0,3,3,3,0,6,6,6,425.23190438299935,None,425.23190438299935,None,1,2.2383260899987363,425.23190438299935,None,427.5037469559993,None,427.5037469559993,None,430.0084813180001,None,430.0084813180001,None,0.8498089749991777,431.81214217100023,None,431.81214217100023,None,6,1,0.8012755709987687,432.64648442900034,None,432.64648442900034,None,432.64648442900034,None,433.46394701700046,None,1,0.4678390990011394,433.46394701700046,None,54,433.9482948980003,None,129,A,1,2021_May_28_1112,GazeFlow,2020.1.2,59.925088605628,
4,Block509.xls,A,9,8,24,24,11,congruent,Left,Left,Right,38,39,1,yellow,2,6,/home/docky/apps/exp/images/38Y.jpeg,/home/docky/apps/exp/images/39Yi.jpeg,0,3,3,3,0,7,7,7,434.95010995600023,None,434.95010995600023,None,1,2.956686670999261,434.95010995600023,None,437.94067758299934,None,437.94067758299934,None,440.4455851929997,None,440.4455851929997,None,0.6662735490008345,442.24752527000055,None,442.24752527000055,None,5,0,0.7179943070004811,442.8995909660007,None,442.8995909660007,None,442.8995909660007,None,443.63382123299925,None,1,0.4174986039997748,443.63382123299925,None,52,444.06804668900077,None,129,A,1,2021_May_28_1112,GazeFlow,2020.1.2,59.925088605628,
4,Block509.xls,A,,,,,,,,,,,,,,,,,,0,3,3,3,,,,,,,,,,,,,,,,,,,,,,,,,,,,,,,,,,,,,,,,,,,,129,A,1,2021_May_28_1112,GazeFlow,2020.1.2,59.925088605628,
5,Block504.xls,A,4,1,11,11,11,congruent,Left,Left,Right,73,76,3,blue,2,6,/home/docky/apps/exp/images/73Bi.jpeg,/home/docky/apps/exp/images/76B.jpeg,0,4,4,4,0,0,0,0,466.87943810400066,None,466.87943810400066,None,1,3.8815066820006905,466.87943810400066,None,470.78875648900066,None,470.78875648900066,None,473.3069258579999,None,473.3069258579999,None,0.7156165460000921,475.1114764689992,None,475.1114764689992,None,6,1,1.352363845000582,475.8135172410002,None,475.8135172410002,None,475.8135172410002,None,477.1826214590001,None,1,0.6007525469995016,477.1826214590001,None,54,477.8005572590009,None,129,A,1,2021_May_28_1112,GazeFlow,2020.1.2,59.925088605628,
5,Block504.xls,A,4,2,87,27,21,incongruent,Right,Left,Right,72,77,5,yellow,2,6,/home/docky/apps/exp/images/72Y.jpeg,/home/docky/apps/exp/images/77Yi.jpeg,0,4,4,4,0,1,1,1,478.8020541950009,None,478.8020541950009,None,1,2.0882832660008717,478.8020541950009,None,480.9219600100005,None,480.9219600100005,None,483.42713158699917,None,483.42713158699917,None,0.6994894870003918,485.2322492559997,None,485.2322492559997,None,6,1,0.8511611249996349,485.9165746809995,None,485.9165746809995,None,485.9165746809995,None,486.784445153,None,1,0.36732021299940243,486.784445153,None,56,487.16841843899965,None,129,A,1,2021_May_28_1112,GazeFlow,2020.1.2,59.925088605628,
5,Block504.xls,A,4,3,48,48,12,congruent,Right,Right,Left,39,38,1,yellow,2,5,/home/docky/apps/exp/images/39Yi.jpeg,/home/docky/apps/exp/images/38Y.jpeg,0,4,4,4,0,2,2,2,488.1703127620003,None,488.1703127620003,None,1,2.1718510869995953,488.1703127620003,None,490.3760611409998,None,490.3760611409998,None,492.8786189429993,None,492.8786189429993,None,0.41635349100033636,494.676337162,None,494.676337162,None,6,0,0.823928806999902,495.0950395489999,None,495.0950395489999,None,495.0950395489999,None,495.9354908280002,None,1,0.38417915100035316,495.9354908280002,None,54,496.3363306070005,None,129,A,1,2021_May_28_1112,GazeFlow,2020.1.2,59.925088605628,
5,Block504.xls,A,4,4,38,38,12,congruent,Right,Right,Left,79,73,6,blue,2,5,/home/docky/apps/exp/images/79B.jpeg,/home/docky/apps/exp/images/73Bi.jpeg,0,4,4,4,0,3,3,3,497.3381858650009,None,497.3381858650009,None,1,3.8416173759997037,497.3381858650009,None,501.21372006599995,None,501.21372006599995,None,503.71691427599944,None,503.71691427599944,None,0.7001156739988801,505.51990152100007,None,505.51990152100007,None,5,1,0.8579733269998542,506.2168821619998,None,506.2168821619998,None,506.2168821619998,None,507.0910461750009,None,1,0.5177117900002486,507.0910461750009,None,56,507.6253221429997,None,129,A,1,2021_May_28_1112,GazeFlow,2020.1.2,59.925088605628,
5,Block504.xls,A,4,5,2,2,11,congruent,Left,Left,Right,16,19,3,blue,2,6,/home/docky/apps/exp/images/16B.jpeg,/home/docky/apps/exp/images/19Bi.jpeg,0,4,4,4,0,4,4,4,508.6273035239992,None,508.6273035239992,None,1,2.85517720200005,508.6273035239992,None,511.4999539119999,None,511.4999539119999,None,514.0044659790001,None,514.0044659790001,None,0.6493977840000298,515.8229925020005,None,515.8229925020005,None,6,1,0.767695114000162,516.4592682670009,None,516.4592682670009,None,516.4592682670009,None,517.2436095760004,None,1,0.4674834790002933,517.2436095760004,None,58,517.72776505,None,129,A,1,2021_May_28_1112,GazeFlow,2020.1.2,59.925088605628,
5,Block504.xls,A,4,6,73,13,21,incongruent,Right,Left,Right,80,83,3,blue,2,6,/home/docky/apps/exp/images/80Bi.jpeg,/home/docky/apps/exp/images/83B.jpeg,0,4,4,4,0,5,5,5,518.7302457090009,None,518.7302457090009,None,1,1.9880423579998023,518.7302457090009,None,520.744796686,None,520.744796686,None,523.2544674170003,None,523.2544674170003,None,0.5992989980004495,525.0584283150001,None,525.0584283150001,None,6,1,0.7850049209991994,525.64373806,None,525.64373806,None,525.64373806,None,526.4446704759994,None,1,0.3173407969989057,526.4446704759994,None,60,526.778977807,None,129,A,1,2021_May_28_1112,GazeFlow,2020.1.2,59.925088605628,
5,Block504.xls,A,4,7,63,3,21,incongruent,Right,Left,Right,35,38,3,blue,2,6,/home/docky/apps/exp/images/35B.jpeg,/home/docky/apps/exp/images/38Bi.jpeg,0,4,4,4,0,6,6,6,527.7813775169998,None,527.7813775169998,None,1,1.7030322659993544,527.7813775169998,None,529.5014218260003,None,529.5014218260003,None,532.0217800409991,None,532.0217800409991,None,0.7168202700013353,533.8249312240005,None,533.8249312240005,None,6,1,0.7677701800002978,534.5275928840001,None,534.5275928840001,None,534.5275928840001,None,535.3118894350009,None,1,0.2839670479988854,535.3118894350009,None,62,535.6125922760002,None,129,A,1,2021_May_28_1112,GazeFlow,2020.1.2,59.925088605628,
5,Block504.xls,A,4,8,86,26,21,incongruent,Right,Left,Right,72,77,5,yellow,2,6,/home/docky/apps/exp/images/72Yi.jpeg,/home/docky/apps/exp/images/77Y.jpeg,0,4,4,4,0,7,7,7,536.614999073001,None,536.614999073001,None,1,2.1210079030006455,536.614999073001,None,538.7699970640006,None,538.7699970640006,None,541.2733188019993,None,541.2733188019993,None,0.8161707050003315,543.0782008370006,None,543.0782008370006,None,6,1,0.8011640709992207,543.8790326519993,None,543.8790326519993,None,543.8790326519993,None,544.6970790310006,None,1,0.3337765529995522,544.6970790310006,None,64,545.0473389489998,None,129,A,1,2021_May_28_1112,GazeFlow,2020.1.2,59.925088605628,
5,Block504.xls,A,,,,,,,,,,,,,,,,,,0,4,4,4,,,,,,,,,,,,,,,,,,,,,,,,,,,,,,,,,,,,,,,,,,,,129,A,1,2021_May_28_1112,GazeFlow,2020.1.2,59.925088605628,
6,Block511.xls,A,11,1,15,15,11,congruent,Left,Left,Right,80,83,3,blue,2,6,/home/docky/apps/exp/images/80Bi.jpeg,/home/docky/apps/exp/images/83B.jpeg,0,5,5,5,0,0,0,0,572.1508879819994,None,572.1508879819994,None,1,3.800508398000602,572.1508879819994,None,575.9726778740005,None,575.9726778740005,None,578.4971318890002,None,578.4971318890002,None,0.6325044010009151,580.3002921650004,None,580.3002921650004,None,6,1,0.7175071490000846,580.9180196920006,None,580.9180196920006,None,580.9180196920006,None,581.6520173890003,None,1,0.41757663499993214,581.6520173890003,None,66,582.0862424099996,None,129,A,1,2021_May_28_1112,GazeFlow,2020.1.2,59.925088605628,
6,Block511.xls,A,11,2,105,45,22,incongruent,Left,Right,Left,39,38,1,blue,2,5,/home/docky/apps/exp/images/39Bi.jpeg,/home/docky/apps/exp/images/38B.jpeg,0,5,5,5,0,1,1,1,583.0882961360003,None,583.0882961360003,None,1,2.2216295910002373,583.0882961360003,None,585.3437509529995,None,585.3437509529995,None,587.8486426550007,None,587.8486426550007,None,0.6661434180005017,589.6440441939994,None,589.6440441939994,None,5,1,0.7513234250000096,590.3027324239993,None,590.3027324239993,None,590.3027324239993,None,591.0701943490003,None,1,0.4178542779991403,591.0701943490003,None,68,591.5047001639996,None,129,A,1,2021_May_28_1112,GazeFlow,2020.1.2,59.925088605628,
6,Block511.xls,A,11,3,68,8,21,incongruent,Right,Left,Right,38,39,1,blue,2,6,/home/docky/apps/exp/images/38B.jpeg,/home/docky/apps/exp/images/39Bi.jpeg,0,5,5,5,0,2,2,2,592.5069377430009,None,592.5069377430009,None,1,2.1208724670013908,592.5069377430009,None,594.6448642809992,None,594.6448642809992,None,597.1649273349994,None,597.1649273349994,None,0.6659860430008848,598.9686479989996,None,598.9686479989996,None,5,0,0.6843996410007094,599.6208904899995,None,599.6208904899995,None,599.6208904899995,None,600.3217712589994,None,1,0.3843566269988514,600.3217712589994,None,66,600.7224966989997,None,129,A,1,2021_May_28_1112,GazeFlow,2020.1.2,59.925088605628,
6,Block511.xls,A,11,4,80,20,21,incongruent,Right,Left,Right,62,65,3,yellow,2,6,/home/docky/apps/exp/images/38Bi.jpeg,/home/docky/apps/exp/images/35B.jpeg,0,5,5,5,0,3,3,3,601.724856375,None,601.724856375,None,1,2.6723397850000765,601.724856375,None,604.4306435090002,None,604.4306435090002,None,606.9336393449994,None,606.9336393449994,None,0.666026631000932,608.7313528600007,None,608.7313528600007,None,6,1,0.7676960089993372,609.3899527579997,None,609.3899527579997,None,609.3899527579997,None,610.1740098490009,None,1,0.3176502169990272,610.1740098490009,None,68,610.5080266580007,None,129,A,1,2021_May_28_1112,GazeFlow,2020.1.2,59.925088605628,
6,Block511.xls,A,11,5,5,5,11,congruent,Left,Left,Right,65,66,1,blue,2,6,/home/docky/apps/exp/images/35Yi.jpeg,/home/docky/apps/exp/images/66B.jpeg,0,5,5,5,0,4,4,4,611.5102258930001,None,611.5102258930001,None,1,2.0212924419993215,611.5102258930001,None,613.5653293169999,None,613.5653293169999,None,616.0699056100002,None,616.0699056100002,None,0.7160655580009916,617.8733936150002,None,617.8733936150002,None,6,1,0.7676393799993093,618.5744020519996,None,618.5744020519996,None,618.5744020519996,None,619.3585961549998,None,1,0.2839819840010023,619.3585961549998,None,70,619.6594366429999,None,129,A,1,2021_May_28_1112,GazeFlow,2020.1.2,59.925088605628,
6,Block511.xls,A,11,6,18,18,11,congruent,Left,Left,Right,65,66,1,yellow,2,6,/home/docky/apps/exp/images/35B.jpeg,/home/docky/apps/exp/images/66Yi.jpeg,0,5,5,5,0,5,5,5,620.661695752,None,620.661695752,None,1,1.7529175959989516,620.661695752,None,622.4320565069993,None,622.4320565069993,None,624.9524597740001,None,624.9524597740001,None,0.7161034309992829,626.7509976729998,None,626.7509976729998,None,6,1,0.7676561520001997,627.4583718260001,None,627.4583718260001,None,627.4583718260001,None,628.2424649410004,None,1,0.30084424300002865,628.2424649410004,None,72,628.5601460529997,None,129,A,1,2021_May_28_1112,GazeFlow,2020.1.2,59.925088605628,
6,Block511.xls,A,11,7,25,25,11,congruent,Left,Left,Right,69,75,6,yellow,2,6,/home/docky/apps/exp/images/69Yi.jpeg,/home/docky/apps/exp/images/76Y.jpeg,0,5,5,5,0,6,6,6,629.5622316999998,None,629.5622316999998,None,1,1.9541738070001884,629.5622316999998,None,631.5456775040002,None,631.5456775040002,None,634.0532560489992,None,634.0532560489992,None,0.6828305549988727,635.8583949330005,None,635.8583949330005,None,6,1,0.7509018860000651,636.5259894720002,None,636.5259894720002,None,636.5259894720002,None,637.2935183049995,None,1,0.31721810499948333,637.2935183049995,None,74,637.6275954880002,None,129,A,1,2021_May_28_1112,GazeFlow,2020.1.2,59.925088605628,
6,Block511.xls,A,11,8,3,3,11,congruent,Left,Left,Right,35,38,3,blue,2,6,/home/docky/apps/exp/images/35Bi.jpeg,/home/docky/apps/exp/images/38B.jpeg,0,5,5,5,0,7,7,7,638.6294550639996,None,638.6294550639996,None,1,1.804604376999123,638.6294550639996,None,640.4672202990005,None,640.4672202990005,None,642.9702908390009,None,642.9702908390009,None,0.8165985479990923,644.7682142840004,None,644.7682142840004,None,6,1,0.8344761589996779,645.5767840770004,None,645.5767840770004,None,645.5767840770004,None,646.4279780449997,None,1,1.2033478659996035,646.4279780449997,None,76,647.6473495589998,None,129,A,1,2021_May_28_1112,GazeFlow,2020.1.2,59.925088605628,
6,Block511.xls,A,,,,,,,,,,,,,,,,,,0,5,5,5,,,,,,,,,,,,,,,,,,,,,,,,,,,,,,,,,,,,,,,,,,,,129,A,1,2021_May_28_1112,GazeFlow,2020.1.2,59.925088605628,
7,Block508.xls,A,8,1,13,13,11,congruent,Left,Left,Right,76,79,3,blue,2,6,/home/docky/apps/exp/images/76Bi.jpeg,/home/docky/apps/exp/images/79B.jpeg,0,6,6,6,0,0,0,0,673.7322232780007,None,673.7322232780007,None,1,4.801185461999921,673.7322232780007,None,678.5565228729993,None,678.5565228729993,None,681.0780918519995,None,681.0780918519995,None,0.6821347499990225,682.8817259139996,None,682.8817259139996,None,6,1,0.6842100040012156,683.5507517690003,None,683.5507517690003,None,683.5507517690003,None,684.2512454560001,None,1,0.31769527600044967,684.2512454560001,None,78,684.5854293960001,None,129,A,1,2021_May_28_1112,GazeFlow,2020.1.2,59.925088605628,
7,Block508.xls,A,8,2,21,21,11,congruent,Left,Left,Right,62,65,3,yellow,2,6,/home/docky/apps/exp/images/38B.jpeg,/home/docky/apps/exp/images/35Bi.jpeg,0,6,6,6,0,1,1,1,685.5876345159995,None,685.5876345159995,None,1,1.7038122349986224,685.5876345159995,None,687.3085083009992,None,687.3085083009992,None,689.8336884,None,689.8336884,None,0.6828457749998051,691.6261936730007,None,691.6261936730007,None,6,1,0.668858041999556,692.3009196479998,None,692.3009196479998,None,692.3009196479998,None,692.9850405489997,None,1,0.2671374729998206,692.9850405489997,None,80,693.2697702349997,None,129,A,1,2021_May_28_1112,GazeFlow,2020.1.2,59.925088605628,
7,Block508.xls,A,8,3,99,39,22,incongruent,Left,Right,Left,79,76,3,blue,2,5,/home/docky/apps/exp/images/79Bi.jpeg,/home/docky/apps/exp/images/76B.jpeg,0,6,6,6,0,2,2,2,694.271530512,None,694.271530512,None,1,1.7867783370002144,694.271530512,None,696.0754334979993,None,696.0754334979993,None,698.5969193019992,None,698.5969193019992,None,0.6495937640011107,700.3980454850007,None,700.3980454850007,None,5,1,0.7340326370012917,701.0347164470004,None,701.0347164470004,None,701.0347164470004,None,701.785424267,None,1,0.33404227499886474,701.785424267,None,82,702.1363189149997,None,129,A,1,2021_May_28_1112,GazeFlow,2020.1.2,59.925088605628,
7,Block508.xls,A,8,4,37,37,12,congruent,Right,Right,Left,66,65,1,blue,2,5,/home/docky/apps/exp/images/66Bi.jpeg,/home/docky/apps/exp/images/35Y.jpeg,0,6,6,6,0,3,3,3,703.1386758820008,None,703.1386758820008,None,1,1.8869292959989252,703.1386758820008,None,705.0471939439994,None,705.0471939439994,None,707.5623497050001,None,707.5623497050001,None,0.6496411049993185,709.3657605299995,None,709.3657605299995,None,5,1,0.7013049769993813,710.0020059689996,None,710.0020059689996,None,710.0020059689996,None,710.7197810950001,None,1,0.3504806290002307,710.7197810950001,None,84,711.0870000600007,None,129,A,1,2021_May_28_1112,GazeFlow,2020.1.2,59.925088605628,
7,Block508.xls,A,8,5,82,22,21,incongruent,Right,Left,Right,38,39,1,yellow,2,6,/home/docky/apps/exp/images/38Y.jpeg,/home/docky/apps/exp/images/39Yi.jpeg,0,6,6,6,0,4,4,4,712.0893205230004,None,712.0893205230004,None,1,2.004590272999849,712.0893205230004,None,714.1301692739999,None,714.1301692739999,None,716.6305619350005,None,716.6305619350005,None,0.6830296210009692,718.4356588360006,None,718.4356588360006,None,6,1,0.6509802429991396,719.1031943449998,None,719.1031943449998,None,719.1031943449998,None,719.7704714930005,None,1,0.28401262300030794,719.7704714930005,None,86,720.0709057610002,None,129,A,1,2021_May_28_1112,GazeFlow,2020.1.2,59.925088605628,
7,Block508.xls,A,8,6,104,44,22,incongruent,Left,Right,Left,39,38,1,blue,2,5,/home/docky/apps/exp/images/39B.jpeg,/home/docky/apps/exp/images/38Bi.jpeg,0,6,6,6,0,5,5,5,721.0732269,None,721.0732269,None,1,1.4861367979992792,721.0732269,None,722.5766362449995,None,722.5766362449995,None,725.0998988730007,None,725.0998988730007,None,0.7494042730013462,726.9005544600004,None,726.9005544600004,None,5,1,0.7508923469995352,727.6362187239993,None,727.6362187239993,None,727.6362187239993,None,728.4036781400009,None,1,0.3675313429994276,728.4036781400009,None,88,728.7879203159991,None,129,A,1,2021_May_28_1112,GazeFlow,2020.1.2,59.925088605628,
7,Block508.xls,A,8,7,39,39,12,congruent,Right,Right,Left,79,73,6,blue,2,5,/home/docky/apps/exp/images/79B.jpeg,/home/docky/apps/exp/images/73Bi.jpeg,0,6,6,6,0,6,6,6,729.7904467850003,None,729.7904467850003,None,1,1.6696312479998596,729.7904467850003,None,731.4774562509992,None,731.4774562509992,None,733.9988447350006,None,733.9988447350006,None,0.6831159060002392,735.7983585389993,None,735.7983585389993,None,5,1,0.734422010000344,736.4701135180003,None,736.4701135180003,None,736.4701135180003,None,737.220898429001,None,1,0.38433785799861653,737.220898429001,None,90,737.6218907010007,None,129,A,1,2021_May_28_1112,GazeFlow,2020.1.2,59.925088605628,
7,Block508.xls,A,8,8,36,36,12,congruent,Right,Right,Left,66,65,1,blue,2,5,/home/docky/apps/exp/images/66B.jpeg,/home/docky/apps/exp/images/35Yi.jpeg,0,6,6,6,0,7,7,7,738.6241777089999,None,738.6241777089999,None,1,1.4861006990013266,738.6241777089999,None,740.1277620420005,None,740.1277620420005,None,742.6470041070006,None,742.6470041070006,None,0.7328760450000118,744.4510336099993,None,744.4510336099993,None,5,1,0.6844912629985629,745.170340916,None,745.170340916,None,745.170340916,None,745.8713316869998,None,1,0.35066927899970324,745.8713316869998,None,92,746.2384453630002,None,129,A,1,2021_May_28_1112,GazeFlow,2020.1.2,59.925088605628,
7,Block508.xls,A,,,,,,,,,,,,,,,,,,0,6,6,6,,,,,,,,,,,,,,,,,,,,,,,,,,,,,,,,,,,,,,,,,,,,129,A,1,2021_May_28_1112,GazeFlow,2020.1.2,59.925088605628,
8,Block510.xls,A,10,1,102,42,22,incongruent,Left,Right,Left,83,80,3,blue,2,5,/home/docky/apps/exp/images/83B.jpeg,/home/docky/apps/exp/images/80Bi.jpeg,0,7,7,7,0,0,0,0,769.0507992830007,None,769.0507992830007,None,1,4.146021545000622,769.0507992830007,None,773.2221110080009,None,773.2221110080009,None,775.7470039899999,None,775.7470039899999,None,0.7322984870006621,777.5488350790001,None,777.5488350790001,None,5,1,0.7674768470005802,778.2678938919998,None,778.2678938919998,None,778.2678938919998,None,779.0523143219998,None,1,0.3340410550008528,779.0523143219998,None,94,779.4026882670005,None,129,A,1,2021_May_28_1112,GazeFlow,2020.1.2,59.925088605628,
8,Block510.xls,A,10,2,114,54,22,incongruent,Left,Right,Left,76,69,7,yellow,2,5,/home/docky/apps/exp/images/76Yi.jpeg,/home/docky/apps/exp/images/69Y.jpeg,0,7,7,7,0,1,1,1,780.4054866749993,None,780.4054866749993,None,1,1.435855124000227,780.4054866749993,None,781.8586150789997,None,781.8586150789997,None,784.3786621870004,None,784.3786621870004,None,0.8831198799998674,786.1820420950007,None,786.1820420950007,None,5,1,0.7507331190008699,787.0517570770007,None,787.0517570770007,None,787.0517570770007,None,787.8190041159996,None,1,0.36777675000121235,787.8190041159996,None,96,788.2031660489993,None,129,A,1,2021_May_28_1112,GazeFlow,2020.1.2,59.925088605628,
8,Block510.xls,A,10,3,72,12,21,incongruent,Right,Left,Right,76,79,3,blue,2,6,/home/docky/apps/exp/images/76Bi.jpeg,/home/docky/apps/exp/images/79B.jpeg,0,7,7,7,0,2,2,2,789.2054786610006,None,789.2054786610006,None,1,1.5536220529993443,789.2054786610006,None,790.7756377799997,None,790.7756377799997,None,793.2955320060009,None,793.2955320060009,None,0.7663547500014829,795.0998705490001,None,795.0998705490001,None,6,1,0.7340619229998993,795.8523217889997,None,795.8523217889997,None,795.8523217889997,None,796.6031815170008,None,1,0.28379953900002874,796.6031815170008,None,98,796.9036392920007,None,129,A,1,2021_May_28_1112,GazeFlow,2020.1.2,59.925088605628,
8,Block510.xls,A,10,4,112,52,22,incongruent,Left,Right,Left,75,69,6,yellow,2,5,/home/docky/apps/exp/images/76Y.jpeg,/home/docky/apps/exp/images/69Yi.jpeg,0,7,7,7,0,3,3,3,797.9060112930001,None,797.9060112930001,None,1,2.2880410689995188,797.9060112930001,None,800.2278169729998,None,800.2278169729998,None,802.7326717760006,None,802.7326717760006,None,0.7830326469993452,804.5359836999996,None,804.5359836999996,None,5,1,0.8176950929992017,805.303884678,None,805.303884678,None,805.303884678,None,806.1381963959993,None,1,0.3343211040009919,806.1381963959993,None,100,806.4888492440004,None,129,A,1,2021_May_28_1112,GazeFlow,2020.1.2,59.925088605628,
8,Block510.xls,A,10,5,17,17,11,congruent,Left,Left,Right,33,35,2,yellow,2,6,/home/docky/apps/exp/images/33Y.jpeg,/home/docky/apps/exp/images/35Yi.jpeg,0,7,7,7,0,4,4,4,807.4908050220001,None,807.4908050220001,None,1,2.1883611450011813,807.4908050220001,None,809.7093620070009,None,809.7093620070009,None,812.2156668080006,None,812.2156668080006,None,0.699619310998969,814.0194755939992,None,814.0194755939992,None,6,1,0.7008503079996444,814.7054188919992,None,814.7054188919992,None,814.7054188919992,None,815.4228049089998,None,1,0.23395018799965328,815.4228049089998,None,102,815.6733969809993,None,129,A,1,2021_May_28_1112,GazeFlow,2020.1.2,59.925088605628,
8,Block510.xls,A,10,6,31,31,12,congruent,Right,Right,Left,19,16,3,blue,2,5,/home/docky/apps/exp/images/19Bi.jpeg,/home/docky/apps/exp/images/16B.jpeg,0,7,7,7,0,5,5,5,816.6760857789995,None,816.6760857789995,None,1,1.9538767819994973,816.6760857789995,None,818.6468185009999,None,818.6468185009999,None,821.1668307880009,None,821.1668307880009,None,0.732388799000546,822.9705112089996,None,822.9705112089996,None,5,1,0.7678977209998266,823.6894505149994,None,823.6894505149994,None,823.6894505149994,None,824.4739294320007,None,1,0.30059891900054936,824.4739294320007,None,104,824.7911474190005,None,129,A,1,2021_May_28_1112,GazeFlow,2020.1.2,59.925088605628,
8,Block510.xls,A,10,7,61,1,21,incongruent,Right,Left,Right,16,19,3,blue,2,6,/home/docky/apps/exp/images/16Bi.jpeg,/home/docky/apps/exp/images/19B.jpeg,0,7,7,7,0,6,6,6,825.7935620749995,None,825.7935620749995,None,1,1.3855071199996019,825.7935620749995,None,827.1964540450008,None,827.1964540450008,None,829.7159752360003,None,829.7159752360003,None,0.7497351430010895,831.5195728889994,None,831.5195728889994,None,6,1,0.6672798719991988,832.2562114699995,None,832.2562114699995,None,832.2562114699995,None,832.9401484379996,None,1,0.25103757599936216,832.9401484379996,None,106,833.2075105050008,None,129,A,1,2021_May_28_1112,GazeFlow,2020.1.2,59.925088605628,
8,Block510.xls,A,10,8,94,34,22,incongruent,Left,Right,Left,38,35,3,blue,2,5,/home/docky/apps/exp/images/38Bi.jpeg,/home/docky/apps/exp/images/35B.jpeg,0,7,7,7,0,7,7,7,834.2098570960006,None,834.2098570960006,None,1,1.3356640310012153,834.2098570960006,None,835.5624923220003,None,835.5624923220003,None,838.0845463219994,None,838.0845463219994,None,0.6324807830005739,839.8858975940002,None,839.8858975940002,None,5,1,0.7006622110002354,840.5055855419996,None,840.5055855419996,None,840.5055855419996,None,841.2231269980002,None,1,0.30072805799864,841.2231269980002,None,108,841.5402731430004,None,129,A,1,2021_May_28_1112,GazeFlow,2020.1.2,59.925088605628,
8,Block510.xls,A,,,,,,,,,,,,,,,,,,0,7,7,7,,,,,,,,,,,,,,,,,,,,,,,,,,,,,,,,,,,,,,,,,,,,129,A,1,2021_May_28_1112,GazeFlow,2020.1.2,59.925088605628,
9,Block507.xls,A,7,1,110,50,22,incongruent,Left,Right,Left,66,65,1,yellow,2,5,/home/docky/apps/exp/images/66Y.jpeg,/home/docky/apps/exp/images/35Bi.jpeg,0,8,8,8,0,0,0,0,860.6272744079997,None,860.6272744079997,None,1,3.7961958719988615,860.6272744079997,None,864.4544661390009,None,864.4544661390009,None,866.9738945270001,None,866.9738945270001,None,0.7156625369989342,868.7711584339995,None,868.7711584339995,None,5,1,0.7508726739997655,869.4785022340002,None,869.4785022340002,None,869.4785022340002,None,870.2459346640007,None,1,0.3508513420001691,870.2459346640007,None,110,870.6133682430009,None,129,A,1,2021_May_28_1112,GazeFlow,2020.1.2,59.925088605628,
9,Block507.xls,A,7,2,90,30,22,incongruent,Right,Left,Right,16,19,3,blue,2,6,/home/docky/apps/exp/images/16Bi.jpeg,/home/docky/apps/exp/images/19B.jpeg,0,8,8,8,0,1,1,1,871.6157986409999,None,871.6157986409999,None,1,1.6526196540016826,871.6157986409999,None,873.2860668939993,None,873.2860668939993,None,875.8079617639996,None,875.8079617639996,None,0.6328074499997456,877.6053674350005,None,877.6053674350005,None,6,1,0.7338447539987101,878.2288669610007,None,878.2288669610007,None,878.2288669610007,None,878.9797648290005,None,1,0.2671225450012571,878.9797648290005,None,112,879.2632052009994,None,129,A,1,2021_May_28_1112,GazeFlow,2020.1.2,59.925088605628,
9,Block507.xls,A,7,3,16,16,11,congruent,Left,Left,Right,33,35,2,yellow,2,6,/home/docky/apps/exp/images/33Yi.jpeg,/home/docky/apps/exp/images/35Y.jpeg,0,8,8,8,0,2,2,2,880.2659669090008,None,880.2659669090008,None,1,1.452432542000679,880.2659669090008,None,881.7357640390001,None,881.7357640390001,None,884.2558508059992,None,884.2558508059992,None,0.6661589199993614,886.0592382400009,None,886.0592382400009,None,6,1,0.7341684990005888,886.71207727,None,886.71207727,None,886.71207727,None,887.4637519499993,None,1,1.535262153000076,887.4637519499993,None,114,889.0156904590003,None,129,A,1,2021_May_28_1112,GazeFlow,2020.1.2,59.925088605628,
9,Block507.xls,A,7,4,117,57,22,incongruent,Left,Right,Left,77,72,5,yellow,2,5,/home/docky/apps/exp/images/77Y.jpeg,/home/docky/apps/exp/images/72Yi.jpeg,0,8,8,8,0,3,3,3,890.0178231690006,None,890.0178231690006,None,1,1.2864232170013565,890.0178231690006,None,891.3389563750006,None,891.3389563750006,None,893.8412324830006,None,893.8412324830006,None,0.7667252590017597,895.6385822659995,None,895.6385822659995,None,5,1,0.8343621969997912,896.3974009539997,None,896.3974009539997,None,896.3974009539997,None,897.2484117839995,None,1,0.36774229099864897,897.2484117839995,None,116,897.6326032460001,None,129,A,1,2021_May_28_1112,GazeFlow,2020.1.2,59.925088605628,
9,Block507.xls,A,7,5,53,53,12,congruent,Right,Right,Left,75,69,6,yellow,2,5,/home/docky/apps/exp/images/76Yi.jpeg,/home/docky/apps/exp/images/69Y.jpeg,0,8,8,8,0,4,4,4,898.6345338400006,None,898.6345338400006,None,1,1.4360955309985002,898.6345338400006,None,900.0885101099993,None,900.0885101099993,None,902.6084744740001,None,902.6084744740001,None,0.6496976979997271,904.411584937001,None,904.411584937001,None,5,1,0.7846150479999778,905.0476247200004,None,905.0476247200004,None,905.0476247200004,None,905.8483384360006,None,1,0.3673979209997924,905.8483384360006,None,118,906.2324974549992,None,129,A,1,2021_May_28_1112,GazeFlow,2020.1.2,59.925088605628,
9,Block507.xls,A,7,6,96,36,22,incongruent,Left,Right,Left,66,65,1,blue,2,5,/home/docky/apps/exp/images/66Bi.jpeg,/home/docky/apps/exp/images/35Y.jpeg,0,8,8,8,0,5,5,5,907.2350044670002,None,907.2350044670002,None,1,1.6530310180005472,907.2350044670002,None,908.9051869400009,None,908.9051869400009,None,911.4269677409993,None,911.4269677409993,None,0.9166331229989737,913.229065083,None,913.229065083,None,5,1,0.8348979960010183,914.1318412199998,None,914.1318412199998,None,914.1318412199998,None,914.9829522349992,None,1,0.31715825799983577,914.9829522349992,None,120,915.3170302039998,None,129,A,1,2021_May_28_1112,GazeFlow,2020.1.2,59.925088605628,
9,Block507.xls,A,7,7,58,58,12,congruent,Right,Right,Left,77,72,5,yellow,2,5,/home/docky/apps/exp/images/77Yi.jpeg,/home/docky/apps/exp/images/72Y.jpeg,0,8,8,8,0,6,6,6,916.3188976069996,None,916.3188976069996,None,1,1.8710948280004231,916.3188976069996,None,918.2236867579995,None,918.2236867579995,None,920.7265795460007,None,920.7265795460007,None,0.733109400000103,922.5297209479995,None,922.5297209479995,None,5,1,0.8014527630002704,923.249609941,None,923.249609941,None,923.249609941,None,924.067407904,None,1,0.3168833950003318,924.067407904,None,122,924.4011582519997,None,129,A,1,2021_May_28_1112,GazeFlow,2020.1.2,59.925088605628,
9,Block507.xls,A,7,8,41,41,12,congruent,Right,Right,Left,79,76,3,blue,2,5,/home/docky/apps/exp/images/79Bi.jpeg,/home/docky/apps/exp/images/76B.jpeg,0,8,8,8,0,7,7,7,925.4032561090007,None,925.4032561090007,None,1,2.2383933259989135,925.4032561090007,None,927.6752891060005,None,927.6752891060005,None,930.1781172070005,None,930.1781172070005,None,0.8162511810005526,931.9838654100004,None,931.9838654100004,None,5,1,0.7514306309985841,932.7846604839997,None,932.7846604839997,None,932.7846604839997,None,933.5520654709999,None,1,0.3512840479997976,933.5520654709999,None,124,933.9195357040007,None,129,A,1,2021_May_28_1112,GazeFlow,2020.1.2,59.925088605628,
9,Block507.xls,A,,,,,,,,,,,,,,,,,,0,8,8,8,,,,,,,,,,,,,,,,,,,,,,,,,,,,,,,,,,,,,,,,,,,,129,A,1,2021_May_28_1112,GazeFlow,2020.1.2,59.925088605628,
10,Block515.xls,A,15,1,107,47,22,incongruent,Left,Right,Left,35,33,2,yellow,2,5,/home/docky/apps/exp/images/35Yi.jpeg,/home/docky/apps/exp/images/33Y.jpeg,0,9,9,9,0,0,0,0,952.6417477140003,None,952.6417477140003,None,1,2.6940952459990513,952.6417477140003,None,955.3642232799994,None,955.3642232799994,None,957.8838899990005,None,957.8838899990005,None,0.6989588050000748,959.6807972839997,None,959.6807972839997,None,5,1,0.717525119000129,960.3716305550006,None,960.3716305550006,None,960.3716305550006,None,961.1057773409993,None,1,0.31705807599973923,961.1057773409993,None,126,961.4398843489998,None,129,A,1,2021_May_28_1112,GazeFlow,2020.1.2,59.925088605628,
10,Block515.xls,A,15,2,55,55,12,congruent,Right,Right,Left,76,69,7,yellow,2,5,/home/docky/apps/exp/images/76Yi.jpeg,/home/docky/apps/exp/images/69Y.jpeg,0,9,9,9,0,1,1,1,962.4422278099992,None,962.4422278099992,None,1,1.502809358000377,962.4422278099992,None,963.9621599389993,None,963.9621599389993,None,966.4838932309995,None,966.4838932309995,None,0.7165796570006933,968.2874682309994,None,968.2874682309994,None,5,1,0.7508774470006756,968.9883646670005,None,968.9883646670005,None,968.9883646670005,None,969.7561955820001,None,1,0.3169062790002499,969.7561955820001,None,128,970.0900768369993,None,129,A,1,2021_May_28_1112,GazeFlow,2020.1.2,59.925088605628,
10,Block515.xls,A,15,3,75,15,21,incongruent,Right,Left,Right,33,35,2,yellow,2,6,/home/docky/apps/exp/images/33Yi.jpeg,/home/docky/apps/exp/images/35Y.jpeg,0,9,9,9,0,2,2,2,971.0921179300003,None,971.0921179300003,None,1,1.285728928000026,971.0921179300003,None,972.3950802090003,None,972.3950802090003,None,974.9158133870005,None,974.9158133870005,None,0.6996514109996497,976.7135499970009,None,976.7135499970009,None,6,1,0.6673579609996523,977.404736851,None,977.404736851,None,977.404736851,None,978.0887097769992,None,1,0.25046800000018266,978.0887097769992,None,130,978.3559862330003,None,129,A,1,2021_May_28_1112,GazeFlow,2020.1.2,59.925088605628,
10,Block515.xls,A,15,4,62,2,21,incongruent,Right,Left,Right,35,38,3,blue,2,6,/home/docky/apps/exp/images/35Bi.jpeg,/home/docky/apps/exp/images/38B.jpeg,0,9,9,9,0,3,3,3,979.3585213290007,None,979.3585213290007,None,1,1.6690387720009312,979.3585213290007,None,981.0450949440001,None,981.0450949440001,None,983.5672094250003,None,983.5672094250003,None,0.7998297260000982,985.368762692,None,985.368762692,None,6,1,1.5361990580004203,986.1548257699997,None,986.1548257699997,None,986.1548257699997,None,987.7073648259993,None,1,0.23389417799990042,987.7073648259993,None,132,987.9580528940005,None,129,A,1,2021_May_28_1112,GazeFlow,2020.1.2,59.925088605628,
10,Block515.xls,A,15,5,100,40,22,incongruent,Left,Right,Left,79,76,3,blue,2,5,/home/docky/apps/exp/images/79Bi.jpeg,/home/docky/apps/exp/images/76B.jpeg,0,9,9,9,0,4,4,4,988.960213755001,None,988.960213755001,None,1,2.6555572079996637,988.960213755001,None,991.6494369979991,None,991.6494369979991,None,994.1521779180002,None,994.1521779180002,None,0.7998123600009421,995.9549157679994,None,995.9549157679994,None,5,1,0.7840852389999782,996.7423490929996,None,996.7423490929996,None,996.7423490929996,None,997.5431330850006,None,1,0.30082547399979376,997.5431330850006,None,134,997.8604416220005,None,129,A,1,2021_May_28_1112,GazeFlow,2020.1.2,59.925088605628,
10,Block515.xls,A,15,6,108,48,22,incongruent,Left,Right,Left,39,38,1,yellow,2,5,/home/docky/apps/exp/images/39Y.jpeg,/home/docky/apps/exp/images/38Yi.jpeg,0,9,9,9,0,5,5,5,998.8628509539994,None,998.8628509539994,None,1,1.469605064999996,998.8628509539994,None,1000.3490802640008,None,1000.3490802640008,None,1002.8697277680003,None,1002.8697277680003,None,0.7329702349998115,1004.6678989039992,None,1004.6678989039992,None,5,1,0.7341807809989405,1005.3925044909993,None,1005.3925044909993,None,1005.3925044909993,None,1006.1431286040006,None,1,0.31763081600001897,1006.1431286040006,None,136,1006.4772128330005,None,129,A,1,2021_May_28_1112,GazeFlow,2020.1.2,59.925088605628,
10,Block515.xls,A,15,7,59,59,12,congruent,Right,Right,Left,80,79,1,yellow,2,5,/home/docky/apps/exp/images/80Y.jpeg,/home/docky/apps/exp/images/79Yi.jpeg,0,9,9,9,0,6,6,6,1007.4795793510002,None,1007.4795793510002,None,1,1.4191104270012147,1007.4795793510002,None,1008.9160319229995,None,1008.9160319229995,None,1011.4405764950006,None,1011.4405764950006,None,0.7661852299988823,1013.2394329929994,None,1013.2394329929994,None,6,0,0.6511928790005186,1013.9924172770006,None,1013.9924172770006,None,1013.9924172770006,None,1014.6599113459997,None,1,0.2337167440000485,1014.6599113459997,None,134,1014.9101840090007,None,129,A,1,2021_May_28_1112,GazeFlow,2020.1.2,59.925088605628,
10,Block515.xls,A,15,8,8,8,11,congruent,Left,Left,Right,38,39,1,blue,2,6,/home/docky/apps/exp/images/38B.jpeg,/home/docky/apps/exp/images/39Bi.jpeg,0,9,9,9,0,7,7,7,1015.9126988549997,None,1015.9126988549997,None,1,2.772871901999679,1015.9126988549997,None,1018.7171683350007,None,1018.7171683350007,None,1021.2251876909995,None,1021.2251876909995,None,0.682954002999395,1023.0253065760007,None,1023.0253065760007,None,6,1,0.6843550279991177,1023.6945104660008,None,1023.6945104660008,None,1023.6945104660008,None,1024.3952310969999,None,1,0.25071027199919627,1024.3952310969999,None,136,1024.6624960139998,None,129,A,1,2021_May_28_1112,GazeFlow,2020.1.2,59.925088605628,
10,Block515.xls,A,,,,,,,,,,,,,,,,,,0,9,9,9,,,,,,,,,,,,,,,,,,,,,,,,,,,,,,,,,,,,,,,,,,,,129,A,1,2021_May_28_1112,GazeFlow,2020.1.2,59.925088605628,
11,Block512.xls,A,12,1,30,30,11,congruent,Left,Left,Right,79,82,3,yellow,2,6,/home/docky/apps/exp/images/79Yi.jpeg,/home/docky/apps/exp/images/80Y.jpeg,0,10,10,10,0,0,0,0,1044.8361528130008,None,1044.8361528130008,None,1,3.0949033880006027,1044.8361528130008,None,1047.9580812759996,None,1047.9580812759996,None,1050.4785574750003,None,1050.4785574750003,None,0.7489551700000447,1052.282468501,None,1052.282468501,None,6,1,3.323249510000096,1053.0182361070001,None,1053.0182361070001,None,1053.0182361070001,None,1056.3580260439994,None,1,0.6511216019989661,1056.3580260439994,None,138,1057.0257374680004,None,129,A,1,2021_May_28_1112,GazeFlow,2020.1.2,59.925088605628,
11,Block512.xls,A,12,2,115,55,22,incongruent,Left,Right,Left,76,69,7,yellow,2,5,/home/docky/apps/exp/images/76Yi.jpeg,/home/docky/apps/exp/images/69Y.jpeg,0,10,10,10,0,1,1,1,1058.0277852620002,None,1058.0277852620002,None,1,1.386627560999841,1058.0277852620002,None,1059.4480362499999,None,1059.4480362499999,None,1061.9512323460003,None,1061.9512323460003,None,0.6326793339994765,1063.7494563319997,None,1063.7494563319997,None,5,1,0.8181501189992559,1064.3735703170005,None,1064.3735703170005,None,1064.3735703170005,None,1065.2077373190004,None,1,0.401224392999211,1065.2077373190004,None,140,1065.6253821570008,None,129,A,1,2021_May_28_1112,GazeFlow,2020.1.2,59.925088605628,
11,Block512.xls,A,12,3,66,6,21,incongruent,Right,Left,Right,38,39,1,blue,2,6,/home/docky/apps/exp/images/38B.jpeg,/home/docky/apps/exp/images/39Bi.jpeg,0,10,10,10,0,2,2,2,1066.6277120970008,None,1066.6277120970008,None,1,1.5194380390003062,1066.6277120970008,None,1068.164776992,None,1068.164776992,None,1070.6847223900004,None,1070.6847223900004,None,0.6996819980013242,1072.4868946850002,None,1072.4868946850002,None,5,0,1.6535916650009312,1073.174067688,None,1073.174067688,None,1073.174067688,None,1074.843739035001,None,1,0.6508343719997356,1074.843739035001,None,138,1075.511496428,None,129,A,1,2021_May_28_1112,GazeFlow,2020.1.2,59.925088605628,
11,Block512.xls,A,12,4,35,35,12,congruent,Right,Right,Left,66,65,1,blue,2,5,/home/docky/apps/exp/images/66B.jpeg,/home/docky/apps/exp/images/35Yi.jpeg,0,10,10,10,0,3,3,3,1076.5133998229994,None,1076.5133998229994,None,1,2.0549589220008784,1076.5133998229994,None,1078.5996675829992,None,1078.5996675829992,None,1081.1044348150008,None,1081.1044348150008,None,1.2340617110003222,1082.9076393070009,None,1082.9076393070009,None,6,0,1.1190594010004133,1084.128701271,None,1084.128701271,None,1084.128701271,None,1085.2640559949996,None,1,1.0015596660014126,1085.2640559949996,None,136,1086.2821675670002,None,129,A,1,2021_May_28_1112,GazeFlow,2020.1.2,59.925088605628,
11,Block512.xls,A,12,5,40,40,12,congruent,Right,Right,Left,79,76,3,blue,2,5,/home/docky/apps/exp/images/79Bi.jpeg,/home/docky/apps/exp/images/76B.jpeg,0,10,10,10,0,4,4,4,1087.2841498969992,None,1087.2841498969992,None,1,2.171612502001153,1087.2841498969992,None,1089.4893603210003,None,1089.4893603210003,None,1091.9776534329994,None,1091.9776534329994,None,0.6995344290007779,1093.7942573830005,None,1093.7942573830005,None,5,1,0.8010325819996069,1094.482000901,None,1094.482000901,None,1094.482000901,None,1095.299510838,None,1,0.434405178999441,1095.299510838,None,138,1095.7503040419997,None,129,A,1,2021_May_28_1112,GazeFlow,2020.1.2,59.925088605628,
11,Block512.xls,A,12,6,64,4,21,incongruent,Right,Left,Right,65,66,1,blue,2,6,/home/docky/apps/exp/images/35Yi.jpeg,/home/docky/apps/exp/images/66B.jpeg,0,10,10,10,0,5,5,5,1096.752446691,None,1096.752446691,None,1,1.921286503000374,1096.752446691,None,1098.7068145369994,None,1098.7068145369994,None,1101.2107046279998,None,1101.2107046279998,None,0.632638926999789,1103.0138532199999,None,1103.0138532199999,None,6,1,0.7511003269992216,1103.6332082419995,None,1103.6332082419995,None,1103.6332082419995,None,1104.4008646319999,None,1,0.35088621499926376,1104.4008646319999,None,140,1104.7681561179998,None,129,A,1,2021_May_28_1112,GazeFlow,2020.1.2,59.925088605628,
11,Block512.xls,A,12,7,12,12,11,congruent,Left,Left,Right,76,79,3,blue,2,6,/home/docky/apps/exp/images/76B.jpeg,/home/docky/apps/exp/images/79Bi.jpeg,0,10,10,10,0,6,6,6,1105.770454558,None,1105.770454558,None,1,1.8711582089999865,1105.770454558,None,1107.6749501220002,None,1107.6749501220002,None,1110.178012622,None,1110.178012622,None,0.616081698999551,1111.9804927669993,None,1111.9804927669993,None,6,1,0.7343181439991895,1112.5837187929992,None,1112.5837187929992,None,1112.5837187929992,None,1113.334632172,None,1,0.2507701350004936,1113.334632172,None,142,1113.6018525679992,None,129,A,1,2021_May_28_1112,GazeFlow,2020.1.2,59.925088605628,
11,Block512.xls,A,12,8,49,49,12,congruent,Right,Right,Left,39,38,1,yellow,2,5,/home/docky/apps/exp/images/39Y.jpeg,/home/docky/apps/exp/images/38Yi.jpeg,0,10,10,10,0,7,7,7,1114.6045570850001,None,1114.6045570850001,None,1,1.936896216000605,1114.6045570850001,None,1116.5586885510002,None,1116.5586885510002,None,1119.080473008,None,1119.080473008,None,0.665914449000411,1120.8824402539994,None,1120.8824402539994,None,5,1,0.7842253719991277,1121.5346785889997,None,1121.5346785889997,None,1121.5346785889997,None,1122.3356090979996,None,1,0.4509883800001262,1122.3356090979996,None,144,1122.803203679001,None,129,A,1,2021_May_28_1112,GazeFlow,2020.1.2,59.925088605628,
11,Block512.xls,A,,,,,,,,,,,,,,,,,,0,10,10,10,,,,,,,,,,,,,,,,,,,,,,,,,,,,,,,,,,,,,,,,,,,,129,A,1,2021_May_28_1112,GazeFlow,2020.1.2,59.925088605628,
12,Block503.xls,A,3,1,22,22,11,congruent,Left,Left,Right,62,65,3,yellow,2,6,/home/docky/apps/exp/images/38Bi.jpeg,/home/docky/apps/exp/images/35B.jpeg,0,11,11,11,0,0,0,0,1143.4446807090007,None,1143.4446807090007,None,1,2.6250698210005794,1143.4446807090007,None,1146.1027187769996,None,1146.1027187769996,None,1148.620918222001,None,1148.620918222001,None,0.6988676389992179,1150.4058833990002,None,1150.4058833990002,None,6,1,0.8843491179995908,1151.0920344429996,None,1151.0920344429996,None,1151.0920344429996,None,1151.9931625080008,None,1,0.13399616400056402,1151.9931625080008,None,146,1152.1434177110004,None,129,A,1,2021_May_28_1112,GazeFlow,2020.1.2,59.925088605628,
12,Block503.xls,A,3,2,65,5,21,incongruent,Right,Left,Right,65,66,1,blue,2,6,/home/docky/apps/exp/images/35Y.jpeg,/home/docky/apps/exp/images/66Bi.jpeg,0,11,11,11,0,1,1,1,1153.1458823739995,None,1153.1458823739995,None,1,1.3193152509993524,1153.1458823739995,None,1154.4819431619999,None,1154.4819431619999,None,1157.0038333400007,None,1157.0038333400007,None,0.716417982999701,1158.8038558520002,None,1158.8038558520002,None,5,0,0.8008234660010203,1159.5085936800006,None,1159.5085936800006,None,1159.5085936800006,None,1160.3261064279995,None,1,0.3507773769997584,1160.3261064279995,None,144,1160.6934371989992,None,129,A,1,2021_May_28_1112,GazeFlow,2020.1.2,59.925088605628,
12,Block503.xls,A,3,3,76,16,21,incongruent,Right,Left,Right,33,35,2,yellow,2,6,/home/docky/apps/exp/images/33Y.jpeg,/home/docky/apps/exp/images/35Yi.jpeg,0,11,11,11,0,2,2,2,1161.6958107610008,None,1161.6958107610008,None,1,2.0042295410003135,1161.6958107610008,None,1163.7336696429993,None,1163.7336696429993,None,1166.236667745001,None,1166.236667745001,None,0.5667548989986244,1168.0399212840002,None,1168.0399212840002,None,6,1,0.741452890999426,1168.6024763639998,None,1168.6024763639998,None,1168.6024763639998,None,1169.3602767850007,None,1,0.31737056099882466,1169.3602767850007,None,146,1169.6941916390006,None,129,A,1,2021_May_28_1112,GazeFlow,2020.1.2,59.925088605628,
12,Block503.xls,A,3,4,29,29,11,congruent,Left,Left,Right,79,82,3,yellow,2,6,/home/docky/apps/exp/images/79Y.jpeg,/home/docky/apps/exp/images/80Yi.jpeg,0,11,11,11,0,3,3,3,1170.6962633269995,None,1170.6962633269995,None,1,1.537271007999152,1170.6962633269995,None,1172.2670176020001,None,1172.2670176020001,None,1174.770298292,None,1174.770298292,None,0.8333402259995637,1176.5731182149993,None,1176.5731182149993,None,6,1,0.8847870980007428,1177.3931201449996,None,1177.3931201449996,None,1177.3931201449996,None,1178.294174828001,None,1,0.33420805799869413,1178.294174828001,None,148,1178.6450136090007,None,129,A,1,2021_May_28_1112,GazeFlow,2020.1.2,59.925088605628,
12,Block503.xls,A,3,5,103,43,22,incongruent,Left,Right,Left,39,38,1,blue,2,5,/home/docky/apps/exp/images/39Bi.jpeg,/home/docky/apps/exp/images/38B.jpeg,0,11,11,11,0,4,4,4,1179.6468140819998,None,1179.6468140819998,None,1,1.4040743349996774,1179.6468140819998,None,1181.0838787289995,None,1181.0838787289995,None,1183.5870437060003,None,1183.5870437060003,None,0.8663426929997513,1185.3905945629995,None,1185.3905945629995,None,5,1,0.7171394560009503,1186.2438572640003,None,1186.2438572640003,None,1186.2438572640003,None,1186.9779200810008,None,1,0.3670980070000951,1186.9779200810008,None,150,1187.3617474530001,None,129,A,1,2021_May_28_1112,GazeFlow,2020.1.2,59.925088605628,
12,Block503.xls,A,3,6,47,47,12,congruent,Right,Right,Left,35,33,2,yellow,2,5,/home/docky/apps/exp/images/35Yi.jpeg,/home/docky/apps/exp/images/33Y.jpeg,0,11,11,11,0,5,5,5,1188.363790325,None,1188.363790325,None,1,1.804228184000749,1188.363790325,None,1190.2017828240005,None,1190.2017828240005,None,1192.7070308090006,None,1192.7070308090006,None,0.7000989900006971,1194.5083023759998,None,1194.5083023759998,None,5,1,0.7678045909997309,1195.1943760619997,None,1195.1943760619997,None,1195.1943760619997,None,1195.9784953540002,None,1,0.3842864289999852,1195.9784953540002,None,152,1196.3795307029995,None,129,A,1,2021_May_28_1112,GazeFlow,2020.1.2,59.925088605628,
12,Block503.xls,A,3,7,20,20,11,congruent,Left,Left,Right,65,66,1,yellow,2,6,/home/docky/apps/exp/images/35Bi.jpeg,/home/docky/apps/exp/images/66Y.jpeg,0,11,11,11,0,6,6,6,1197.3818448500006,None,1197.3818448500006,None,1,1.5858344719999877,1197.3818448500006,None,1198.9855333769992,None,1198.9855333769992,None,1201.5071681629997,None,1201.5071681629997,None,0.7496080810014973,1203.3084658749995,None,1203.3084658749995,None,6,1,0.6674625540017587,1204.044843701,None,1204.044843701,None,1204.044843701,None,1204.7289623319994,None,1,0.2840472869993391,1204.7289623319994,None,154,1205.0296228160005,None,129,A,1,2021_May_28_1112,GazeFlow,2020.1.2,59.925088605628,
12,Block503.xls,A,3,8,27,27,11,congruent,Left,Left,Right,72,77,5,yellow,2,6,/home/docky/apps/exp/images/72Yi.jpeg,/home/docky/apps/exp/images/77Y.jpeg,0,11,11,11,0,7,7,7,1206.0319077130007,None,1206.0319077130007,None,1,2.2383492900007695,1206.0319077130007,None,1208.305669337,None,1208.305669337,None,1210.8118783850005,None,1210.8118783850005,None,0.6159798279986717,1212.6042951470008,None,1212.6042951470008,None,6,1,0.8347159229997487,1213.2127472539996,None,1213.2127472539996,None,1213.2127472539996,None,1214.063566283001,None,1,0.41771164999954635,1214.063566283001,None,156,1214.4982444420002,None,129,A,1,2021_May_28_1112,GazeFlow,2020.1.2,59.925088605628,
12,Block503.xls,A,,,,,,,,,,,,,,,,,,0,11,11,11,,,,,,,,,,,,,,,,,,,,,,,,,,,,,,,,,,,,,,,,,,,,129,A,1,2021_May_28_1112,GazeFlow,2020.1.2,59.925088605628,
13,Block501.xls,A,1,1,54,54,12,congruent,Right,Right,Left,75,69,6,yellow,2,5,/home/docky/apps/exp/images/76Y.jpeg,/home/docky/apps/exp/images/69Yi.jpeg,0,12,12,12,0,0,0,0,1232.467700655001,None,1232.467700655001,None,1,5.681796888999088,1232.467700655001,None,1238.1771233010004,None,1238.1771233010004,None,1240.6983663030005,None,1240.6983663030005,None,0.732077192998986,1242.5018818730005,None,1242.5018818730005,None,5,1,0.7843482369989943,1243.2209857420003,None,1243.2209857420003,None,1243.2209857420003,None,1244.0220778479998,None,1,0.35053874000004726,1244.0220778479998,None,158,1244.389415656,None,129,A,1,2021_May_28_1112,GazeFlow,2020.1.2,59.925088605628,
13,Block501.xls,A,1,2,70,10,21,incongruent,Right,Left,Right,73,76,3,blue,2,6,/home/docky/apps/exp/images/73Bi.jpeg,/home/docky/apps/exp/images/76B.jpeg,0,12,12,12,0,1,1,1,1245.3917126670003,None,1245.3917126670003,None,1,1.669693362999169,1245.3917126670003,None,1247.0790772389992,None,1247.0790772389992,None,1249.5988478979998,None,1249.5988478979998,None,0.7495853479995276,1251.4025131590006,None,1251.4025131590006,None,6,1,0.7675705290002952,1252.1383184610004,None,1252.1383184610004,None,1252.1383184610004,None,1252.9225270019997,None,1,0.3006116930009739,1252.9225270019997,None,160,1253.2399560619997,None,129,A,1,2021_May_28_1112,GazeFlow,2020.1.2,59.925088605628,
13,Block501.xls,A,1,3,84,24,21,incongruent,Right,Left,Right,69,76,7,yellow,2,6,/home/docky/apps/exp/images/69Yi.jpeg,/home/docky/apps/exp/images/76Y.jpeg,0,12,12,12,0,2,2,2,1254.2422677960003,None,1254.2422677960003,None,1,1.452482474000135,1254.2422677960003,None,1255.7118937079995,None,1255.7118937079995,None,1258.2322675159994,None,1258.2322675159994,None,0.6160160140007065,1260.0358518379999,None,1260.0358518379999,None,6,1,0.6847888689990214,1260.6379952019997,None,1260.6379952019997,None,1260.6379952019997,None,1261.3388652150006,None,1,0.30071652900005574,1261.3388652150006,None,162,1261.6562861290004,None,129,A,1,2021_May_28_1112,GazeFlow,2020.1.2,59.925088605628,
13,Block501.xls,A,1,4,26,26,11,congruent,Left,Left,Right,69,75,6,yellow,2,6,/home/docky/apps/exp/images/69Y.jpeg,/home/docky/apps/exp/images/76Yi.jpeg,0,12,12,12,0,3,3,3,1262.6586394040005,None,1262.6586394040005,None,1,1.3020654869997088,1262.6586394040005,None,1263.9778719690003,None,1263.9778719690003,None,1266.4983821189999,None,1266.4983821189999,None,0.6664589430001797,1268.3007458939992,None,1268.3007458939992,None,6,1,0.7843585179998627,1268.9543450180008,None,1268.9543450180008,None,1268.9543450180008,None,1269.755269485,None,1,0.2838774480005668,1269.755269485,None,164,1270.0558758570005,None,129,A,1,2021_May_28_1112,GazeFlow,2020.1.2,59.925088605628,
13,Block501.xls,A,1,5,97,37,22,incongruent,Left,Right,Left,79,73,6,blue,2,5,/home/docky/apps/exp/images/79B.jpeg,/home/docky/apps/exp/images/73Bi.jpeg,0,12,12,12,0,4,4,4,1271.0582604379997,None,1271.0582604379997,None,1,2.087712948999979,1271.0582604379997,None,1273.179537004,None,1273.179537004,None,1275.6828972269996,None,1275.6828972269996,None,0.7330109640006413,1277.4877568800002,None,1277.4877568800002,None,5,1,0.6840566949995264,1278.205546141,None,1278.205546141,None,1278.205546141,None,1278.9061259680002,None,1,0.38444010900093417,1278.9061259680002,None,166,1279.307121201,None,129,A,1,2021_May_28_1112,GazeFlow,2020.1.2,59.925088605628,
13,Block501.xls,A,1,6,98,38,22,incongruent,Left,Right,Left,79,73,6,blue,2,5,/home/docky/apps/exp/images/79B.jpeg,/home/docky/apps/exp/images/73Bi.jpeg,0,12,12,12,0,5,5,5,1280.3095294560007,None,1280.3095294560007,None,1,1.752959949999422,1280.3095294560007,None,1282.0802490620008,None,1282.0802490620008,None,1284.5998765719996,None,1284.5998765719996,None,0.9332690740011458,1286.4034954599992,None,1286.4034954599992,None,5,1,0.7848937949984247,1287.3230740630006,None,1287.3230740630006,None,1287.3230740630006,None,1288.1241972539992,None,1,0.4007724969997071,1288.1241972539992,None,168,1288.5418467620002,None,129,A,1,2021_May_28_1112,GazeFlow,2020.1.2,59.925088605628,
13,Block501.xls,A,1,7,77,17,21,incongruent,Right,Left,Right,65,66,1,yellow,2,6,/home/docky/apps/exp/images/35B.jpeg,/home/docky/apps/exp/images/66Yi.jpeg,0,12,12,12,0,6,6,6,1289.5437939549993,None,1289.5437939549993,None,1,1.6204657300004328,1289.5437939549993,None,1291.1978027700006,None,1291.1978027700006,None,1293.7069775170003,None,1293.7069775170003,None,0.7664343590004137,1295.5039962150004,None,1295.5039962150004,None,6,1,0.6511747679996915,1296.2572297469997,None,1296.2572297469997,None,1296.2572297469997,None,1296.9246619450005,None,1,0.25068163300056767,1296.9246619450005,None,170,1297.1917467900003,None,129,A,1,2021_May_28_1112,GazeFlow,2020.1.2,59.925088605628,
13,Block501.xls,A,1,8,50,50,12,congruent,Right,Right,Left,66,65,1,yellow,2,5,/home/docky/apps/exp/images/66Y.jpeg,/home/docky/apps/exp/images/35Bi.jpeg,0,12,12,12,0,7,7,7,1298.1943297489997,None,1298.1943297489997,None,1,2.62232005199985,1298.1943297489997,None,1300.8497061880007,None,1300.8497061880007,None,1303.3531612940005,None,1303.3531612940005,None,0.5994561199986492,1305.156469001,None,1305.156469001,None,5,1,1.21849575700071,1305.7423032099996,None,1305.7423032099996,None,1305.7423032099996,None,1306.9778106939993,None,1,0.5849306410000281,1306.9778106939993,None,172,1307.5791264060008,None,129,A,1,2021_May_28_1112,GazeFlow,2020.1.2,59.925088605628,
13,Block501.xls,A,,,,,,,,,,,,,,,,,,0,12,12,12,,,,,,,,,,,,,,,,,,,,,,,,,,,,,,,,,,,,,,,,,,,,129,A,1,2021_May_28_1112,GazeFlow,2020.1.2,59.925088605628,
14,Block513.xls,A,13,1,32,32,12,congruent,Right,Right,Left,19,16,3,blue,2,5,/home/docky/apps/exp/images/19B.jpeg,/home/docky/apps/exp/images/16Bi.jpeg,0,13,13,13,0,0,0,0,1328.0374206069991,None,1328.0374206069991,None,1,3.0094925290013634,1328.0374206069991,None,1331.0783216990003,None,1331.0783216990003,None,1333.5970119859994,None,1333.5970119859994,None,0.7156501340014074,1335.4005365199992,None,1335.4005365199992,None,5,1,0.8007446009996784,1336.1013961469998,None,1336.1013961469998,None,1336.1013961469998,None,1336.9189483970003,None,1,0.3842324520010152,1336.9189483970003,None,174,1337.3199748959996,None,129,A,1,2021_May_28_1112,GazeFlow,2020.1.2,59.925088605628,
14,Block513.xls,A,13,2,81,21,21,incongruent,Right,Left,Right,38,39,1,yellow,2,6,/home/docky/apps/exp/images/38Yi.jpeg,/home/docky/apps/exp/images/39Y.jpeg,0,13,13,13,0,1,1,1,1338.3221823219992,None,1338.3221823219992,None,1,1.6702230010014318,1338.3221823219992,None,1340.0093421250003,None,1340.0093421250003,None,1342.5292551589991,None,1342.5292551589991,None,0.9000916859986319,1344.3322129400003,None,1344.3322129400003,None,6,1,2.0047662680008216,1345.2189471969996,None,1345.2189471969996,None,1345.2189471969996,None,1347.2393143949994,None,1,0.7847192710014497,1347.2393143949994,None,176,1348.0406731429994,None,129,A,1,2021_May_28_1112,GazeFlow,2020.1.2,59.925088605628,
14,Block513.xls,A,13,3,92,32,22,incongruent,Left,Right,Left,19,16,3,blue,2,5,/home/docky/apps/exp/images/19B.jpeg,/home/docky/apps/exp/images/16Bi.jpeg,0,13,13,13,0,2,2,2,1349.0428875060006,None,1349.0428875060006,None,1,1.9708625240000401,1349.0428875060006,None,1351.0483864790003,None,1351.0483864790003,None,1353.5524639350006,None,1353.5524639350006,None,0.7329158029988321,1355.3539238890007,None,1355.3539238890007,None,5,1,0.801123044000633,1356.0734252830007,None,1356.0734252830007,None,1356.0734252830007,None,1356.8909162319997,None,1,0.5179107989988552,1356.8909162319997,None,178,1357.4255282779995,None,129,A,1,2021_May_28_1112,GazeFlow,2020.1.2,59.925088605628,
14,Block513.xls,A,13,4,6,6,11,congruent,Left,Left,Right,65,66,1,blue,2,6,/home/docky/apps/exp/images/35Y.jpeg,/home/docky/apps/exp/images/66Bi.jpeg,0,13,13,13,0,3,3,3,1358.4277873690007,None,1358.4277873690007,None,1,1.703713234001043,1358.4277873690007,None,1360.1653173030008,None,1360.1653173030008,None,1362.6699590330009,None,1362.6699590330009,None,0.6326230899994698,1364.473705945,None,1364.473705945,None,6,1,0.8347197479997703,1365.0907757189998,None,1365.0907757189998,None,1365.0907757189998,None,1365.9421506729996,None,1,0.4343026700007613,1365.9421506729996,None,180,1366.3928034210003,None,129,A,1,2021_May_28_1112,GazeFlow,2020.1.2,59.925088605628,
14,Block513.xls,A,13,5,67,7,21,incongruent,Right,Left,Right,38,39,1,blue,2,6,/home/docky/apps/exp/images/38Bi.jpeg,/home/docky/apps/exp/images/39B.jpeg,0,13,13,13,0,4,4,4,1367.395371736,None,1367.395371736,None,1,1.7369057489995612,1367.395371736,None,1369.1491977240003,None,1369.1491977240003,None,1371.6691808150008,None,1371.6691808150008,None,0.6996860920007748,1373.4721208390001,None,1373.4721208390001,None,5,0,0.8349429120007699,1374.1584516399998,None,1374.1584516399998,None,1374.1584516399998,None,1375.0096320440007,None,1,0.4007305710001674,1375.0096320440007,None,178,1375.4271928399994,None,129,A,1,2021_May_28_1112,GazeFlow,2020.1.2,59.925088605628,
14,Block513.xls,A,13,6,111,51,22,incongruent,Left,Right,Left,66,65,1,yellow,2,5,/home/docky/apps/exp/images/66Yi.jpeg,/home/docky/apps/exp/images/35B.jpeg,0,13,13,13,0,5,5,5,1376.4290694350002,None,1376.4290694350002,None,1,1.9548933009991742,1376.4290694350002,None,1378.4174206400003,None,1378.4174206400003,None,1380.920716789,None,1380.920716789,None,0.6996212640005979,1382.7185863230006,None,1382.7185863230006,None,5,1,0.7339970379998704,1383.4098842929998,None,1383.4098842929998,None,1383.4098842929998,None,1384.1607851030003,None,1,0.43434170100044867,1384.1607851030003,None,180,1384.611558556,None,129,A,1,2021_May_28_1112,GazeFlow,2020.1.2,59.925088605628,
14,Block513.xls,A,13,7,88,28,21,incongruent,Right,Left,Right,79,82,3,yellow,2,6,/home/docky/apps/exp/images/79Y.jpeg,/home/docky/apps/exp/images/80Yi.jpeg,0,13,13,13,0,6,6,6,1385.614142677001,None,1385.614142677001,None,1,1.8871410640003887,1385.614142677001,None,1387.5351468360004,None,1387.5351468360004,None,1390.039880364,None,1390.039880364,None,0.7329870590001519,1391.8416601619992,None,1391.8416601619992,None,6,1,0.7342501599996467,1392.5611538289995,None,1392.5611538289995,None,1392.5611538289995,None,1393.311762919,None,1,0.35083376900001895,1393.311762919,None,182,1393.6792363570003,None,129,A,1,2021_May_28_1112,GazeFlow,2020.1.2,59.925088605628,
14,Block513.xls,A,13,8,14,14,11,congruent,Left,Left,Right,80,83,3,blue,2,6,/home/docky/apps/exp/images/80B.jpeg,/home/docky/apps/exp/images/83Bi.jpeg,0,13,13,13,0,7,7,7,1394.681775385001,None,1394.681775385001,None,1,1.82026322099955,1394.681775385001,None,1396.5359189219998,None,1396.5359189219998,None,1399.0405292399992,None,1399.0405292399992,None,0.6827063860000635,1400.8423044560004,None,1400.8423044560004,None,6,1,0.7013137270005245,1401.5114940269996,None,1401.5114940269996,None,1401.5114940269996,None,1402.2290234299999,None,1,0.4176482650000253,1402.2290234299999,None,184,1402.6632170979992,None,129,A,1,2021_May_28_1112,GazeFlow,2020.1.2,59.925088605628,
14,Block513.xls,A,,,,,,,,,,,,,,,,,,0,13,13,13,,,,,,,,,,,,,,,,,,,,,,,,,,,,,,,,,,,,,,,,,,,,129,A,1,2021_May_28_1112,GazeFlow,2020.1.2,59.925088605628,
15,Block514.xls,A,14,1,113,53,22,incongruent,Left,Right,Left,75,69,6,yellow,2,5,/home/docky/apps/exp/images/76Y.jpeg,/home/docky/apps/exp/images/69Yi.jpeg,0,14,14,14,0,0,0,0,1420.0319553999998,None,1420.0319553999998,None,1,4.932590988999436,1420.0319553999998,None,1424.9979195399992,None,1424.9979195399992,None,1427.5127558910008,None,1427.5127558910008,None,0.7990424250001524,1429.314920977,None,1429.314920977,None,5,1,0.7844249909994687,1430.1006442300004,None,1430.1006442300004,None,1430.1006442300004,None,1430.9016591119998,None,1,0.46749317700050597,1430.9016591119998,None,186,1431.385686222,None,129,A,1,2021_May_28_1112,GazeFlow,2020.1.2,59.925088605628,
15,Block514.xls,A,14,2,45,45,12,congruent,Right,Right,Left,39,38,1,blue,2,5,/home/docky/apps/exp/images/39B.jpeg,/home/docky/apps/exp/images/38Bi.jpeg,0,14,14,14,0,1,1,1,1432.3881508230006,None,1432.3881508230006,None,1,2.4222140649999346,1432.3881508230006,None,1434.8434977420002,None,1434.8434977420002,None,1437.3465983299993,None,1437.3465983299993,None,0.8332030240017048,1439.1498043939991,None,1439.1498043939991,None,5,1,0.700757936001537,1439.9698287690007,None,1439.9698287690007,None,1439.9698287690007,None,1440.6869207309992,None,1,0.4843129660002887,1440.6869207309992,None,188,1441.1881240000002,None,129,A,1,2021_May_28_1112,GazeFlow,2020.1.2,59.925088605628,
15,Block514.xls,A,14,3,52,52,12,congruent,Right,Right,Left,75,69,6,yellow,2,5,/home/docky/apps/exp/images/76Y.jpeg,/home/docky/apps/exp/images/69Yi.jpeg,0,14,14,14,0,2,2,2,1442.1901272769992,None,1442.1901272769992,None,1,1.9046728590001294,1442.1901272769992,None,1444.1283091959995,None,1444.1283091959995,None,1446.6315304550008,None,1446.6315304550008,None,0.6994920209999691,1448.4368223340007,None,1448.4368223340007,None,5,1,0.7010971250001603,1449.12076118,None,1449.12076118,None,1449.12076118,None,1449.8384954419998,None,1,0.4007766710001306,1449.8384954419998,None,190,1450.2559416780005,None,129,A,1,2021_May_28_1112,GazeFlow,2020.1.2,59.925088605628,
15,Block514.xls,A,14,4,106,46,22,incongruent,Left,Right,Left,35,33,2,yellow,2,5,/home/docky/apps/exp/images/35Yi.jpeg,/home/docky/apps/exp/images/33Y.jpeg,0,14,14,14,0,3,3,3,1451.2582827330007,None,1451.2582827330007,None,1,1.5028225080004631,1451.2582827330007,None,1452.7782026570003,None,1452.7782026570003,None,1455.298455647,None,1455.298455647,None,0.5826108820001537,1457.1016719840009,None,1457.1016719840009,None,5,1,0.7175805440001568,1457.6708391280008,None,1457.6708391280008,None,1457.6708391280008,None,1458.4050453540003,None,1,0.43442903499999375,1458.4050453540003,None,192,1458.8561397899994,None,129,A,1,2021_May_28_1112,GazeFlow,2020.1.2,59.925088605628,
15,Block514.xls,A,14,5,109,49,22,incongruent,Left,Right,Left,39,38,1,yellow,2,5,/home/docky/apps/exp/images/39Yi.jpeg,/home/docky/apps/exp/images/38Y.jpeg,0,14,14,14,0,4,4,4,1459.8582630639994,None,1459.8582630639994,None,1,2.0205923529993015,1459.8582630639994,None,1461.9078125209999,None,1461.9078125209999,None,1464.4163347939993,None,1464.4163347939993,None,0.7161542100002407,1466.2199541320006,None,1466.2199541320006,None,5,1,0.8014766029991733,1466.9221783899993,None,1466.9221783899993,None,1466.9221783899993,None,1467.739769756001,None,1,0.4174650630011456,1467.739769756001,None,194,1468.1738956699992,None,129,A,1,2021_May_28_1112,GazeFlow,2020.1.2,59.925088605628,
15,Block514.xls,A,14,6,89,29,21,incongruent,Right,Left,Right,79,82,3,yellow,2,6,/home/docky/apps/exp/images/79Yi.jpeg,/home/docky/apps/exp/images/80Y.jpeg,0,14,14,14,0,5,5,5,1469.1759740840007,None,1469.1759740840007,None,1,1.9545664150009543,1469.1759740840007,None,1471.1623022000003,None,1471.1623022000003,None,1473.6675508589997,None,1473.6675508589997,None,0.6999006549995102,1475.4699621159998,None,1475.4699621159998,None,6,1,0.650583357000869,1476.1568197840006,None,1476.1568197840006,None,1476.1568197840006,None,1476.8242907309996,None,1,0.3007571389989607,1476.8242907309996,None,196,1477.1413269090008,None,129,A,1,2021_May_28_1112,GazeFlow,2020.1.2,59.925088605628,
15,Block514.xls,A,14,7,91,31,22,incongruent,Left,Right,Left,19,16,3,blue,2,5,/home/docky/apps/exp/images/19Bi.jpeg,/home/docky/apps/exp/images/16B.jpeg,0,14,14,14,0,6,6,6,1478.1438440870006,None,1478.1438440870006,None,1,1.8870698219998303,1478.1438440870006,None,1480.0481632280007,None,1480.0481632280007,None,1482.5675045629996,None,1482.5675045629996,None,0.7162915579992841,1484.371543061001,None,1484.371543061001,None,5,1,0.8176165929999115,1485.0741879439993,None,1485.0741879439993,None,1485.0741879439993,None,1485.9082731460003,None,1,0.36783113199999207,1485.9082731460003,None,198,1486.2925148470003,None,129,A,1,2021_May_28_1112,GazeFlow,2020.1.2,59.925088605628,
15,Block514.xls,A,14,8,79,19,21,incongruent,Right,Left,Right,62,65,3,yellow,2,6,/home/docky/apps/exp/images/38B.jpeg,/home/docky/apps/exp/images/35Bi.jpeg,0,14,14,14,0,7,7,7,1487.2945948369997,None,1487.2945948369997,None,1,1.7031537809998554,1487.2945948369997,None,1489.0150817779995,None,1489.0150817779995,None,1491.5370723369997,None,1491.5370723369997,None,0.6831384079996496,1493.3384284330004,None,1493.3384284330004,None,6,1,0.7172521600004984,1494.008205385,None,1494.008205385,None,1494.008205385,None,1494.7422591659997,None,1,0.35065293200023007,1494.7422591659997,None,200,1495.1096381089992,None,129,A,1,2021_May_28_1112,GazeFlow,2020.1.2,59.925088605628,
15,Block514.xls,A,,,,,,,,,,,,,,,,,,0,14,14,14,,,,,,,,,,,,,,,,,,,,,,,,,,,,,,,,,,,,,,,,,,,,129,A,1,2021_May_28_1112,GazeFlow,2020.1.2,59.925088605628,
