Nblock,condsFile,grouping,Block,TrialBlock,N,trialN,trialCond,gazeCon,gazedirR,corrBinR,corrBinP,valLBY,valRBY,diff,colorCube,feedbacktext,corrAns,imageL,imageR,SelBlocks.thisRepN,SelBlocks.thisTrialN,SelBlocks.thisN,SelBlocks.thisIndex,Trials.thisRepN,Trials.thisTrialN,Trials.thisN,Trials.thisIndex,waitCube.started,waitCube.stopped,text_3.started,text_3.stopped,StartKeyPress.keys,StartKeyPress.rt,StartKeyPress.started,StartKeyPress.stopped,StimL.started,StimL.stopped,StimR.started,StimR.stopped,imageStim2L.started,imageStim2L.stopped,imageStim2R.started,imageStim2R.stopped,RTkeyRelease,imageStim3L.started,imageStim3L.stopped,imageStim3R.started,imageStim3R.stopped,dropResp.keys,dropResp.corr,dropResp.rt,dropResp.started,dropResp.stopped,imageStim5L.started,imageStim5L.stopped,imageStim5R.started,imageStim5R.stopped,text_2.started,text_2.stopped,ReturnSpace.keys,ReturnSpace.rt,ReturnSpace.started,ReturnSpace.stopped,totalpoints,textFeedback.started,textFeedback.stopped,participant,group,session,date,expName,psychopyVersion,frameRate,
1,Block809.xls,B,9,1,93,93,None,congruent,Right,Right,Left,80,79,1,yellow,2,5,/home/docky/apps/exp/images/80Y.jpeg,/home/docky/apps/exp/images/79Yi.jpeg,0,0,0,0,0,0,0,0,50.021015821999754,None,50.021015821999754,None,1,6.085477786999036,50.021015821999754,None,56.14465067299898,None,56.14465067299898,None,58.65681876099916,None,58.65681876099916,None,1.70110137499978,60.45899076800015,None,60.45899076800015,None,5,1,6.346220366000125,62.143278178999026,None,62.143278178999026,None,62.143278178999026,None,68.50559483399957,None,1,2.6224084040004527,68.50559483399957,None,2,71.14406621099988,None,130,B,1,2021_May_28_1324,GazeFlow,2020.1.2,60.03624856610884,
1,Block809.xls,B,9,2,15,15,None,congruent,Left,Left,Right,38,39,1,blue,2,6,/home/docky/apps/exp/images/38B.jpeg,/home/docky/apps/exp/images/39Bi.jpeg,0,0,0,0,0,1,1,1,72.14602489400022,None,72.14602489400022,None,1,7.164170799000203,72.14602489400022,None,79.34414641399962,None,79.34414641399962,None,81.84879590699893,None,81.84879590699893,None,1.4176563910004916,83.65059551800005,None,83.65059551800005,None,5,0,1.0858355260006647,85.05463072199927,None,85.05463072199927,None,85.05463072199927,None,86.15664088399899,None,1,0.8846384289990965,86.15664088399899,None,0,87.05784482699892,None,130,B,1,2021_May_28_1324,GazeFlow,2020.1.2,60.03624856610884,
1,Block809.xls,B,9,3,117,21,None,incongruent,Left,Right,Left,39,38,1,yellow,2,5,/home/docky/apps/exp/images/39Yi.jpeg,/home/docky/apps/exp/images/38Y.jpeg,0,0,0,0,0,2,2,2,88.06003843299914,None,88.06003843299914,None,1,6.3461600719983835,88.06003843299914,None,94.44039492699994,None,94.44039492699994,None,96.94779570799983,None,96.94779570799983,None,2.186424891999195,98.74813559999893,None,98.74813559999893,None,5,1,1.1017797149997932,100.91863563799961,None,100.91863563799961,None,100.91863563799961,None,102.03697724700032,None,1,0.8183515640012047,102.03697724700032,None,2,102.8717624059991,None,130,B,1,2021_May_28_1324,GazeFlow,2020.1.2,60.03624856610884,
1,Block809.xls,B,9,4,94,94,None,congruent,Right,Right,Left,80,79,1,yellow,2,5,/home/docky/apps/exp/images/80Y.jpeg,/home/docky/apps/exp/images/79Yi.jpeg,0,0,0,0,0,3,3,3,103.87431034099973,None,103.87431034099973,None,1,5.778596115000255,103.87431034099973,None,109.68622818199947,None,109.68622818199947,None,112.18832520999968,None,112.18832520999968,None,1.6347657030000846,113.98871003800014,None,113.98871003800014,None,5,1,1.152594864999628,115.61398643099892,None,115.61398643099892,None,115.61398643099892,None,116.7827836109991,None,1,0.7509143729985226,116.7827836109991,None,4,117.55061844500051,None,130,B,1,2021_May_28_1324,GazeFlow,2020.1.2,60.03624856610884,
1,Block809.xls,B,9,5,41,41,None,congruent,Right,Right,Left,79,76,3,blue,2,5,/home/docky/apps/exp/images/79Bi.jpeg,/home/docky/apps/exp/images/76B.jpeg,0,0,0,0,0,4,4,4,118.55262826899889,None,118.55262826899889,None,1,5.2946422250006435,118.55262826899889,None,123.88069122699926,None,123.88069122699926,None,126.38293807899936,None,126.38293807899936,None,1.5674719250000635,128.1872950729994,None,128.1872950729994,None,5,1,1.0350233440003649,129.74140957999953,None,129.74140957999953,None,129.74140957999953,None,130.7933754400001,None,1,0.784331311000642,130.7933754400001,None,6,131.59450245399967,None,130,B,1,2021_May_28_1324,GazeFlow,2020.1.2,60.03624856610884,
1,Block809.xls,B,9,6,36,36,None,congruent,Right,Right,Left,79,73,6,blue,2,5,/home/docky/apps/exp/images/79Bi.jpeg,/home/docky/apps/exp/images/73B.jpeg,0,0,0,0,0,5,5,5,132.5966059959992,None,132.5966059959992,None,1,5.377458240998749,132.5966059959992,None,138.00778834700031,None,138.00778834700031,None,140.5125158640003,None,140.5125158640003,None,1.5177360839988978,142.31398227200043,None,142.31398227200043,None,5,1,1.3025684959993669,143.81861036900045,None,143.81861036900045,None,143.81861036900045,None,145.1377643449996,None,1,0.7009361239997816,145.1377643449996,None,8,145.85523274799925,None,130,B,1,2021_May_28_1324,GazeFlow,2020.1.2,60.03624856610884,
1,Block809.xls,B,9,7,78,78,None,congruent,Right,Right,Left,39,38,1,yellow,2,5,/home/docky/apps/exp/images/39Yi.jpeg,/home/docky/apps/exp/images/38Y.jpeg,0,0,0,0,0,6,6,6,146.85769196399997,None,146.85769196399997,None,1,5.344457101000444,146.85769196399997,None,152.23952803300017,None,152.23952803300017,None,154.7384659620002,None,154.7384659620002,None,1.951961600998402,156.54197452699918,None,156.54197452699918,None,5,1,0.9689126510002097,158.4805624820001,None,158.4805624820001,None,158.4805624820001,None,159.46516314600012,None,1,0.7184831340000528,159.46516314600012,None,10,160.19980091899924,None,130,B,1,2021_May_28_1324,GazeFlow,2020.1.2,60.03624856610884,
1,Block809.xls,B,9,8,29,29,None,congruent,Right,Right,Left,38,35,3,blue,2,5,/home/docky/apps/exp/images/38B.jpeg,/home/docky/apps/exp/images/35Bi.jpeg,0,0,0,0,0,7,7,7,161.202252735,None,161.202252735,None,1,5.093711077999615,161.202252735,None,166.32968686099957,None,166.32968686099957,None,168.83535667599972,None,168.83535667599972,None,1.8518185890006862,170.6360208799997,None,170.6360208799997,None,5,1,1.1686125330015784,172.47433531299976,None,172.47433531299976,None,172.47433531299976,None,173.6592206330006,None,1,0.7346930539988534,173.6592206330006,None,12,174.4107136700004,None,130,B,1,2021_May_28_1324,GazeFlow,2020.1.2,60.03624856610884,
1,Block809.xls,B,,,,,,,,,,,,,,,,,,0,0,0,0,,,,,,,,,,,,,,,,,,,,,,,,,,,,,,,,,,,,,,,,,,,,130,B,1,2021_May_28_1324,GazeFlow,2020.1.2,60.03624856610884,
2,Block805.xls,B,5,1,16,16,None,congruent,Left,Left,Right,73,76,3,blue,2,6,/home/docky/apps/exp/images/73B.jpeg,/home/docky/apps/exp/images/76Bi.jpeg,0,1,1,1,0,0,0,0,193.33278966000034,None,193.33278966000034,None,1,7.406022884999402,193.33278966000034,None,200.76513589000024,None,200.76513589000024,None,203.28451671199946,None,203.28451671199946,None,1.5169289120003668,205.08136270999967,None,205.08136270999967,None,6,1,3.825001549999797,206.59030967199942,None,206.59030967199942,None,206.59030967199942,None,210.4310401290004,None,1,1.0023624649984413,210.4310401290004,None,14,211.4499823389997,None,130,B,1,2021_May_28_1324,GazeFlow,2020.1.2,60.03624856610884,
2,Block805.xls,B,5,2,2,2,None,congruent,Left,Left,Right,16,19,3,blue,2,6,/home/docky/apps/exp/images/16B.jpeg,/home/docky/apps/exp/images/19Bi.jpeg,0,1,1,1,0,1,1,1,212.45163259000037,None,212.45163259000037,None,1,5.761572026000067,212.45163259000037,None,218.24718052000026,None,218.24718052000026,None,220.75180993699905,None,220.75180993699905,None,1.5013906189997215,222.55556189600065,None,222.55556189600065,None,6,1,1.018367668000792,224.0413750080006,None,224.0413750080006,None,224.0413750080006,None,225.07606433199908,None,1,0.7179812449994643,225.07606433199908,None,16,225.81074857699969,None,130,B,1,2021_May_28_1324,GazeFlow,2020.1.2,60.03624856610884,
2,Block805.xls,B,5,3,64,64,None,congruent,Left,Left,Right,69,76,7,yellow,2,6,/home/docky/apps/exp/images/69Y.jpeg,/home/docky/apps/exp/images/76Yi.jpeg,0,1,1,1,0,2,2,2,226.81301068100038,None,226.81301068100038,None,1,5.277156477000972,226.81301068100038,None,232.12418096699912,None,232.12418096699912,None,234.6272679550002,None,234.6272679550002,None,1.6181541379992268,236.43045270599941,None,236.43045270599941,None,6,1,1.1189153480008827,238.0350939229993,None,238.0350939229993,None,238.0350939229993,None,239.17040019399974,None,1,0.7011658219998935,239.17040019399974,None,18,239.88832362999892,None,130,B,1,2021_May_28_1324,GazeFlow,2020.1.2,60.03624856610884,
2,Block805.xls,B,5,4,61,61,None,congruent,Left,Left,Right,38,39,1,yellow,2,6,/home/docky/apps/exp/images/38Yi.jpeg,/home/docky/apps/exp/images/39Y.jpeg,0,1,1,1,0,3,3,3,240.89057872800004,None,240.89057872800004,None,1,5.510884500999964,240.89057872800004,None,246.43521189000057,None,246.43521189000057,None,248.9380174449998,None,248.9380174449998,None,2.603538325000045,250.74143790199923,None,250.74143790199923,None,6,1,1.6710209649991157,253.34676259300068,None,253.34676259300068,None,253.34676259300068,None,255.0346224290006,None,1,0.7516802560003271,255.0346224290006,None,20,255.80255399599992,None,130,B,1,2021_May_28_1324,GazeFlow,2020.1.2,60.03624856610884,
2,Block805.xls,B,5,5,23,23,None,congruent,Left,Left,Right,80,83,3,blue,2,6,/home/docky/apps/exp/images/80B.jpeg,/home/docky/apps/exp/images/83Bi.jpeg,0,1,1,1,0,4,4,4,256.804714640999,None,256.804714640999,None,1,4.909695902000749,256.804714640999,None,261.7485140509998,None,261.7485140509998,None,264.25337745899924,None,264.25337745899924,None,1.9351552490006725,266.050218725999,None,266.050218725999,None,6,1,1.051779188999717,267.97655889899943,None,267.97655889899943,None,267.97655889899943,None,269.04477388099986,None,1,0.7515119689996936,269.04477388099986,None,22,269.81295187700016,None,130,B,1,2021_May_28_1324,GazeFlow,2020.1.2,60.03624856610884,
2,Block805.xls,B,5,6,87,87,None,congruent,Right,Right,Left,76,69,7,yellow,2,5,/home/docky/apps/exp/images/76Yi.jpeg,/home/docky/apps/exp/images/69Y.jpeg,0,1,1,1,0,5,5,5,270.81534726599966,None,270.81534726599966,None,1,6.012979840999833,270.81534726599966,None,276.86111721499947,None,276.86111721499947,None,279.36542246299905,None,279.36542246299905,None,2.235814048000975,281.1653637700001,None,281.1653637700001,None,5,1,1.0850078780003969,283.38976967000053,None,283.38976967000053,None,283.38976967000053,None,284.4912743780005,None,1,0.8182995040006062,284.4912743780005,None,24,285.3263093080004,None,130,B,1,2021_May_28_1324,GazeFlow,2020.1.2,60.03624856610884,
2,Block805.xls,B,5,7,4,4,None,congruent,Left,Left,Right,35,38,3,blue,2,6,/home/docky/apps/exp/images/35B.jpeg,/home/docky/apps/exp/images/38Bi.jpeg,0,1,1,1,0,6,6,6,286.3287764380002,None,286.3287764380002,None,1,5.92836810100016,286.3287764380002,None,292.29098099399926,None,292.29098099399926,None,294.7959354020004,None,294.7959354020004,None,1.8686820269995223,296.5975636990006,None,296.5975636990006,None,6,1,1.118102963999263,298.45268123200003,None,298.45268123200003,None,298.45268123200003,None,299.5872401279994,None,1,0.684886650999033,299.5872401279994,None,26,300.2888198569999,None,130,B,1,2021_May_28_1324,GazeFlow,2020.1.2,60.03624856610884,
2,Block805.xls,B,5,8,114,18,None,incongruent,Right,Left,Right,79,82,3,yellow,2,6,/home/docky/apps/exp/images/79Y.jpeg,/home/docky/apps/exp/images/80Yi.jpeg,0,1,1,1,0,7,7,7,301.2907784990002,None,301.2907784990002,None,1,5.1105180279992055,301.2907784990002,None,306.43520304199956,None,306.43520304199956,None,308.939859479,None,308.939859479,None,1.3172087160000956,310.7416338519997,None,310.7416338519997,None,6,1,1.1522429480010032,312.04555474100016,None,312.04555474100016,None,312.04555474100016,None,313.21425001900025,None,1,0.6344488779996027,313.21425001900025,None,28,313.8652330650002,None,130,B,1,2021_May_28_1324,GazeFlow,2020.1.2,60.03624856610884,
2,Block805.xls,B,,,,,,,,,,,,,,,,,,0,1,1,1,,,,,,,,,,,,,,,,,,,,,,,,,,,,,,,,,,,,,,,,,,,,130,B,1,2021_May_28_1324,GazeFlow,2020.1.2,60.03624856610884,
3,Block804.xls,B,4,1,95,95,None,congruent,Right,Right,Left,80,79,1,yellow,2,5,/home/docky/apps/exp/images/80Yi.jpeg,/home/docky/apps/exp/images/79Y.jpeg,0,2,2,2,0,0,0,0,332.93831582500025,None,332.93831582500025,None,1,7.920230488000016,332.93831582500025,None,340.88920579799924,None,340.88920579799924,None,343.4066601300001,None,343.4066601300001,None,1.283408678998967,345.21042481099903,None,345.21042481099903,None,5,1,0.9513311669998075,346.47912666400043,None,346.47912666400043,None,346.47912666400043,None,347.4472099550003,None,1,0.7347126490003575,347.4472099550003,None,30,348.198124257,None,130,B,1,2021_May_28_1324,GazeFlow,2020.1.2,60.03624856610884,
3,Block804.xls,B,4,2,107,11,None,incongruent,Left,Right,Left,83,80,3,blue,2,5,/home/docky/apps/exp/images/83Bi.jpeg,/home/docky/apps/exp/images/80B.jpeg,0,2,2,2,0,1,1,1,349.2006017780004,None,349.2006017780004,None,1,4.859980192999501,349.2006017780004,None,354.09757685399927,None,354.09757685399927,None,356.5976969500007,None,356.5976969500007,None,1.334166106998964,358.4004691459995,None,358.4004691459995,None,5,1,1.0181540100002167,359.7214823680006,None,359.7214823680006,None,359.7214823680006,None,360.75699626700043,None,1,0.6005876960007299,360.75699626700043,None,32,361.3739908619991,None,130,B,1,2021_May_28_1324,GazeFlow,2020.1.2,60.03624856610884,
3,Block804.xls,B,4,3,27,27,None,congruent,Right,Right,Left,19,16,3,blue,2,5,/home/docky/apps/exp/images/19Bi.jpeg,/home/docky/apps/exp/images/16B.jpeg,0,2,2,2,0,2,2,2,362.37578903400026,None,362.37578903400026,None,1,5.427937985999961,362.37578903400026,None,367.8375555379989,None,367.8375555379989,None,370.34775693200027,None,370.34775693200027,None,1.3507070039995597,372.1384187959993,None,372.1384187959993,None,5,1,1.0016753620002419,373.4817015940007,None,373.4817015940007,None,373.4817015940007,None,374.5000383530005,None,1,0.6341150019998167,374.5000383530005,None,34,375.15091351699994,None,130,B,1,2021_May_28_1324,GazeFlow,2020.1.2,60.03624856610884,
3,Block804.xls,B,4,4,101,5,None,incongruent,Right,Left,Right,76,79,3,blue,2,6,/home/docky/apps/exp/images/76B.jpeg,/home/docky/apps/exp/images/79Bi.jpeg,0,2,2,2,0,3,3,3,376.15290798299975,None,376.15290798299975,None,1,5.861954730999059,376.15290798299975,None,382.0487325590002,None,382.0487325590002,None,384.55218250299913,None,384.55218250299913,None,1.4679256200015516,386.3550876629997,None,386.3550876629997,None,6,1,1.00236091700026,387.8092303800004,None,387.8092303800004,None,387.8092303800004,None,388.8278404440007,None,1,0.6006797190002544,388.8278404440007,None,36,389.44522935500027,None,130,B,1,2021_May_28_1324,GazeFlow,2020.1.2,60.03624856610884,
3,Block804.xls,B,4,5,47,47,None,congruent,Right,Right,Left,39,38,1,blue,2,5,/home/docky/apps/exp/images/39Bi.jpeg,/home/docky/apps/exp/images/38B.jpeg,0,2,2,2,0,4,4,4,390.4474406879999,None,390.4474406879999,None,1,4.2084630810004455,390.4474406879999,None,394.6899730549994,None,394.6899730549994,None,397.1791414189993,None,397.1791414189993,None,2.871142239000619,398.9906451379993,None,398.9906451379993,None,6,0,2.55583098399984,401.86920229799944,None,401.86920229799944,None,401.86920229799944,None,404.4415809729999,None,1,0.6181625079989317,404.4415809729999,None,34,405.07587448699996,None,130,B,1,2021_May_28_1324,GazeFlow,2020.1.2,60.03624856610884,
3,Block804.xls,B,4,6,90,90,None,congruent,Right,Right,Left,77,72,5,yellow,2,5,/home/docky/apps/exp/images/77Yi.jpeg,/home/docky/apps/exp/images/72Y.jpeg,0,2,2,2,0,5,5,5,406.0781436969992,None,406.0781436969992,None,1,5.110078378000253,406.0781436969992,None,411.2222735659998,None,411.2222735659998,None,413.72676394500013,None,413.72676394500013,None,1.2005574349987,415.53055119000055,None,415.53055119000055,None,5,1,1.0015367769992736,416.7156940149998,None,416.7156940149998,None,416.7156940149998,None,417.7338813240003,None,1,0.6683225489996403,417.7338813240003,None,36,418.41874348499914,None,130,B,1,2021_May_28_1324,GazeFlow,2020.1.2,60.03624856610884,
3,Block804.xls,B,4,7,12,12,None,congruent,Left,Left,Right,38,39,1,blue,2,6,/home/docky/apps/exp/images/38B.jpeg,/home/docky/apps/exp/images/39Bi.jpeg,0,2,2,2,0,6,6,6,419.42034038699967,None,419.42034038699967,None,1,5.5112760749998415,419.42034038699967,None,424.9653902890004,None,424.9653902890004,None,427.4700056950005,None,427.4700056950005,None,1.8685169230011525,429.2718487789989,None,429.2718487789989,None,5,0,1.1684939800015854,431.12690156700046,None,431.12690156700046,None,431.12690156700046,None,432.3120126619997,None,1,0.6680997570001637,432.3120126619997,None,34,432.996739885999,None,130,B,1,2021_May_28_1324,GazeFlow,2020.1.2,60.03624856610884,
3,Block804.xls,B,4,8,20,20,None,congruent,Left,Left,Right,76,79,3,blue,2,6,/home/docky/apps/exp/images/76Bi.jpeg,/home/docky/apps/exp/images/79B.jpeg,0,2,2,2,0,7,7,7,433.99901915400005,None,433.99901915400005,None,1,5.477490195000428,433.99901915400005,None,439.5103224270006,None,439.5103224270006,None,442.01305100399986,None,442.01305100399986,None,1.250716687000022,443.8165516810004,None,443.8165516810004,None,6,1,1.1352907479995338,445.0539707480002,None,445.0539707480002,None,445.0539707480002,None,446.2059160509998,None,1,0.6675266689999262,446.2059160509998,None,36,446.8899536120007,None,130,B,1,2021_May_28_1324,GazeFlow,2020.1.2,60.03624856610884,
3,Block804.xls,B,,,,,,,,,,,,,,,,,,0,2,2,2,,,,,,,,,,,,,,,,,,,,,,,,,,,,,,,,,,,,,,,,,,,,130,B,1,2021_May_28_1324,GazeFlow,2020.1.2,60.03624856610884,
4,Block814.xls,B,14,1,99,3,None,incongruent,Right,Left,Right,65,66,1,blue,2,6,/home/docky/apps/exp/images/35Yi.jpeg,/home/docky/apps/exp/images/66B.jpeg,0,3,3,3,0,0,0,0,465.42924243999914,None,465.42924243999914,None,1,5.666868195001371,465.42924243999914,None,471.1253688430006,None,471.1253688430006,None,473.6432801129995,None,473.6432801129995,None,3.3547798180006794,475.44648902299923,None,475.44648902299923,None,6,1,3.7550728250007523,478.805084231999,None,478.805084231999,None,478.805084231999,None,482.5766397869993,None,1,0.7516783209994173,482.5766397869993,None,38,483.34473799399893,None,130,B,1,2021_May_28_1324,GazeFlow,2020.1.2,60.03624856610884,
4,Block814.xls,B,14,2,34,34,None,congruent,Right,Right,Left,66,65,1,blue,2,5,/home/docky/apps/exp/images/66B.jpeg,/home/docky/apps/exp/images/35Yi.jpeg,0,3,3,3,0,1,1,1,484.34693975700065,None,484.34693975700065,None,1,4.759265762000723,484.34693975700065,None,489.14004113699957,None,489.14004113699957,None,491.64334364299975,None,491.64334364299975,None,1.317430039998726,493.44795388499915,None,493.44795388499915,None,5,1,1.419023341000866,494.7503841329999,None,494.7503841329999,None,494.7503841329999,None,496.185862246999,None,1,0.8019901210009266,496.185862246999,None,40,497.0041498139999,None,130,B,1,2021_May_28_1324,GazeFlow,2020.1.2,60.03624856610884,
4,Block814.xls,B,14,3,91,91,None,congruent,Right,Right,Left,77,72,5,yellow,2,5,/home/docky/apps/exp/images/77Yi.jpeg,/home/docky/apps/exp/images/72Y.jpeg,0,3,3,3,0,2,2,2,498.0066536009999,None,498.0066536009999,None,1,5.2106529970005795,498.0066536009999,None,503.25072714899943,None,503.25072714899943,None,505.75565723199907,None,505.75565723199907,None,1.2169129410012829,507.55733401199905,None,507.55733401199905,None,5,1,1.0852303730007407,508.7610149760003,None,508.7610149760003,None,508.7610149760003,None,509.8630725969997,None,1,0.6339617109988467,509.8630725969997,None,42,510.5137516750001,None,130,B,1,2021_May_28_1324,GazeFlow,2020.1.2,60.03624856610884,
4,Block814.xls,B,14,4,68,68,None,congruent,Left,Left,Right,72,77,5,yellow,2,6,/home/docky/apps/exp/images/72Yi.jpeg,/home/docky/apps/exp/images/77Y.jpeg,0,3,3,3,0,3,3,3,511.5158051260005,None,511.5158051260005,None,1,4.977792200999829,511.5158051260005,None,516.5264791270001,None,516.5264791270001,None,519.0313619419994,None,519.0313619419994,None,1.1674248720009928,520.8347939579999,None,520.8347939579999,None,6,1,1.0181342350006162,521.9867141230006,None,521.9867141230006,None,521.9867141230006,None,523.0212189430003,None,1,0.6020291120003094,523.0212189430003,None,44,523.6396660499995,None,130,B,1,2021_May_28_1324,GazeFlow,2020.1.2,60.03624856610884,
4,Block814.xls,B,14,5,66,66,None,congruent,Left,Left,Right,69,76,7,yellow,2,6,/home/docky/apps/exp/images/69Yi.jpeg,/home/docky/apps/exp/images/76Y.jpeg,0,3,3,3,0,4,4,4,524.6413628829996,None,524.6413628829996,None,1,4.175973422999959,524.6413628829996,None,528.8506562629991,None,528.8506562629991,None,531.3555804980006,None,531.3555804980006,None,1.283955163000428,533.1522429750003,None,533.1522429750003,None,6,1,0.968192899999849,534.4272532470004,None,534.4272532470004,None,534.4272532470004,None,535.4120745010005,None,1,0.8351543850003509,535.4120745010005,None,46,536.2639831420001,None,130,B,1,2021_May_28_1324,GazeFlow,2020.1.2,60.03624856610884,
4,Block814.xls,B,14,6,115,19,None,incongruent,Left,Right,Left,80,79,1,yellow,2,5,/home/docky/apps/exp/images/80Yi.jpeg,/home/docky/apps/exp/images/79Y.jpeg,0,3,3,3,0,5,5,5,537.2655007049998,None,537.2655007049998,None,1,5.3279871300001105,537.2655007049998,None,542.6273337170005,None,542.6273337170005,None,545.1296938619998,None,545.1296938619998,None,1.2505866620012966,546.9339157539998,None,546.9339157539998,None,5,1,1.0351109679995716,548.1706881509999,None,548.1706881509999,None,548.1706881509999,None,549.2220612549991,None,1,0.5851780459997826,549.2220612549991,None,48,549.8239061610002,None,130,B,1,2021_May_28_1324,GazeFlow,2020.1.2,60.03624856610884,
4,Block814.xls,B,14,7,9,9,None,congruent,Left,Left,Right,65,66,1,blue,2,6,/home/docky/apps/exp/images/35Yi.jpeg,/home/docky/apps/exp/images/66B.jpeg,0,3,3,3,0,6,6,6,550.8259291699997,None,550.8259291699997,None,1,4.993396654999742,550.8259291699997,None,555.8530101960005,None,555.8530101960005,None,558.3560510949992,None,558.3560510949992,None,2.3528211430002557,560.1537430949993,None,560.1537430949993,None,5,0,1.4851295270000264,562.4990585609994,None,562.4990585609994,None,562.4990585609994,None,564.0009136489989,None,1,0.61867742999857,564.0009136489989,None,46,564.6357226879991,None,130,B,1,2021_May_28_1324,GazeFlow,2020.1.2,60.03624856610884,
4,Block814.xls,B,14,8,14,14,None,congruent,Left,Left,Right,38,39,1,blue,2,6,/home/docky/apps/exp/images/38Bi.jpeg,/home/docky/apps/exp/images/39B.jpeg,0,3,3,3,0,7,7,7,565.6379820010006,None,565.6379820010006,None,1,5.310503029999381,565.6379820010006,None,570.9830410569994,None,570.9830410569994,None,573.4855086909993,None,573.4855086909993,None,1.5347262269988278,575.2891096160001,None,575.2891096160001,None,6,1,1.1516209119999985,576.8098517159997,None,576.8098517159997,None,576.8098517159997,None,577.9786123390004,None,1,0.6172981039999286,577.9786123390004,None,48,578.6127544739993,None,130,B,1,2021_May_28_1324,GazeFlow,2020.1.2,60.03624856610884,
4,Block814.xls,B,,,,,,,,,,,,,,,,,,0,3,3,3,,,,,,,,,,,,,,,,,,,,,,,,,,,,,,,,,,,,,,,,,,,,130,B,1,2021_May_28_1324,GazeFlow,2020.1.2,60.03624856610884,
5,Block812.xls,B,12,1,18,18,None,congruent,Left,Left,Right,73,76,3,blue,2,6,/home/docky/apps/exp/images/73B.jpeg,/home/docky/apps/exp/images/76Bi.jpeg,0,4,4,4,0,0,0,0,597.6017224059997,None,597.6017224059997,None,1,5.716669213999921,597.6017224059997,None,603.3493618850007,None,603.3493618850007,None,605.8668840289993,None,605.8668840289993,None,1.183314085001257,607.6705227210005,None,607.6705227210005,None,6,1,0.984876690999954,608.8386954229991,None,608.8386954229991,None,608.8386954229991,None,609.8402334860002,None,1,0.6517560100000992,609.8402334860002,None,50,610.5084579190006,None,130,B,1,2021_May_28_1324,GazeFlow,2020.1.2,60.03624856610884,
5,Block812.xls,B,12,2,3,3,None,congruent,Left,Left,Right,16,19,3,blue,2,6,/home/docky/apps/exp/images/16Bi.jpeg,/home/docky/apps/exp/images/19B.jpeg,0,4,4,4,0,1,1,1,611.5098727389995,None,611.5098727389995,None,1,5.1111478000002535,611.5098727389995,None,616.6549378300006,None,616.6549378300006,None,619.1589585069996,None,619.1589585069996,None,1.150422795999475,620.9546184009996,None,620.9546184009996,None,6,1,0.9680154180005047,622.0977842159991,None,622.0977842159991,None,622.0977842159991,None,623.0824224309999,None,1,0.7023652120005863,623.0824224309999,None,52,623.8011793370006,None,130,B,1,2021_May_28_1324,GazeFlow,2020.1.2,60.03624856610884,
5,Block812.xls,B,12,3,56,56,None,congruent,Left,Left,Right,62,65,3,yellow,2,6,/home/docky/apps/exp/images/38Bi.jpeg,/home/docky/apps/exp/images/35B.jpeg,0,4,4,4,0,2,2,2,624.8023513349999,None,624.8023513349999,None,1,4.793246855000689,624.8023513349999,None,629.6295646710005,None,629.6295646710005,None,632.1344141320005,None,632.1344141320005,None,1.150293654998677,633.9396072349991,None,633.9396072349991,None,6,1,1.0513717609992455,635.073066297,None,635.073066297,None,635.073066297,None,636.1411890220006,None,1,0.5845587809999415,636.1411890220006,None,54,636.7420909699995,None,130,B,1,2021_May_28_1324,GazeFlow,2020.1.2,60.03624856610884,
5,Block812.xls,B,12,4,11,11,None,congruent,Left,Left,Right,38,39,1,blue,2,6,/home/docky/apps/exp/images/38B.jpeg,/home/docky/apps/exp/images/39Bi.jpeg,0,4,4,4,0,3,3,3,637.7442521399989,None,637.7442521399989,None,1,5.394523934999597,637.7442521399989,None,643.1727013599993,None,643.1727013599993,None,645.6774550030004,None,645.6774550030004,None,1.835046931000761,647.4791214880006,None,647.4791214880006,None,5,0,1.4855240550004964,649.300673107,None,649.300673107,None,649.300673107,None,650.8029332229999,None,1,0.5679777000004833,650.8029332229999,None,52,651.3873431150005,None,130,B,1,2021_May_28_1324,GazeFlow,2020.1.2,60.03624856610884,
5,Block812.xls,B,12,5,116,20,None,incongruent,Left,Right,Left,35,33,2,yellow,2,5,/home/docky/apps/exp/images/35Yi.jpeg,/home/docky/apps/exp/images/33Y.jpeg,0,4,4,4,0,4,4,4,652.3897864619994,None,652.3897864619994,None,1,5.194196563999867,652.3897864619994,None,657.6173931989997,None,657.6173931989997,None,660.1221398449998,None,660.1221398449998,None,1.117084925999734,661.924268449,None,661.924268449,None,5,1,3.0889976939997723,663.0270769559993,None,663.0270769559993,None,663.0270769559993,None,666.1327594499999,None,1,0.852797551000549,666.1327594499999,None,54,667.0016159309998,None,130,B,1,2021_May_28_1324,GazeFlow,2020.1.2,60.03624856610884,
5,Block812.xls,B,12,6,40,40,None,congruent,Right,Right,Left,79,76,3,blue,2,5,/home/docky/apps/exp/images/79Bi.jpeg,/home/docky/apps/exp/images/76B.jpeg,0,4,4,4,0,5,5,5,668.003422763999,None,668.003422763999,None,1,6.128814462999799,668.003422763999,None,674.1661311570006,None,674.1661311570006,None,676.6709609469999,None,676.6709609469999,None,1.100514583000404,678.4729196469998,None,678.4729196469998,None,5,1,1.0684976860011375,679.559104865999,None,679.559104865999,None,679.559104865999,None,680.6444481649996,None,1,0.63501338199967,680.6444481649996,None,56,681.2959439469996,None,130,B,1,2021_May_28_1324,GazeFlow,2020.1.2,60.03624856610884,
5,Block812.xls,B,12,7,76,76,None,congruent,Right,Right,Left,39,38,1,yellow,2,5,/home/docky/apps/exp/images/39Yi.jpeg,/home/docky/apps/exp/images/38Y.jpeg,0,4,4,4,0,6,6,6,682.2975871090002,None,682.2975871090002,None,1,4.7096530700000585,682.2975871090002,None,687.0409915740001,None,687.0409915740001,None,689.5438354529997,None,689.5438354529997,None,1.5512064810009178,691.3469256869994,None,691.3469256869994,None,5,1,1.619597787001112,692.8851704699991,None,692.8851704699991,None,692.8851704699991,None,694.5209684540005,None,1,0.7688122370000201,694.5209684540005,None,58,695.3062711500006,None,130,B,1,2021_May_28_1324,GazeFlow,2020.1.2,60.03624856610884,
5,Block812.xls,B,12,8,77,77,None,congruent,Right,Right,Left,39,38,1,yellow,2,5,/home/docky/apps/exp/images/39Y.jpeg,/home/docky/apps/exp/images/38Yi.jpeg,0,4,4,4,0,7,7,7,696.3083131650001,None,696.3083131650001,None,1,5.711485367999558,696.3083131650001,None,702.0535741429994,None,702.0535741429994,None,704.556991599,None,704.556991599,None,1.2505976040010864,706.3603117059993,None,706.3603117059993,None,5,1,1.11924515300052,707.5971916319995,None,707.5971916319995,None,707.5971916319995,None,708.7325279759989,None,1,0.667609859001459,708.7325279759989,None,60,709.4168885479994,None,130,B,1,2021_May_28_1324,GazeFlow,2020.1.2,60.03624856610884,
5,Block812.xls,B,,,,,,,,,,,,,,,,,,0,4,4,4,,,,,,,,,,,,,,,,,,,,,,,,,,,,,,,,,,,,,,,,,,,,130,B,1,2021_May_28_1324,GazeFlow,2020.1.2,60.03624856610884,
6,Block803.xls,B,3,1,84,84,None,congruent,Right,Right,Left,75,69,6,yellow,2,5,/home/docky/apps/exp/images/76Yi.jpeg,/home/docky/apps/exp/images/69Y.jpeg,0,5,5,5,0,0,0,0,729.8250792849994,None,729.8250792849994,None,1,6.267850144000477,729.8250792849994,None,736.1200502499996,None,736.1200502499996,None,738.6410715700003,None,738.6410715700003,None,1.2499230859993986,740.4449961850005,None,740.4449961850005,None,5,1,0.9678846309998335,741.6800441880005,None,741.6800441880005,None,741.6800441880005,None,742.6646173429999,None,1,1.636600247999013,742.6646173429999,None,62,744.3179940770005,None,130,B,1,2021_May_28_1324,GazeFlow,2020.1.2,60.03624856610884,
6,Block803.xls,B,3,2,82,82,None,congruent,Right,Right,Left,66,65,1,yellow,2,5,/home/docky/apps/exp/images/66Y.jpeg,/home/docky/apps/exp/images/35Bi.jpeg,0,5,5,5,0,1,1,1,745.3201801279993,None,745.3201801279993,None,1,4.977163260000452,745.3201801279993,None,750.3305283169993,None,750.3305283169993,None,752.8363374420005,None,752.8363374420005,None,3.1549559390005015,754.6373605899989,None,754.6373605899989,None,6,0,1.119287790999806,757.7935809289993,None,757.7935809289993,None,757.7935809289993,None,758.9295936180006,None,1,0.7349316979998548,758.9295936180006,None,60,759.6810163360005,None,130,B,1,2021_May_28_1324,GazeFlow,2020.1.2,60.03624856610884,
6,Block803.xls,B,3,3,80,80,None,congruent,Right,Right,Left,66,65,1,yellow,2,5,/home/docky/apps/exp/images/66Yi.jpeg,/home/docky/apps/exp/images/35B.jpeg,0,5,5,5,0,2,2,2,760.6833709509992,None,760.6833709509992,None,1,4.859734255998774,760.6833709509992,None,765.5754246420001,None,765.5754246420001,None,768.0819192309991,None,768.0819192309991,None,1.31739706100052,769.8836207019995,None,769.8836207019995,None,5,1,1.0018812930011336,771.1873832870006,None,771.1873832870006,None,771.1873832870006,None,772.2058086289999,None,1,0.7678253060003044,772.2058086289999,None,62,772.9901284469997,None,130,B,1,2021_May_28_1324,GazeFlow,2020.1.2,60.03624856610884,
6,Block803.xls,B,3,4,79,79,None,congruent,Right,Right,Left,66,65,1,yellow,2,5,/home/docky/apps/exp/images/66Y.jpeg,/home/docky/apps/exp/images/35Bi.jpeg,0,5,5,5,0,3,3,3,773.9923777370004,None,773.9923777370004,None,1,5.19438915200044,773.9923777370004,None,779.2201864550007,None,779.2201864550007,None,781.7236276080002,None,781.7236276080002,None,2.436618190000445,783.5271152299993,None,783.5271152299993,None,5,1,1.1343776300000172,785.9665390339997,None,785.9665390339997,None,785.9665390339997,None,787.1178857100003,None,1,0.7178596260000631,787.1178857100003,None,64,787.8526276809989,None,130,B,1,2021_May_28_1324,GazeFlow,2020.1.2,60.03624856610884,
6,Block803.xls,B,3,5,92,92,None,congruent,Right,Right,Left,77,72,5,yellow,2,5,/home/docky/apps/exp/images/77Y.jpeg,/home/docky/apps/exp/images/72Yi.jpeg,0,5,5,5,0,4,4,4,788.8548661250006,None,788.8548661250006,None,1,5.244218780000665,788.8548661250006,None,794.1359956199994,None,794.1359956199994,None,796.6370293689997,None,796.6370293689997,None,1.3674057930002164,798.4386527739989,None,798.4386527739989,None,5,1,0.9681710009990638,799.7933656980003,None,799.7933656980003,None,799.7933656980003,None,800.7779744039999,None,1,0.700964722000208,800.7779744039999,None,66,801.4952526550005,None,130,B,1,2021_May_28_1324,GazeFlow,2020.1.2,60.03624856610884,
6,Block803.xls,B,3,6,106,10,None,incongruent,Left,Right,Left,79,76,3,blue,2,5,/home/docky/apps/exp/images/79Bi.jpeg,/home/docky/apps/exp/images/76B.jpeg,0,5,5,5,0,5,5,5,802.4975014470001,None,802.4975014470001,None,1,4.643039607999526,802.4975014470001,None,807.1744169169997,None,807.1744169169997,None,809.6792597959993,None,809.6792597959993,None,1.2002988509993884,811.4810959719998,None,811.4810959719998,None,5,1,1.0015941059991746,812.6677430780001,None,812.6677430780001,None,812.6677430780001,None,813.6860160289998,None,1,0.7346512250005617,813.6860160289998,None,68,814.4373768389996,None,130,B,1,2021_May_28_1324,GazeFlow,2020.1.2,60.03624856610884,
6,Block803.xls,B,3,7,25,25,None,congruent,Right,Right,Left,19,16,3,blue,2,5,/home/docky/apps/exp/images/19Bi.jpeg,/home/docky/apps/exp/images/16B.jpeg,0,5,5,5,0,6,6,6,815.4394207250007,None,815.4394207250007,None,1,4.492717929000719,815.4394207250007,None,819.9657516120005,None,819.9657516120005,None,822.4686574280004,None,822.4686574280004,None,1.1170646280006622,824.2722708929996,None,824.2722708929996,None,5,1,0.9512451779992261,825.3758827790007,None,825.3758827790007,None,825.3758827790007,None,826.3435330569991,None,1,0.7190260180013865,826.3435330569991,None,70,827.0788019259999,None,130,B,1,2021_May_28_1324,GazeFlow,2020.1.2,60.03624856610884,
6,Block803.xls,B,3,8,46,46,None,congruent,Right,Right,Left,39,38,1,blue,2,5,/home/docky/apps/exp/images/39B.jpeg,/home/docky/apps/exp/images/38Bi.jpeg,0,5,5,5,0,7,7,7,828.0805345489989,None,828.0805345489989,None,1,4.860016975999315,828.0805345489989,None,832.9744969719995,None,832.9744969719995,None,835.4774938459996,None,835.4774938459996,None,1.1506269189994782,837.2815551040003,None,837.2815551040003,None,5,1,2.754736435999803,838.4178964460007,None,838.4178964460007,None,838.4178964460007,None,841.1893663390001,None,1,0.9028909279986692,841.1893663390001,None,72,842.1081847349997,None,130,B,1,2021_May_28_1324,GazeFlow,2020.1.2,60.03624856610884,
6,Block803.xls,B,,,,,,,,,,,,,,,,,,0,5,5,5,,,,,,,,,,,,,,,,,,,,,,,,,,,,,,,,,,,,,,,,,,,,130,B,1,2021_May_28_1324,GazeFlow,2020.1.2,60.03624856610884,
7,Block810.xls,B,10,1,119,23,None,incongruent,Left,Right,Left,76,69,7,yellow,2,5,/home/docky/apps/exp/images/76Yi.jpeg,/home/docky/apps/exp/images/69Y.jpeg,0,6,6,6,0,0,0,0,862.8511398589999,None,862.8511398589999,None,1,5.76741783199941,862.8511398589999,None,868.6469102840001,None,868.6469102840001,None,871.1651595309995,None,871.1651595309995,None,1.065887404998648,872.9619771170001,None,872.9619771170001,None,5,1,1.1183167319995846,874.020060167999,None,874.020060167999,None,874.020060167999,None,875.1553331029991,None,1,0.8682924949989683,875.1553331029991,None,74,876.0402779010001,None,130,B,1,2021_May_28_1324,GazeFlow,2020.1.2,60.03624856610884,
7,Block810.xls,B,10,2,43,43,None,congruent,Right,Right,Left,83,80,3,blue,2,5,/home/docky/apps/exp/images/83B.jpeg,/home/docky/apps/exp/images/80Bi.jpeg,0,6,6,6,0,1,1,1,877.0427044299995,None,877.0427044299995,None,1,5.260605583000142,877.0427044299995,None,882.3369553009998,None,882.3369553009998,None,884.8397266810007,None,884.8397266810007,None,0.9501426560000255,886.6430355470002,None,886.6430355470002,None,5,1,0.9516571980002482,887.580007695,None,887.580007695,None,887.580007695,None,888.5479486280001,None,1,0.8530768920008995,888.5479486280001,None,76,889.4166522569994,None,130,B,1,2021_May_28_1324,GazeFlow,2020.1.2,60.03624856610884,
7,Block810.xls,B,10,3,53,53,None,congruent,Left,Left,Right,65,66,1,yellow,2,6,/home/docky/apps/exp/images/35Bi.jpeg,/home/docky/apps/exp/images/66Y.jpeg,0,6,6,6,0,2,2,2,890.4179715289993,None,890.4179715289993,None,1,5.3951333519999025,890.4179715289993,None,895.8505609490003,None,895.8505609490003,None,898.3495204339997,None,898.3495204339997,None,1.8021206289995462,900.1472755539999,None,900.1472755539999,None,6,1,1.70416740499968,901.9411409280001,None,901.9411409280001,None,901.9411409280001,None,903.6605946769996,None,1,0.6015346520016465,903.6605946769996,None,78,904.278970334999,None,130,B,1,2021_May_28_1324,GazeFlow,2020.1.2,60.03624856610884,
7,Block810.xls,B,10,4,74,74,None,congruent,Right,Right,Left,35,33,2,yellow,2,5,/home/docky/apps/exp/images/35Y.jpeg,/home/docky/apps/exp/images/33Yi.jpeg,0,6,6,6,0,3,3,3,905.280842831,None,905.280842831,None,1,4.893212817998574,905.280842831,None,910.2078150119996,None,910.2078150119996,None,912.7164628449991,None,912.7164628449991,None,1.167206748999888,914.514256335,None,914.514256335,None,5,1,1.0180990160006331,915.6679369590001,None,915.6679369590001,None,915.6679369590001,None,916.7024911179997,None,1,0.6852806099996087,916.7024911179997,None,80,917.4041932090004,None,130,B,1,2021_May_28_1324,GazeFlow,2020.1.2,60.03624856610884,
7,Block810.xls,B,10,5,21,21,None,congruent,Left,Left,Right,76,79,3,blue,2,6,/home/docky/apps/exp/images/76B.jpeg,/home/docky/apps/exp/images/79Bi.jpeg,0,6,6,6,0,4,4,4,918.4058564850002,None,918.4058564850002,None,1,5.043904013999054,918.4058564850002,None,923.483632083,None,923.483632083,None,925.9882618440006,None,925.9882618440006,None,1.000392419000491,927.7896788779999,None,927.7896788779999,None,6,1,1.051820789998601,928.7767344749991,None,928.7767344749991,None,928.7767344749991,None,929.8446453759989,None,1,0.635196528999586,929.8446453759989,None,82,930.4962047489989,None,130,B,1,2021_May_28_1324,GazeFlow,2020.1.2,60.03624856610884,
7,Block810.xls,B,10,6,85,85,None,congruent,Right,Right,Left,75,69,6,yellow,2,5,/home/docky/apps/exp/images/76Y.jpeg,/home/docky/apps/exp/images/69Yi.jpeg,0,6,6,6,0,5,5,5,931.4977553110002,None,931.4977553110002,None,1,4.543011542000386,931.4977553110002,None,936.0745909300003,None,936.0745909300003,None,938.5790901820001,None,938.5790901820001,None,1.0836759900012112,940.3829238649996,None,940.3829238649996,None,5,1,1.001474958999097,941.4512737139994,None,941.4512737139994,None,941.4512737139994,None,942.4691749020003,None,1,0.6020050820006873,942.4691749020003,None,84,943.0877415430004,None,130,B,1,2021_May_28_1324,GazeFlow,2020.1.2,60.03624856610884,
7,Block810.xls,B,10,7,49,49,None,congruent,Left,Left,Right,33,35,2,yellow,2,6,/home/docky/apps/exp/images/33Yi.jpeg,/home/docky/apps/exp/images/35Y.jpeg,0,6,6,6,0,6,6,6,944.0891738390001,None,944.0891738390001,None,1,4.7432029570009036,944.0891738390001,None,948.866227814,None,948.866227814,None,951.3687138799996,None,951.3687138799996,None,1.1508048199993937,953.1711563980007,None,953.1711563980007,None,6,1,0.9848766650011385,954.3096668969993,None,954.3096668969993,None,954.3096668969993,None,955.3108647709996,None,1,0.5682068330006587,955.3108647709996,None,86,955.8955170110003,None,130,B,1,2021_May_28_1324,GazeFlow,2020.1.2,60.03624856610884,
7,Block810.xls,B,10,8,63,63,None,congruent,Left,Left,Right,38,39,1,yellow,2,6,/home/docky/apps/exp/images/38Y.jpeg,/home/docky/apps/exp/images/39Yi.jpeg,0,6,6,6,0,7,7,7,956.8978260709991,None,956.8978260709991,None,1,4.45889363599963,956.8978260709991,None,961.3907158700003,None,961.3907158700003,None,963.8963496939996,None,963.8963496939996,None,1.5344669500009331,965.6955847919999,None,965.6955847919999,None,6,1,1.1689637540002877,967.2179624319997,None,967.2179624319997,None,967.2179624319997,None,968.4037463690001,None,1,0.5507461269990017,968.4037463690001,None,88,968.970532243,None,130,B,1,2021_May_28_1324,GazeFlow,2020.1.2,60.03624856610884,
7,Block810.xls,B,,,,,,,,,,,,,,,,,,0,6,6,6,,,,,,,,,,,,,,,,,,,,,,,,,,,,,,,,,,,,,,,,,,,,130,B,1,2021_May_28_1324,GazeFlow,2020.1.2,60.03624856610884,
8,Block801.xls,B,1,1,1,1,None,congruent,Left,Left,Right,16,19,3,blue,2,6,/home/docky/apps/exp/images/16Bi.jpeg,/home/docky/apps/exp/images/19B.jpeg,0,7,7,7,0,0,0,0,989.913199097,None,989.913199097,None,1,4.693158033000145,989.913199097,None,994.6411055560002,None,994.6411055560002,None,997.1598732940001,None,997.1598732940001,None,1.0328970450009365,998.9404649789994,None,998.9404649789994,None,6,1,0.9679895230001421,999.9649970690007,None,999.9649970690007,None,999.9649970690007,None,1000.9494803500002,None,1,0.5856098720014415,1000.9494803500002,None,90,1001.5511747629989,None,130,B,1,2021_May_28_1324,GazeFlow,2020.1.2,60.03624856610884,
8,Block801.xls,B,1,2,105,9,None,incongruent,Left,Right,Left,79,73,6,blue,2,5,/home/docky/apps/exp/images/79B.jpeg,/home/docky/apps/exp/images/73Bi.jpeg,0,7,7,7,0,1,1,1,1002.5527073989997,None,1002.5527073989997,None,1,4.275950920000469,1002.5527073989997,None,1006.8621436630001,None,1006.8621436630001,None,1009.3647381560004,None,1009.3647381560004,None,1.0000139710009535,1011.1658290779997,None,1011.1658290779997,None,5,1,0.9845713679987966,1012.1555077239991,None,1012.1555077239991,None,1012.1555077239991,None,1013.1566863379994,None,1,0.6018011270007264,1013.1566863379994,None,92,1013.7746793669994,None,130,B,1,2021_May_28_1324,GazeFlow,2020.1.2,60.03624856610884,
8,Block801.xls,B,1,3,62,62,None,congruent,Left,Left,Right,38,39,1,yellow,2,6,/home/docky/apps/exp/images/38Y.jpeg,/home/docky/apps/exp/images/39Yi.jpeg,0,7,7,7,0,2,2,2,1014.7763921370006,None,1014.7763921370006,None,1,4.743352485000287,1014.7763921370006,None,1019.5533934149989,None,1019.5533934149989,None,1022.058149294,None,1022.058149294,None,2.0191189819997817,1023.8598352289991,None,1023.8598352289991,None,6,1,1.9040233420000732,1025.865136696999,None,1025.865136696999,None,1025.865136696999,None,1027.7849351660007,None,1,0.584822400000121,1027.7849351660007,None,94,1028.3861862539998,None,130,B,1,2021_May_28_1324,GazeFlow,2020.1.2,60.03624856610884,
8,Block801.xls,B,1,4,38,38,None,congruent,Right,Right,Left,79,73,6,blue,2,5,/home/docky/apps/exp/images/79B.jpeg,/home/docky/apps/exp/images/73Bi.jpeg,0,7,7,7,0,3,3,3,1029.3885117560003,None,1029.3885117560003,None,1,5.27725401600037,1029.3885117560003,None,1034.6993922809997,None,1034.6993922809997,None,1037.202608260999,None,1037.202608260999,None,1.1503271839992522,1039.0012510180004,None,1039.0012510180004,None,5,1,0.9348225419998926,1040.1429470849998,None,1040.1429470849998,None,1040.1429470849998,None,1041.094054719999,None,1,0.5349652589993639,1041.094054719999,None,96,1041.6455773929993,None,130,B,1,2021_May_28_1324,GazeFlow,2020.1.2,60.03624856610884,
8,Block801.xls,B,1,5,6,6,None,congruent,Left,Left,Right,35,38,3,blue,2,6,/home/docky/apps/exp/images/35Bi.jpeg,/home/docky/apps/exp/images/38B.jpeg,0,7,7,7,0,4,4,4,1042.647476615999,None,1042.647476615999,None,1,4.542602530000295,1042.647476615999,None,1047.2237993199997,None,1047.2237993199997,None,1049.7263924899999,None,1049.7263924899999,None,1.2506757950013707,1051.530014434,None,1051.530014434,None,6,1,2.4876263059995836,1052.7674758100002,None,1052.7674758100002,None,1052.7674758100002,None,1055.2720144699997,None,1,0.6844064790002449,1055.2720144699997,None,98,1055.9731031030005,None,130,B,1,2021_May_28_1324,GazeFlow,2020.1.2,60.03624856610884,
8,Block801.xls,B,1,6,51,51,None,congruent,Left,Left,Right,33,35,2,yellow,2,6,/home/docky/apps/exp/images/33Yi.jpeg,/home/docky/apps/exp/images/35Y.jpeg,0,7,7,7,0,5,5,5,1056.9756404580003,None,1056.9756404580003,None,1,5.076318250999975,1056.9756404580003,None,1062.0861842699996,None,1062.0861842699996,None,1064.5893932239997,None,1064.5893932239997,None,1.0670225270005176,1066.3927905210003,None,1066.3927905210003,None,6,1,0.9008948629998486,1067.4461240069995,None,1067.4461240069995,None,1067.4461240069995,None,1068.3638780229994,None,1,0.7185063790002459,1068.3638780229994,None,100,1069.0989293769999,None,130,B,1,2021_May_28_1324,GazeFlow,2020.1.2,60.03624856610884,
8,Block801.xls,B,1,7,73,73,None,congruent,Right,Right,Left,35,33,2,yellow,2,5,/home/docky/apps/exp/images/35Yi.jpeg,/home/docky/apps/exp/images/33Y.jpeg,0,7,7,7,0,6,6,6,1070.1004178429994,None,1070.1004178429994,None,1,5.427887851001287,1070.1004178429994,None,1075.5623481139992,None,1075.5623481139992,None,1078.0654201220004,None,1078.0654201220004,None,0.900239798000257,1079.8681633819997,None,1079.8681633819997,None,5,1,0.9513538160008466,1080.755013136999,None,1080.755013136999,None,1080.755013136999,None,1081.723277997,None,1,0.6014606329990784,1081.723277997,None,102,1082.3413777650003,None,130,B,1,2021_May_28_1324,GazeFlow,2020.1.2,60.03624856610884,
8,Block801.xls,B,1,8,96,96,None,congruent,Right,Right,Left,80,79,1,yellow,2,5,/home/docky/apps/exp/images/80Yi.jpeg,/home/docky/apps/exp/images/79Y.jpeg,0,7,7,7,0,7,7,7,1083.342893273999,None,1083.342893273999,None,1,4.609597720000238,1083.342893273999,None,1087.986336815,None,1087.986336815,None,1090.4893196039993,None,1090.4893196039993,None,1.0001221929996973,1092.2930154570004,None,1092.2930154570004,None,5,1,1.0847482530007255,1093.279584042999,None,1093.279584042999,None,1093.279584042999,None,1094.3810297279997,None,1,0.6188712139992276,1094.3810297279997,None,104,1095.0157900659997,None,130,B,1,2021_May_28_1324,GazeFlow,2020.1.2,60.03624856610884,
8,Block801.xls,B,,,,,,,,,,,,,,,,,,0,7,7,7,,,,,,,,,,,,,,,,,,,,,,,,,,,,,,,,,,,,,,,,,,,,130,B,1,2021_May_28_1324,GazeFlow,2020.1.2,60.03624856610884,
9,Block802.xls,B,2,1,30,30,None,congruent,Right,Right,Left,38,35,3,blue,2,5,/home/docky/apps/exp/images/38B.jpeg,/home/docky/apps/exp/images/35Bi.jpeg,0,8,8,8,0,0,0,0,1113.0027839579998,None,1113.0027839579998,None,1,5.54946881000069,1113.0027839579998,None,1118.5780407229995,None,1118.5780407229995,None,1121.1056005970004,None,1121.1056005970004,None,0.9160191800001485,1122.9042413200004,None,1122.9042413200004,None,5,1,1.085294520999014,1123.8052771969997,None,1123.8052771969997,None,1123.8052771969997,None,1124.9067805899995,None,1,0.5347116060002008,1124.9067805899995,None,106,1125.458007420999,None,130,B,1,2021_May_28_1324,GazeFlow,2020.1.2,60.03624856610884,
9,Block802.xls,B,2,2,5,5,None,congruent,Left,Left,Right,35,38,3,blue,2,6,/home/docky/apps/exp/images/35B.jpeg,/home/docky/apps/exp/images/38Bi.jpeg,0,8,8,8,0,1,1,1,1126.4599136260003,None,1126.4599136260003,None,1,4.326051332000134,1126.4599136260003,None,1130.8194237669995,None,1130.8194237669995,None,1133.3229210850004,None,1133.3229210850004,None,1.3674024989995814,1135.1206124170003,None,1135.1206124170003,None,6,1,0.9013096359994961,1136.4799508630003,None,1136.4799508630003,None,1136.4799508630003,None,1137.3977822380002,None,1,0.5687277719989652,1137.3977822380002,None,108,1137.9827505480007,None,130,B,1,2021_May_28_1324,GazeFlow,2020.1.2,60.03624856610884,
9,Block802.xls,B,2,3,103,7,None,incongruent,Left,Right,Left,19,16,3,blue,2,5,/home/docky/apps/exp/images/19Bi.jpeg,/home/docky/apps/exp/images/16B.jpeg,0,8,8,8,0,2,2,2,1138.9844277699995,None,1138.9844277699995,None,1,5.394542742998965,1138.9844277699995,None,1144.412659358999,None,1144.412659358999,None,1146.9153582380004,None,1146.9153582380004,None,1.400406192000446,1148.7187025669991,None,1148.7187025669991,None,6,0,0.9013296650009579,1150.106539639999,None,1150.106539639999,None,1150.106539639999,None,1151.024278883,None,1,0.5345717479995074,1151.024278883,None,106,1151.5755230599989,None,130,B,1,2021_May_28_1324,GazeFlow,2020.1.2,60.03624856610884,
9,Block802.xls,B,2,4,35,35,None,congruent,Right,Right,Left,66,65,1,blue,2,5,/home/docky/apps/exp/images/66B.jpeg,/home/docky/apps/exp/images/35Yi.jpeg,0,8,8,8,0,3,3,3,1152.5774239820003,None,1152.5774239820003,None,1,5.144275099999504,1152.5774239820003,None,1157.7549816709998,None,1157.7549816709998,None,1160.2585253319994,None,1160.2585253319994,None,2.45353965600043,1162.058863205999,None,1162.058863205999,None,5,1,1.0026839479996852,1164.516546502,None,1164.516546502,None,1164.516546502,None,1165.535649637999,None,1,0.6345818549998512,1165.535649637999,None,108,1166.1872086929998,None,130,B,1,2021_May_28_1324,GazeFlow,2020.1.2,60.03624856610884,
9,Block802.xls,B,2,5,42,42,None,congruent,Right,Right,Left,83,80,3,blue,2,5,/home/docky/apps/exp/images/83Bi.jpeg,/home/docky/apps/exp/images/80B.jpeg,0,8,8,8,0,4,4,4,1167.189634250999,None,1167.189634250999,None,1,4.642400360000465,1167.189634250999,None,1171.8659284339992,None,1171.8659284339992,None,1174.368581543,None,1174.368581543,None,0.9331200710003031,1176.1703358220002,None,1176.1703358220002,None,5,1,2.0867830509996566,1177.0922941570007,None,1177.0922941570007,None,1177.0922941570007,None,1179.1956307380005,None,1,1.1856881019994034,1179.1956307380005,None,110,1180.3981136620005,None,130,B,1,2021_May_28_1324,GazeFlow,2020.1.2,60.03624856610884,
9,Block802.xls,B,2,6,104,8,None,incongruent,Left,Right,Left,38,35,3,blue,2,5,/home/docky/apps/exp/images/38B.jpeg,/home/docky/apps/exp/images/35Bi.jpeg,0,8,8,8,0,5,5,5,1181.400225063,None,1181.400225063,None,1,4.442294996000783,1181.400225063,None,1185.8764834169997,None,1185.8764834169997,None,1188.3791626919992,None,1188.3791626919992,None,1.2173094890003995,1190.1814813990004,None,1190.1814813990004,None,5,1,0.9011872800001584,1191.3867256419999,None,1191.3867256419999,None,1191.3867256419999,None,1192.304308457,None,1,0.5682490939998388,1192.304308457,None,112,1192.8893533030005,None,130,B,1,2021_May_28_1324,GazeFlow,2020.1.2,60.03624856610884,
9,Block802.xls,B,2,7,22,22,None,congruent,Left,Left,Right,80,83,3,blue,2,6,/home/docky/apps/exp/images/80Bi.jpeg,/home/docky/apps/exp/images/83B.jpeg,0,8,8,8,0,6,6,6,1193.8911748749997,None,1193.8911748749997,None,1,4.659835408001527,1193.8911748749997,None,1198.5843737300002,None,1198.5843737300002,None,1201.089168315999,None,1201.089168315999,None,1.150279044999479,1202.8930768499995,None,1202.8930768499995,None,6,1,0.9515268209997885,1204.0278177870005,None,1204.0278177870005,None,1204.0278177870005,None,1204.9959339779998,None,1,0.7019372779996047,1204.9959339779998,None,114,1205.7141574569996,None,130,B,1,2021_May_28_1324,GazeFlow,2020.1.2,60.03624856610884,
9,Block802.xls,B,2,8,54,54,None,congruent,Left,Left,Right,65,66,1,yellow,2,6,/home/docky/apps/exp/images/35Bi.jpeg,/home/docky/apps/exp/images/66Y.jpeg,0,8,8,8,0,7,7,7,1206.7158924209998,None,1206.7158924209998,None,1,4.426250839000204,1206.7158924209998,None,1211.1756072169992,None,1211.1756072169992,None,1213.6842183829995,None,1213.6842183829995,None,1.7181648860005225,1215.481958499,None,1215.481958499,None,6,1,1.4356391400015127,1217.1867959289993,None,1217.1867959289993,None,1217.1867959289993,None,1218.6389786529999,None,1,0.6177860110001347,1218.6389786529999,None,116,1219.2737185530004,None,130,B,1,2021_May_28_1324,GazeFlow,2020.1.2,60.03624856610884,
9,Block802.xls,B,,,,,,,,,,,,,,,,,,0,8,8,8,,,,,,,,,,,,,,,,,,,,,,,,,,,,,,,,,,,,,,,,,,,,130,B,1,2021_May_28_1324,GazeFlow,2020.1.2,60.03624856610884,
10,Block813.xls,B,13,1,70,70,None,congruent,Left,Left,Right,79,82,3,yellow,2,6,/home/docky/apps/exp/images/79Yi.jpeg,/home/docky/apps/exp/images/80Y.jpeg,0,9,9,9,0,0,0,0,1239.4490242390002,None,1239.4490242390002,None,1,4.961917389999144,1239.4490242390002,None,1244.4372098969998,None,1244.4372098969998,None,1246.9618730999991,None,1246.9618730999991,None,0.8657036350014096,1248.7652778400006,None,1248.7652778400006,None,5,0,0.9677317929999845,1249.6164662449992,None,1249.6164662449992,None,1249.6164662449992,None,1250.6015064740004,None,1,0.5513373010016949,1250.6015064740004,None,114,1251.1692928909997,None,130,B,1,2021_May_28_1324,GazeFlow,2020.1.2,60.03624856610884,
10,Block813.xls,B,13,2,60,60,None,congruent,Left,Left,Right,38,39,1,yellow,2,6,/home/docky/apps/exp/images/38Yi.jpeg,/home/docky/apps/exp/images/39Y.jpeg,0,9,9,9,0,1,1,1,1252.1707454099997,None,1252.1707454099997,None,1,4.2927844320001896,1252.1707454099997,None,1256.4969637689992,None,1256.4969637689992,None,1259.0020269489996,None,1259.0020269489996,None,1.250356632999683,1260.8052547049992,None,1260.8052547049992,None,6,1,0.8846618629995646,1262.040719909999,None,1262.040719909999,None,1262.040719909999,None,1262.9416119140005,None,1,0.5516634340001474,1262.9416119140005,None,116,1263.5099191049994,None,130,B,1,2021_May_28_1324,GazeFlow,2020.1.2,60.03624856610884,
10,Block813.xls,B,13,3,81,81,None,congruent,Right,Right,Left,66,65,1,yellow,2,5,/home/docky/apps/exp/images/66Y.jpeg,/home/docky/apps/exp/images/35Bi.jpeg,0,9,9,9,0,2,2,2,1264.5116107979993,None,1264.5116107979993,None,1,4.526404643000205,1264.5116107979993,None,1269.071552977999,None,1269.071552977999,None,1271.5762142950007,None,1271.5762142950007,None,1.1002870590000384,1273.3782130149993,None,1273.3782130149993,None,5,1,2.8888140419985575,1274.4648445349994,None,1274.4648445349994,None,1274.4648445349994,None,1277.3703301009991,None,1,0.6013031969996518,1277.3703301009991,None,118,1277.9880390359995,None,130,B,1,2021_May_28_1324,GazeFlow,2020.1.2,60.03624856610884,
10,Block813.xls,B,13,4,110,14,None,incongruent,Right,Left,Right,65,66,1,yellow,2,6,/home/docky/apps/exp/images/35B.jpeg,/home/docky/apps/exp/images/66Yi.jpeg,0,9,9,9,0,3,3,3,1278.9901002309998,None,1278.9901002309998,None,1,4.992930197999158,1278.9901002309998,None,1284.0169791299995,None,1284.0169791299995,None,1286.5201762409997,None,1286.5201762409997,None,1.9017932629994903,1288.3211470690003,None,1288.3211470690003,None,5,0,1.4856721769992873,1290.2119334590006,None,1290.2119334590006,None,1290.2119334590006,None,1291.7142671969996,None,1,0.6348212829998374,1291.7142671969996,None,116,1292.366530632,None,130,B,1,2021_May_28_1324,GazeFlow,2020.1.2,60.03624856610884,
10,Block813.xls,B,13,5,17,17,None,congruent,Left,Left,Right,73,76,3,blue,2,6,/home/docky/apps/exp/images/73Bi.jpeg,/home/docky/apps/exp/images/76B.jpeg,0,9,9,9,0,4,4,4,1293.368216936,None,1293.368216936,None,1,6.3794366309994075,1293.368216936,None,1299.780718,None,1299.780718,None,1302.2842853620004,None,1302.2842853620004,None,1.4509830920014792,1304.0830265980003,None,1304.0830265980003,None,6,1,1.0522306380007649,1305.5249943630006,None,1305.5249943630006,None,1305.5249943630006,None,1306.5953170329994,None,1,0.5987710779991176,1306.5953170329994,None,118,1307.2109861049994,None,130,B,1,2021_May_28_1324,GazeFlow,2020.1.2,60.03624856610884,
10,Block813.xls,B,13,6,111,15,None,incongruent,Right,Left,Right,62,65,3,yellow,2,6,/home/docky/apps/exp/images/38B.jpeg,/home/docky/apps/exp/images/35Bi.jpeg,0,9,9,9,0,5,5,5,1308.213766757999,None,1308.213766757999,None,1,4.4752059419988655,1308.213766757999,None,1312.7224054090002,None,1312.7224054090002,None,1315.2276087619994,None,1315.2276087619994,None,1.6515338019999035,1317.0245637259995,None,1317.0245637259995,None,6,1,0.9860681419995672,1318.6672624799994,None,1318.6672624799994,None,1318.6672624799994,None,1319.6690808049989,None,1,0.5673127439986274,1319.6690808049989,None,120,1320.2531562200002,None,130,B,1,2021_May_28_1324,GazeFlow,2020.1.2,60.03624856610884,
10,Block813.xls,B,13,7,55,55,None,congruent,Left,Left,Right,65,66,1,yellow,2,6,/home/docky/apps/exp/images/35B.jpeg,/home/docky/apps/exp/images/66Yi.jpeg,0,9,9,9,0,6,6,6,1321.2550447560006,None,1321.2550447560006,None,1,3.9751174970006105,1321.2550447560006,None,1325.2639619069996,None,1325.2639619069996,None,1327.766603262,None,1327.766603262,None,1.133830451999529,1329.5720274699997,None,1329.5720274699997,None,6,1,0.8843947040004423,1330.6908774059993,None,1330.6908774059993,None,1330.6908774059993,None,1331.5917015609994,None,1,0.5354891360002512,1331.5917015609994,None,122,1332.143276531,None,130,B,1,2021_May_28_1324,GazeFlow,2020.1.2,60.03624856610884,
10,Block813.xls,B,13,8,26,26,None,congruent,Right,Right,Left,19,16,3,blue,2,5,/home/docky/apps/exp/images/19B.jpeg,/home/docky/apps/exp/images/16Bi.jpeg,0,9,9,9,0,7,7,7,1333.1449115439991,None,1333.1449115439991,None,1,4.158627263001108,1333.1449115439991,None,1337.337355669999,None,1337.337355669999,None,1339.8406170630005,None,1339.8406170630005,None,1.150254431000576,1341.643926896999,None,1341.643926896999,None,5,1,1.0179655760002788,1342.7808590389996,None,1342.7808590389996,None,1342.7808590389996,None,1343.8155526970004,None,1,0.6523460099997465,1343.8155526970004,None,124,1344.4839156929993,None,130,B,1,2021_May_28_1324,GazeFlow,2020.1.2,60.03624856610884,
10,Block813.xls,B,,,,,,,,,,,,,,,,,,0,9,9,9,,,,,,,,,,,,,,,,,,,,,,,,,,,,,,,,,,,,,,,,,,,,130,B,1,2021_May_28_1324,GazeFlow,2020.1.2,60.03624856610884,
11,Block806.xls,B,6,1,10,10,None,congruent,Left,Left,Right,65,66,1,blue,2,6,/home/docky/apps/exp/images/35Y.jpeg,/home/docky/apps/exp/images/66Bi.jpeg,0,10,10,10,0,0,0,0,1366.476469322999,None,1366.476469322999,None,1,5.211271112000759,1366.476469322999,None,1371.715706813,None,1371.715706813,None,1374.225902365999,None,1374.225902365999,None,1.2163668270004564,1376.0229618449994,None,1376.0229618449994,None,6,1,0.9516181489998417,1377.2310938360006,None,1377.2310938360006,None,1377.2310938360006,None,1378.198878105999,None,1,0.6193796520001342,1378.198878105999,None,126,1378.834173825,None,130,B,1,2021_May_28_1324,GazeFlow,2020.1.2,60.03624856610884,
11,Block806.xls,B,6,2,89,89,None,congruent,Right,Right,Left,76,69,7,yellow,2,5,/home/docky/apps/exp/images/76Yi.jpeg,/home/docky/apps/exp/images/69Y.jpeg,0,10,10,10,0,1,1,1,1379.8355093259997,None,1379.8355093259997,None,1,4.476422525000089,1379.8355093259997,None,1384.3435223840006,None,1384.3435223840006,None,1386.8486052959997,None,1386.8486052959997,None,1.2503533640010573,1388.6517839469998,None,1388.6517839469998,None,5,1,0.9011845599998196,1389.8889494840005,None,1389.8889494840005,None,1389.8889494840005,None,1390.8066859030005,None,1,0.5355316969998967,1390.8066859030005,None,128,1391.3583515859991,None,130,B,1,2021_May_28_1324,GazeFlow,2020.1.2,60.03624856610884,
11,Block806.xls,B,6,3,88,88,None,congruent,Right,Right,Left,76,69,7,yellow,2,5,/home/docky/apps/exp/images/76Y.jpeg,/home/docky/apps/exp/images/69Yi.jpeg,0,10,10,10,0,2,2,2,1392.3601472659993,None,1392.3601472659993,None,1,4.993572879999192,1392.3601472659993,None,1397.387338253,None,1397.387338253,None,1399.8905090009994,None,1399.8905090009994,None,0.9500655929987261,1401.6941157679994,None,1401.6941157679994,None,5,1,0.9348886930001754,1402.6304023949997,None,1402.6304023949997,None,1402.6304023949997,None,1403.581671811,None,1,0.885770875000162,1403.581671811,None,130,1404.4838328429996,None,130,B,1,2021_May_28_1324,GazeFlow,2020.1.2,60.03624856610884,
11,Block806.xls,B,6,4,109,13,None,incongruent,Right,Left,Right,33,35,2,yellow,2,6,/home/docky/apps/exp/images/33Yi.jpeg,/home/docky/apps/exp/images/35Y.jpeg,0,10,10,10,0,3,3,3,1405.4854131350003,None,1405.4854131350003,None,1,4.592892501001188,1405.4854131350003,None,1410.1123013340002,None,1410.1123013340002,None,1412.6169076410006,None,1412.6169076410006,None,1.718540658001075,1414.4188895980005,None,1414.4188895980005,None,6,1,1.3352596740005538,1416.1234026580005,None,1416.1234026580005,None,1416.1234026580005,None,1417.4754477509996,None,1,0.6012784920003469,1417.4754477509996,None,132,1418.0932896129998,None,130,B,1,2021_May_28_1324,GazeFlow,2020.1.2,60.03624856610884,
11,Block806.xls,B,6,5,37,37,None,congruent,Right,Right,Left,79,73,6,blue,2,5,/home/docky/apps/exp/images/79Bi.jpeg,/home/docky/apps/exp/images/73B.jpeg,0,10,10,10,0,4,4,4,1419.0956401490002,None,1419.0956401490002,None,1,4.108178016998863,1419.0956401490002,None,1423.237762802999,None,1423.237762802999,None,1425.742486739,None,1425.742486739,None,1.1838109840009565,1427.543786491,None,1427.543786491,None,5,1,0.8847478309999133,1428.714297208,None,1428.714297208,None,1428.714297208,None,1429.615581164,None,1,4.3923507899999095,1429.615581164,None,134,1434.02451148,None,130,B,1,2021_May_28_1324,GazeFlow,2020.1.2,60.03624856610884,
11,Block806.xls,B,6,6,108,12,None,incongruent,Left,Right,Left,39,38,1,blue,2,5,/home/docky/apps/exp/images/39Bi.jpeg,/home/docky/apps/exp/images/38B.jpeg,0,10,10,10,0,5,5,5,1435.0264485280004,None,1435.0264485280004,None,1,4.693138982998789,1435.0264485280004,None,1439.7531093590005,None,1439.7531093590005,None,1442.2564112269993,None,1442.2564112269993,None,1.7515962079996825,1444.0540144980005,None,1444.0540144980005,None,6,0,3.055865619000542,1445.7977076940006,None,1445.7977076940006,None,1445.7977076940006,None,1448.8700065119992,None,1,0.6849545439999929,1448.8700065119992,None,132,1449.5715139370004,None,130,B,1,2021_May_28_1324,GazeFlow,2020.1.2,60.03624856610884,
11,Block806.xls,B,6,7,52,52,None,congruent,Left,Left,Right,65,66,1,yellow,2,6,/home/docky/apps/exp/images/35B.jpeg,/home/docky/apps/exp/images/66Yi.jpeg,0,10,10,10,0,6,6,6,1450.573465255,None,1450.573465255,None,1,5.260462981001183,1450.573465255,None,1455.87104636,None,1455.87104636,None,1458.3706522510001,None,1458.3706522510001,None,2.119185583000217,1460.1712365570002,None,1460.1712365570002,None,6,1,2.120427652998842,1462.2797977539994,None,1462.2797977539994,None,1462.2797977539994,None,1464.416524577,None,1,0.752377886999966,1464.416524577,None,134,1465.1850821099997,None,130,B,1,2021_May_28_1324,GazeFlow,2020.1.2,60.03624856610884,
11,Block806.xls,B,6,8,75,75,None,congruent,Right,Right,Left,35,33,2,yellow,2,5,/home/docky/apps/exp/images/35Yi.jpeg,/home/docky/apps/exp/images/33Y.jpeg,0,10,10,10,0,7,7,7,1466.1870799579992,None,1466.1870799579992,None,1,4.759452435999265,1466.1870799579992,None,1470.9824497669997,None,1470.9824497669997,None,1473.4850828260005,None,1473.4850828260005,None,1.0501856980008597,1475.2866240429994,None,1475.2866240429994,None,5,1,1.051487642000211,1476.3235852960006,None,1476.3235852960006,None,1476.3235852960006,None,1477.3917115599997,None,1,0.6689016519994766,1477.3917115599997,None,136,1478.076711349,None,130,B,1,2021_May_28_1324,GazeFlow,2020.1.2,60.03624856610884,
11,Block806.xls,B,,,,,,,,,,,,,,,,,,0,10,10,10,,,,,,,,,,,,,,,,,,,,,,,,,,,,,,,,,,,,,,,,,,,,130,B,1,2021_May_28_1324,GazeFlow,2020.1.2,60.03624856610884,
12,Block811.xls,B,11,1,86,86,None,congruent,Right,Right,Left,75,69,6,yellow,2,5,/home/docky/apps/exp/images/76Y.jpeg,/home/docky/apps/exp/images/69Yi.jpeg,0,11,11,11,0,0,0,0,1510.7577085760004,None,1510.7577085760004,None,1,5.415872809000575,1510.7577085760004,None,1516.2032483410003,None,1516.2032483410003,None,1518.7232720859993,None,1518.7232720859993,None,0.7988155359998927,1520.5250073530005,None,1520.5250073530005,None,5,1,0.9509753700003785,1521.3112466000002,None,1521.3112466000002,None,1521.3112466000002,None,1522.2788645210003,None,1,0.6353058910008258,1522.2788645210003,None,138,1522.930370565,None,130,B,1,2021_May_28_1324,GazeFlow,2020.1.2,60.03624856610884,
12,Block811.xls,B,11,2,83,83,None,congruent,Right,Right,Left,75,69,6,yellow,2,5,/home/docky/apps/exp/images/76Yi.jpeg,/home/docky/apps/exp/images/69Y.jpeg,0,11,11,11,0,1,1,1,1523.932082555999,None,1523.932082555999,None,1,5.060527992000061,1523.932082555999,None,1529.0265098889995,None,1529.0265098889995,None,1531.528990253999,None,1531.528990253999,None,0.866609412998514,1533.3333251549993,None,1533.3333251549993,None,5,1,2.4709182229998987,1534.1860429009994,None,1534.1860429009994,None,1534.1860429009994,None,1536.6735060730007,None,1,0.8016220959998464,1536.6735060730007,None,140,1537.4918160729994,None,130,B,1,2021_May_28_1324,GazeFlow,2020.1.2,60.03624856610884,
12,Block811.xls,B,11,3,28,28,None,congruent,Right,Right,Left,38,35,3,blue,2,5,/home/docky/apps/exp/images/38Bi.jpeg,/home/docky/apps/exp/images/35B.jpeg,0,11,11,11,0,2,2,2,1538.494222722,None,1538.494222722,None,1,4.82630868400156,1538.494222722,None,1543.3541317670006,None,1543.3541317670006,None,1545.8590367519992,None,1545.8590367519992,None,1.1674329990000842,1547.6627685679996,None,1547.6627685679996,None,5,1,0.9351037690012163,1548.8142805040006,None,1548.8142805040006,None,1548.8142805040006,None,1549.7657004819994,None,1,0.6351308560006146,1549.7657004819994,None,142,1550.4173566139998,None,130,B,1,2021_May_28_1324,GazeFlow,2020.1.2,60.03624856610884,
12,Block811.xls,B,11,4,58,58,None,congruent,Left,Left,Right,62,65,3,yellow,2,6,/home/docky/apps/exp/images/38B.jpeg,/home/docky/apps/exp/images/35Bi.jpeg,0,11,11,11,0,3,3,3,1551.419092222999,None,1551.419092222999,None,1,5.427699912999742,1551.419092222999,None,1556.8806679909994,None,1556.8806679909994,None,1559.3852798299995,None,1559.3852798299995,None,1.0826163239999005,1561.1867303050003,None,1561.1867303050003,None,6,1,0.9512147530003858,1562.25725427,None,1562.25725427,None,1562.25725427,None,1563.225348509999,None,1,0.6178046149998409,1563.225348509999,None,144,1563.8604464629989,None,130,B,1,2021_May_28_1324,GazeFlow,2020.1.2,60.03624856610884,
12,Block811.xls,B,11,5,32,32,None,congruent,Right,Right,Left,66,65,1,blue,2,5,/home/docky/apps/exp/images/66Bi.jpeg,/home/docky/apps/exp/images/35Y.jpeg,0,11,11,11,0,4,4,4,1564.861650928,None,1564.861650928,None,1,4.827088856000046,1564.861650928,None,1569.7221319239998,None,1569.7221319239998,None,1572.227012035999,None,1572.227012035999,None,0.8832884439998452,1574.0241640820004,None,1574.0241640820004,None,5,1,1.0181692739988648,1574.8983793299994,None,1574.8983793299994,None,1574.8983793299994,None,1575.9331324840005,None,1,0.6854904050014738,1575.9331324840005,None,146,1576.6349939169995,None,130,B,1,2021_May_28_1324,GazeFlow,2020.1.2,60.03624856610884,
12,Block811.xls,B,11,6,67,67,None,congruent,Left,Left,Right,72,77,5,yellow,2,6,/home/docky/apps/exp/images/72Y.jpeg,/home/docky/apps/exp/images/77Yi.jpeg,0,11,11,11,0,5,5,5,1577.6366094280002,None,1577.6366094280002,None,1,4.05839388899949,1577.6366094280002,None,1581.7273538179998,None,1581.7273538179998,None,1584.2317615819993,None,1584.2317615819993,None,1.1336290559993358,1586.0298433869993,None,1586.0298433869993,None,6,1,0.9177933099999791,1587.1556031639993,None,1587.1556031639993,None,1587.1556031639993,None,1588.0904660060005,None,1,0.48489912199875107,1588.0904660060005,None,148,1588.591534400999,None,130,B,1,2021_May_28_1324,GazeFlow,2020.1.2,60.03624856610884,
12,Block811.xls,B,11,7,120,24,None,incongruent,Left,Right,Left,77,72,5,yellow,2,5,/home/docky/apps/exp/images/77Y.jpeg,/home/docky/apps/exp/images/72Yi.jpeg,0,11,11,11,0,6,6,6,1589.5930170600004,None,1589.5930170600004,None,1,3.7917950070004736,1589.5930170600004,None,1593.4202928859995,None,1593.4202928859995,None,1595.9218299259992,None,1595.9218299259992,None,1.067111123000359,1597.7247816460003,None,1597.7247816460003,None,5,1,0.8674674559988489,1598.7782726719997,None,1598.7782726719997,None,1598.7782726719997,None,1599.662741967999,None,1,0.5515772240014485,1599.662741967999,None,150,1600.230783387,None,130,B,1,2021_May_28_1324,GazeFlow,2020.1.2,60.03624856610884,
12,Block811.xls,B,11,8,57,57,None,congruent,Left,Left,Right,62,65,3,yellow,2,6,/home/docky/apps/exp/images/38Bi.jpeg,/home/docky/apps/exp/images/35B.jpeg,0,11,11,11,0,7,7,7,1601.2322812330003,None,1601.2322812330003,None,1,4.275549371001034,1601.2322812330003,None,1605.5419019750007,None,1605.5419019750007,None,1608.0462248719996,None,1608.0462248719996,None,1.4678960460005328,1609.848789693,None,1609.848789693,None,6,1,1.7864563969997107,1611.3023881919999,None,1611.3023881919999,None,1611.3023881919999,None,1613.1054075419997,None,1,0.5847225069992419,1613.1054075419997,None,152,1613.706619065999,None,130,B,1,2021_May_28_1324,GazeFlow,2020.1.2,60.03624856610884,
12,Block811.xls,B,,,,,,,,,,,,,,,,,,0,11,11,11,,,,,,,,,,,,,,,,,,,,,,,,,,,,,,,,,,,,,,,,,,,,130,B,1,2021_May_28_1324,GazeFlow,2020.1.2,60.03624856610884,
13,Block808.xls,B,8,1,118,22,None,incongruent,Left,Right,Left,75,69,6,yellow,2,5,/home/docky/apps/exp/images/76Y.jpeg,/home/docky/apps/exp/images/69Yi.jpeg,0,12,12,12,0,0,0,0,1650.9459473900006,None,1650.9459473900006,None,1,3.8985567670006276,1650.9459473900006,None,1654.8765719999992,None,1654.8765719999992,None,1657.3924753440006,None,1657.3924753440006,None,1.0661455590015976,1659.1963253859994,None,1659.1963253859994,None,5,1,1.0682451900011074,1660.2476040410002,None,1660.2476040410002,None,1660.2476040410002,None,1661.3322459720002,None,1,0.7855612269995618,1661.3322459720002,None,154,1662.133904377999,None,130,B,1,2021_May_28_1324,GazeFlow,2020.1.2,60.03624856610884,
13,Block808.xls,B,8,2,7,7,None,congruent,Left,Left,Right,65,66,1,blue,2,6,/home/docky/apps/exp/images/35Yi.jpeg,/home/docky/apps/exp/images/66B.jpeg,0,12,12,12,0,1,1,1,1663.1361389859994,None,1663.1361389859994,None,1,5.444239700998878,1663.1361389859994,None,1668.612334468,None,1668.612334468,None,1671.1190189529989,None,1671.1190189529989,None,1.734985917000813,1672.9238664620007,None,1672.9238664620007,None,6,1,4.4752327730002435,1674.642330409999,None,1674.642330409999,None,1674.642330409999,None,1679.1341161309992,None,1,0.6346908859995892,1679.1341161309992,None,156,1679.785328079999,None,130,B,1,2021_May_28_1324,GazeFlow,2020.1.2,60.03624856610884,
13,Block808.xls,B,8,3,112,16,None,incongruent,Right,Left,Right,69,76,7,yellow,2,6,/home/docky/apps/exp/images/69Yi.jpeg,/home/docky/apps/exp/images/76Y.jpeg,0,12,12,12,0,2,2,2,1680.7873262089997,None,1680.7873262089997,None,1,5.260475875000338,1680.7873262089997,None,1686.0817307300003,None,1686.0817307300003,None,1688.5896492449992,None,1688.5896492449992,None,0.8329572179991374,1690.3878575670005,None,1690.3878575670005,None,6,1,0.9345877119994839,1691.207659611,None,1691.207659611,None,1691.207659611,None,1692.158985004,None,1,0.617972527999882,1692.158985004,None,158,1692.7933712569993,None,130,B,1,2021_May_28_1324,GazeFlow,2020.1.2,60.03624856610884,
13,Block808.xls,B,8,4,97,1,None,incongruent,Right,Left,Right,16,19,3,blue,2,6,/home/docky/apps/exp/images/16Bi.jpeg,/home/docky/apps/exp/images/19B.jpeg,0,12,12,12,0,3,3,3,1693.7954844430005,None,1693.7954844430005,None,1,4.443011601000762,1693.7954844430005,None,1698.2744125240006,None,1698.2744125240006,None,1700.7752241319995,None,1700.7752241319995,None,1.0835790799992537,1702.580245014,None,1702.580245014,None,6,1,1.134903984999255,1703.648561307,None,1703.648561307,None,1703.648561307,None,1704.800421808999,None,1,0.5507361920008407,1704.800421808999,None,160,1705.367959531999,None,130,B,1,2021_May_28_1324,GazeFlow,2020.1.2,60.03624856610884,
13,Block808.xls,B,8,5,24,24,None,congruent,Left,Left,Right,80,83,3,blue,2,6,/home/docky/apps/exp/images/80Bi.jpeg,/home/docky/apps/exp/images/83B.jpeg,0,12,12,12,0,4,4,4,1706.3700131749993,None,1706.3700131749993,None,1,4.176775349000309,1706.3700131749993,None,1710.5802164430006,None,1710.5802164430006,None,1713.0818201399998,None,1713.0818201399998,None,0.7664545190000354,1714.8854916740001,None,1714.8854916740001,None,6,1,0.8849579140005517,1715.638348433,None,1715.638348433,None,1715.638348433,None,1716.5400004559997,None,1,0.5176436159999867,1716.5400004559997,None,162,1717.0740727129996,None,130,B,1,2021_May_28_1324,GazeFlow,2020.1.2,60.03624856610884,
13,Block808.xls,B,8,6,13,13,None,congruent,Left,Left,Right,38,39,1,blue,2,6,/home/docky/apps/exp/images/38Bi.jpeg,/home/docky/apps/exp/images/39B.jpeg,0,12,12,12,0,5,5,5,1718.0759952049993,None,1718.0759952049993,None,1,4.191970810999919,1718.0759952049993,None,1722.3019293880006,None,1722.3019293880006,None,1724.8050415140005,None,1724.8050415140005,None,1.0835509510015982,1726.6086292290001,None,1726.6086292290001,None,6,1,4.3085687210004835,1727.6784707829993,None,1727.6784707829993,None,1727.6784707829993,None,1732.0033891210005,None,1,0.8018033489988738,1732.0033891210005,None,164,1732.8217192789998,None,130,B,1,2021_May_28_1324,GazeFlow,2020.1.2,60.03624856610884,
13,Block808.xls,B,8,7,8,8,None,congruent,Left,Left,Right,65,66,1,blue,2,6,/home/docky/apps/exp/images/35Y.jpeg,/home/docky/apps/exp/images/66Bi.jpeg,0,12,12,12,0,6,6,6,1733.8234223479994,None,1733.8234223479994,None,1,4.76002897699982,1733.8234223479994,None,1738.616842153,None,1738.616842153,None,1741.1224975370005,None,1741.1224975370005,None,2.002384515999438,1742.9251423749993,None,1742.9251423749993,None,6,1,1.719711728999755,1744.9120662040004,None,1744.9120662040004,None,1744.9120662040004,None,1746.6481169990002,None,1,0.6349761460005539,1746.6481169990002,None,166,1747.2995881200004,None,130,B,1,2021_May_28_1324,GazeFlow,2020.1.2,60.03624856610884,
13,Block808.xls,B,8,8,31,31,None,congruent,Right,Right,Left,66,65,1,blue,2,5,/home/docky/apps/exp/images/66B.jpeg,/home/docky/apps/exp/images/35Yi.jpeg,0,12,12,12,0,7,7,7,1748.3018467439997,None,1748.3018467439997,None,1,4.859574541998882,1748.3018467439997,None,1753.1953072029992,None,1753.1953072029992,None,1755.6998831340006,None,1755.6998831340006,None,1.7514911769994796,1757.5020416940006,None,1757.5020416940006,None,6,0,3.473748811000405,1759.2396154790003,None,1759.2396154790003,None,1759.2396154790003,None,1762.7299186250002,None,1,0.6513865150009224,1762.7299186250002,None,164,1763.3978287579994,None,130,B,1,2021_May_28_1324,GazeFlow,2020.1.2,60.03624856610884,
13,Block808.xls,B,,,,,,,,,,,,,,,,,,0,12,12,12,,,,,,,,,,,,,,,,,,,,,,,,,,,,,,,,,,,,,,,,,,,,130,B,1,2021_May_28_1324,GazeFlow,2020.1.2,60.03624856610884,
14,Block815.xls,B,15,1,65,65,None,congruent,Left,Left,Right,69,76,7,yellow,2,6,/home/docky/apps/exp/images/69Yi.jpeg,/home/docky/apps/exp/images/76Y.jpeg,0,13,13,13,0,0,0,0,1810.7734354919994,None,1810.7734354919994,None,1,7.588324074000411,1810.7734354919994,None,1818.389791403999,None,1818.389791403999,None,1820.9101584929995,None,1820.9101584929995,None,1.0665040410021902,1822.7138839770014,None,1822.7138839770014,None,6,1,1.0518792669972754,1823.7650806620004,None,1823.7650806620004,None,1823.7650806620004,None,1824.8332333200015,None,1,0.6185277389995463,1824.8332333200015,None,166,1825.4681783000015,None,130,B,1,2021_May_28_1324,GazeFlow,2020.1.2,60.03624856610884,
14,Block815.xls,B,15,2,102,6,None,incongruent,Right,Left,Right,80,83,3,blue,2,6,/home/docky/apps/exp/images/80B.jpeg,/home/docky/apps/exp/images/83Bi.jpeg,0,13,13,13,0,1,1,1,1826.469912886001,None,1826.469912886001,None,1,4.49267803100156,1826.469912886001,None,1830.9964296399994,None,1830.9964296399994,None,1833.4994107739985,None,1833.4994107739985,None,1.083741647998977,1835.302962220001,None,1835.302962220001,None,6,1,0.9010252999978547,1836.3730257060015,None,1836.3730257060015,None,1836.3730257060015,None,1837.2906198849996,None,1,0.567969929001265,1837.2906198849996,None,168,1837.8749886570004,None,130,B,1,2021_May_28_1324,GazeFlow,2020.1.2,60.03624856610884,
14,Block815.xls,B,15,3,33,33,None,congruent,Right,Right,Left,66,65,1,blue,2,5,/home/docky/apps/exp/images/66Bi.jpeg,/home/docky/apps/exp/images/35Y.jpeg,0,13,13,13,0,2,2,2,1838.8772551840011,None,1838.8772551840011,None,1,4.092297490002238,1838.8772551840011,None,1843.003163248999,None,1843.003163248999,None,1845.5062987700003,None,1845.5062987700003,None,1.0504135779992794,1847.3115425239994,None,1847.3115425239994,None,5,1,0.901211456002784,1848.3462634940006,None,1848.3462634940006,None,1848.3462634940006,None,1849.2643770869981,None,1,0.6182454230001895,1849.2643770869981,None,170,1849.8991021900001,None,130,B,1,2021_May_28_1324,GazeFlow,2020.1.2,60.03624856610884,
14,Block815.xls,B,15,4,72,72,None,congruent,Left,Left,Right,79,82,3,yellow,2,6,/home/docky/apps/exp/images/79Yi.jpeg,/home/docky/apps/exp/images/80Y.jpeg,0,13,13,13,0,3,3,3,1850.9007024370003,None,1850.9007024370003,None,1,4.459380686999793,1850.9007024370003,None,1855.3939117080008,None,1855.3939117080008,None,1857.8960489560013,None,1857.8960489560013,None,1.3174005890032277,1859.6992649950007,None,1859.6992649950007,None,6,1,1.8028427729987015,1861.0042618609987,None,1861.0042618609987,None,1861.0042618609987,None,1862.8237169519998,None,1,0.5848661199997878,1862.8237169519998,None,172,1863.4248807500007,None,130,B,1,2021_May_28_1324,GazeFlow,2020.1.2,60.03624856610884,
14,Block815.xls,B,15,5,100,4,None,incongruent,Right,Left,Right,73,76,3,blue,2,6,/home/docky/apps/exp/images/73B.jpeg,/home/docky/apps/exp/images/76Bi.jpeg,0,13,13,13,0,4,4,4,1864.4273767140003,None,1864.4273767140003,None,1,5.009913475001667,1864.4273767140003,None,1869.4716505239994,None,1869.4716505239994,None,1871.9744649700006,None,1871.9744649700006,None,1.3340994289974333,1873.7776574870004,None,1873.7776574870004,None,6,1,0.985045703000651,1875.098407562,None,1875.098407562,None,1875.098407562,None,1876.100008882,None,1,0.5673950500022329,1876.100008882,None,174,1876.683978115001,None,130,B,1,2021_May_28_1324,GazeFlow,2020.1.2,60.03624856610884,
14,Block815.xls,B,15,6,45,45,None,congruent,Right,Right,Left,39,38,1,blue,2,5,/home/docky/apps/exp/images/39B.jpeg,/home/docky/apps/exp/images/38Bi.jpeg,0,13,13,13,0,5,5,5,1877.686048716001,None,1877.686048716001,None,1,4.342713055997592,1877.686048716001,None,1882.0621452289997,None,1882.0621452289997,None,1884.5645978339999,None,1884.5645978339999,None,1.0502795459979097,1886.3680055760015,None,1886.3680055760015,None,5,1,0.901166966999881,1887.4054741699983,None,1887.4054741699983,None,1887.4054741699983,None,1888.3232831649984,None,1,0.5853502050013049,1888.3232831649984,None,176,1888.924504079001,None,130,B,1,2021_May_28_1324,GazeFlow,2020.1.2,60.03624856610884,
14,Block815.xls,B,15,7,98,2,None,incongruent,Right,Left,Right,35,38,3,blue,2,6,/home/docky/apps/exp/images/35Bi.jpeg,/home/docky/apps/exp/images/38B.jpeg,0,13,13,13,0,6,6,6,1889.9264446439993,None,1889.9264446439993,None,1,6.529970136001793,1889.9264446439993,None,1896.4903681249998,None,1896.4903681249998,None,1898.9937336900002,None,1898.9937336900002,None,1.684713833998103,1900.7986911449989,None,1900.7986911449989,None,6,1,1.0856858029983414,1902.4678813009996,None,1902.4678813009996,None,1902.4678813009996,None,1903.570021053998,None,1,0.583828357001039,1903.570021053998,None,178,1904.1706679499985,None,130,B,1,2021_May_28_1324,GazeFlow,2020.1.2,60.03624856610884,
14,Block815.xls,B,15,8,59,59,None,congruent,Left,Left,Right,38,39,1,yellow,2,6,/home/docky/apps/exp/images/38Yi.jpeg,/home/docky/apps/exp/images/39Y.jpeg,0,13,13,13,0,7,7,7,1905.172909025001,None,1905.172909025001,None,1,5.193929471999581,1905.172909025001,None,1910.4023324500013,None,1910.4023324500013,None,1912.905295960998,None,1912.905295960998,None,1.0503103650007688,1914.7064305640015,None,1914.7064305640015,None,6,1,0.918081436000648,1915.743700166,None,1915.743700166,None,1915.743700166,None,1916.6783865219986,None,1,0.5350544739994803,1916.6783865219986,None,180,1917.2299137720001,None,130,B,1,2021_May_28_1324,GazeFlow,2020.1.2,60.03624856610884,
14,Block815.xls,B,,,,,,,,,,,,,,,,,,0,13,13,13,,,,,,,,,,,,,,,,,,,,,,,,,,,,,,,,,,,,,,,,,,,,130,B,1,2021_May_28_1324,GazeFlow,2020.1.2,60.03624856610884,
15,Block807.xls,B,7,1,71,71,None,congruent,Left,Left,Right,79,82,3,yellow,2,6,/home/docky/apps/exp/images/79Y.jpeg,/home/docky/apps/exp/images/80Yi.jpeg,0,14,14,14,0,0,0,0,1937.620882782001,None,1937.620882782001,None,1,5.065719603997422,1937.620882782001,None,1942.7139201300015,None,1942.7139201300015,None,1945.2348869240013,None,1945.2348869240013,None,1.0331054929993115,1947.031745250999,None,1947.031745250999,None,6,1,0.9847451599998749,1948.056593338999,None,1948.056593338999,None,1948.056593338999,None,1949.0580914649981,None,1,0.5698545269988244,1949.0580914649981,None,182,1949.6441340419988,None,130,B,1,2021_May_28_1324,GazeFlow,2020.1.2,60.03624856610884,
15,Block807.xls,B,7,2,44,44,None,congruent,Right,Right,Left,83,80,3,blue,2,5,/home/docky/apps/exp/images/83Bi.jpeg,/home/docky/apps/exp/images/80B.jpeg,0,14,14,14,0,1,1,1,1950.6445207270008,None,1950.6445207270008,None,1,4.476263076998293,1950.6445207270008,None,1955.154245474001,None,1955.154245474001,None,1957.6572407029998,None,1957.6572407029998,None,0.8496026590000838,1959.460276509999,None,1959.460276509999,None,5,1,0.9177300200026366,1960.2969622899982,None,1960.2969622899982,None,1960.2969622899982,None,1961.2313120930012,None,1,0.5182569419994252,1961.2313120930012,None,184,1961.766350547001,None,130,B,1,2021_May_28_1324,GazeFlow,2020.1.2,60.03624856610884,
15,Block807.xls,B,7,3,48,48,None,congruent,Right,Right,Left,39,38,1,blue,2,5,/home/docky/apps/exp/images/39Bi.jpeg,/home/docky/apps/exp/images/38B.jpeg,0,14,14,14,0,2,2,2,1962.7678750000014,None,1962.7678750000014,None,1,4.860214683001686,1962.7678750000014,None,1967.6617392000007,None,1967.6617392000007,None,1970.1666187420014,None,1970.1666187420014,None,1.1169876989988552,1971.9630771519987,None,1971.9630771519987,None,5,1,0.9848299360019155,1973.0718993929986,None,1973.0718993929986,None,1973.0718993929986,None,1974.0732236820004,None,1,0.5854435360015486,1974.0732236820004,None,186,1974.6748450999985,None,130,B,1,2021_May_28_1324,GazeFlow,2020.1.2,60.03624856610884,
15,Block807.xls,B,7,4,113,17,None,incongruent,Right,Left,Right,72,77,5,yellow,2,6,/home/docky/apps/exp/images/72Yi.jpeg,/home/docky/apps/exp/images/77Y.jpeg,0,14,14,14,0,3,3,3,1975.6763370080007,None,1975.6763370080007,None,1,4.1256730150016665,1975.6763370080007,None,1979.8354264269983,None,1979.8354264269983,None,1982.3435297830001,None,1982.3435297830001,None,1.2338445789973775,1984.1371836670005,None,1984.1371836670005,None,6,1,1.1194003979981062,1985.3623109299988,None,1985.3623109299988,None,1985.3623109299988,None,1986.497677121999,None,1,0.5340047479985515,1986.497677121999,None,188,1987.048277029,None,130,B,1,2021_May_28_1324,GazeFlow,2020.1.2,60.03624856610884,
15,Block807.xls,B,7,5,69,69,None,congruent,Left,Left,Right,72,77,5,yellow,2,6,/home/docky/apps/exp/images/72Y.jpeg,/home/docky/apps/exp/images/77Yi.jpeg,0,14,14,14,0,4,4,4,1988.0502680530008,None,1988.0502680530008,None,1,4.943992106000223,1988.0502680530008,None,1993.0278768559983,None,1993.0278768559983,None,1995.5333919350014,None,1995.5333919350014,None,1.033559988001798,1997.334346669999,None,1997.334346669999,None,6,1,0.9515724679986306,1998.3542792910011,None,1998.3542792910011,None,1998.3542792910011,None,1999.322191536001,None,1,0.535088235999865,1999.322191536001,None,190,1999.8737992589995,None,130,B,1,2021_May_28_1324,GazeFlow,2020.1.2,60.03624856610884,
15,Block807.xls,B,7,6,39,39,None,congruent,Right,Right,Left,79,76,3,blue,2,5,/home/docky/apps/exp/images/79B.jpeg,/home/docky/apps/exp/images/76Bi.jpeg,0,14,14,14,0,5,5,5,2000.8751953120009,None,2000.8751953120009,None,1,4.759918446001393,2000.8751953120009,None,2005.6686720049984,None,2005.6686720049984,None,2008.1725245859998,None,2008.1725245859998,None,1.0335167840021313,2009.9703390709983,None,2009.9703390709983,None,5,1,0.9684149669992621,2010.9953051390003,None,2010.9953051390003,None,2010.9953051390003,None,2011.980155655001,None,1,0.6018156740028644,2011.980155655001,None,192,2012.5984602259996,None,130,B,1,2021_May_28_1324,GazeFlow,2020.1.2,60.03624856610884,
15,Block807.xls,B,7,7,50,50,None,congruent,Left,Left,Right,33,35,2,yellow,2,6,/home/docky/apps/exp/images/33Y.jpeg,/home/docky/apps/exp/images/35Yi.jpeg,0,14,14,14,0,6,6,6,2013.6001087500008,None,2013.6001087500008,None,1,4.67664379100097,2013.6001087500008,None,2018.3102515069986,None,2018.3102515069986,None,2020.8145601940014,None,2020.8145601940014,None,1.117276472003141,2022.6162439809996,None,2022.6162439809996,None,6,1,1.03465042300013,2023.7203277299996,None,2023.7203277299996,None,2023.7203277299996,None,2024.7718949560003,None,1,0.5182357150006283,2024.7718949560003,None,194,2025.3064811660006,None,130,B,1,2021_May_28_1324,GazeFlow,2020.1.2,60.03624856610884,
15,Block807.xls,B,7,8,19,19,None,congruent,Left,Left,Right,76,79,3,blue,2,6,/home/docky/apps/exp/images/76B.jpeg,/home/docky/apps/exp/images/79Bi.jpeg,0,14,14,14,0,7,7,7,2026.3082743080013,None,2026.3082743080013,None,1,4.292132534999837,2026.3082743080013,None,2030.6341957500008,None,2030.6341957500008,None,2033.1397711270001,None,2033.1397711270001,None,1.0503574210015358,2034.9405700159987,None,2034.9405700159987,None,6,1,0.9347712769995269,2035.9772371149993,None,2035.9772371149993,None,2035.9772371149993,None,2036.9285841929996,None,1,0.5020457249993342,2036.9285841929996,None,196,2037.4467205360015,None,130,B,1,2021_May_28_1324,GazeFlow,2020.1.2,60.03624856610884,
15,Block807.xls,B,,,,,,,,,,,,,,,,,,0,14,14,14,,,,,,,,,,,,,,,,,,,,,,,,,,,,,,,,,,,,,,,,,,,,130,B,1,2021_May_28_1324,GazeFlow,2020.1.2,60.03624856610884,
