Nblock,condsFile,grouping,Block,TrialBlock,N,trialN,trialCond,gazeCon,gazedirR,corrBinR,corrBinP,valLBY,valRBY,diff,colorCube,feedbacktext,corrAns,imageL,imageR,SelBlocks.thisRepN,SelBlocks.thisTrialN,SelBlocks.thisN,SelBlocks.thisIndex,Trials.thisRepN,Trials.thisTrialN,Trials.thisN,Trials.thisIndex,waitCube.started,waitCube.stopped,text_3.started,text_3.stopped,StartKeyPress.keys,StartKeyPress.rt,StartKeyPress.started,StartKeyPress.stopped,StimL.started,StimL.stopped,StimR.started,StimR.stopped,imageStim2L.started,imageStim2L.stopped,imageStim2R.started,imageStim2R.stopped,RTkeyRelease,imageStim3L.started,imageStim3L.stopped,imageStim3R.started,imageStim3R.stopped,dropResp.keys,dropResp.corr,dropResp.rt,dropResp.started,dropResp.stopped,imageStim5L.started,imageStim5L.stopped,imageStim5R.started,imageStim5R.stopped,text_2.started,text_2.stopped,ReturnSpace.keys,ReturnSpace.rt,ReturnSpace.started,ReturnSpace.stopped,totalpoints,textFeedback.started,textFeedback.stopped,participant,group,session,date,expName,psychopyVersion,frameRate,
1,Block809.xls,B,9,1,93,93,None,congruent,Right,Right,Left,80,79,1,yellow,2,5,/home/docky/apps/exp/images/80Y.jpeg,/home/docky/apps/exp/images/79Yi.jpeg,0,0,0,0,0,0,0,0,63.09262479099925,None,63.09262479099925,None,1,28.890616083001078,63.09262479099925,None,92.01441969699954,None,92.01441969699954,None,94.53721203999885,None,94.53721203999885,None,1.4003597900009481,96.32502006399955,None,96.32502006399955,None,5,1,0.9185822190011095,97.70747138099978,None,97.70747138099978,None,97.70747138099978,None,98.64233697300006,None,1,0.5844474570003513,98.64233697300006,None,2,99.24311168300119,None,131,B,1,2021_May_28_1450,GazeFlow,2020.1.2,59.88742170818099,
1,Block809.xls,B,9,2,15,15,None,congruent,Left,Left,Right,38,39,1,blue,2,6,/home/docky/apps/exp/images/38B.jpeg,/home/docky/apps/exp/images/39Bi.jpeg,0,0,0,0,0,1,1,1,100.24505726500138,None,100.24505726500138,None,1,4.526333213001635,100.24505726500138,None,104.80524304299979,None,104.80524304299979,None,107.31005643000026,None,107.31005643000026,None,1.4507911310029158,109.11188185900028,None,109.11188185900028,None,5,0,2.0369564479988185,110.54892488000041,None,110.54892488000041,None,110.54892488000041,None,112.6024544259999,None,1,0.9687566449974838,112.6024544259999,None,0,113.58777152599941,None,131,B,1,2021_May_28_1450,GazeFlow,2020.1.2,59.88742170818099,
1,Block809.xls,B,9,3,117,21,None,incongruent,Left,Right,Left,39,38,1,yellow,2,5,/home/docky/apps/exp/images/39Yi.jpeg,/home/docky/apps/exp/images/38Y.jpeg,0,0,0,0,0,2,2,2,114.59016147700095,None,114.59016147700095,None,1,4.492289314999653,114.59016147700095,None,119.11616885100011,None,119.11616885100011,None,121.61941067000225,None,121.61941067000225,None,1.5346175039994705,123.42310423000163,None,123.42310423000163,None,6,0,0.7342331220024789,124.94373990100212,None,124.94373990100212,None,124.94373990100212,None,125.6943750970022,None,1,0.502227318000223,125.6943750970022,None,-2,126.21264371299912,None,131,B,1,2021_May_28_1450,GazeFlow,2020.1.2,59.88742170818099,
1,Block809.xls,B,9,4,94,94,None,congruent,Right,Right,Left,80,79,1,yellow,2,5,/home/docky/apps/exp/images/80Y.jpeg,/home/docky/apps/exp/images/79Yi.jpeg,0,0,0,0,0,3,3,3,127.21424427500096,None,127.21424427500096,None,1,3.3577007129970298,127.21424427500096,None,130.6053415009992,None,130.6053415009992,None,133.11000973200134,None,133.11000973200134,None,1.1169333039979392,134.9121450579987,None,134.9121450579987,None,5,1,0.7510021570014942,136.01522680400012,None,136.01522680400012,None,136.01522680400012,None,136.78273674700176,None,1,0.4843653549978626,136.78273674700176,None,0,137.28382311600217,None,131,B,1,2021_May_28_1450,GazeFlow,2020.1.2,59.88742170818099,
1,Block809.xls,B,9,5,41,41,None,congruent,Right,Right,Left,79,76,3,blue,2,5,/home/docky/apps/exp/images/79Bi.jpeg,/home/docky/apps/exp/images/76B.jpeg,0,0,0,0,0,4,4,4,138.28553576999911,None,138.28553576999911,None,1,4.2756966419983655,138.28553576999911,None,142.59522911800013,None,142.59522911800013,None,145.1012520910008,None,145.1012520910008,None,1.367986709003162,146.90117223400011,None,146.90117223400011,None,5,1,0.6844563109989394,148.25561126200046,None,148.25561126200046,None,148.25561126200046,None,148.95644615900164,None,1,0.3679183019994525,148.95644615900164,None,2,149.34090303500125,None,131,B,1,2021_May_28_1450,GazeFlow,2020.1.2,59.88742170818099,
1,Block809.xls,B,9,6,36,36,None,congruent,Right,Right,Left,79,73,6,blue,2,5,/home/docky/apps/exp/images/79Bi.jpeg,/home/docky/apps/exp/images/73B.jpeg,0,0,0,0,0,5,5,5,150.34245826900224,None,150.34245826900224,None,1,3.9254159459997027,150.34245826900224,None,154.30197233999934,None,154.30197233999934,None,156.80609831200127,None,156.80609831200127,None,1.2000935320029384,158.6033244399987,None,158.6033244399987,None,5,1,0.7011541629981366,159.79476087399962,None,159.79476087399962,None,159.79476087399962,None,160.5120057210006,None,1,0.40160494199881214,160.5120057210006,None,4,160.93005783600165,None,131,B,1,2021_May_28_1450,GazeFlow,2020.1.2,59.88742170818099,
1,Block809.xls,B,9,7,78,78,None,congruent,Right,Right,Left,39,38,1,yellow,2,5,/home/docky/apps/exp/images/39Yi.jpeg,/home/docky/apps/exp/images/38Y.jpeg,0,0,0,0,0,6,6,6,161.9317221570018,None,161.9317221570018,None,1,3.624233266000374,161.9317221570018,None,165.5896212709995,None,165.5896212709995,None,168.09273435200157,None,168.09273435200157,None,1.250388329000998,169.89633479300028,None,169.89633479300028,None,6,0,0.7342013269990275,171.13329285500004,None,171.13329285500004,None,171.13329285500004,None,171.88423224600047,None,1,0.3347281729984388,171.88423224600047,None,2,172.2353528700005,None,131,B,1,2021_May_28_1450,GazeFlow,2020.1.2,59.88742170818099,
1,Block809.xls,B,9,8,29,29,None,congruent,Right,Right,Left,38,35,3,blue,2,5,/home/docky/apps/exp/images/38B.jpeg,/home/docky/apps/exp/images/35Bi.jpeg,0,0,0,0,0,7,7,7,173.236695399999,None,173.236695399999,None,1,3.090830692999589,173.236695399999,None,176.36073514300006,None,176.36073514300006,None,178.86545852400013,None,178.86545852400013,None,1.0334803630030365,180.66268312800094,None,180.66268312800094,None,5,1,0.6846317990020907,181.68718002099922,None,181.68718002099922,None,181.68718002099922,None,182.38765091000096,None,1,0.36785566600156017,182.38765091000096,None,4,182.77195050400042,None,131,B,1,2021_May_28_1450,GazeFlow,2020.1.2,59.88742170818099,
1,Block809.xls,B,,,,,,,,,,,,,,,,,,0,0,0,0,,,,,,,,,,,,,,,,,,,,,,,,,,,,,,,,,,,,,,,,,,,,131,B,1,2021_May_28_1450,GazeFlow,2020.1.2,59.88742170818099,
2,Block805.xls,B,5,1,16,16,None,congruent,Left,Left,Right,73,76,3,blue,2,6,/home/docky/apps/exp/images/73B.jpeg,/home/docky/apps/exp/images/76Bi.jpeg,0,1,1,1,0,0,0,0,200.29159260899905,None,200.29159260899905,None,1,4.783182777999173,200.29159260899905,None,205.09771297200132,None,205.09771297200132,None,207.61996310800168,None,207.61996310800168,None,1.133067642000242,209.42209482700127,None,209.42209482700127,None,6,1,0.7170485789974919,210.54340945999866,None,210.54340945999866,None,210.54340945999866,None,211.27724318499895,None,1,0.4511106659992947,211.27724318499895,None,6,211.74478633200124,None,131,B,1,2021_May_28_1450,GazeFlow,2020.1.2,59.88742170818099,
2,Block805.xls,B,5,2,2,2,None,congruent,Left,Left,Right,16,19,3,blue,2,6,/home/docky/apps/exp/images/16B.jpeg,/home/docky/apps/exp/images/19Bi.jpeg,0,1,1,1,0,1,1,1,212.74708966899925,None,212.74708966899925,None,1,2.9897847889988043,212.74708966899925,None,215.7705260469993,None,215.7705260469993,None,218.27538493799875,None,218.27538493799875,None,1.0668550019981922,220.07915312499972,None,220.07915312499972,None,6,1,0.7339661179976247,221.13054357500005,None,221.13054357500005,None,221.13054357500005,None,221.8811423320003,None,1,0.35090939500150853,221.8811423320003,None,8,222.24851303200194,None,131,B,1,2021_May_28_1450,GazeFlow,2020.1.2,59.88742170818099,
2,Block805.xls,B,5,3,64,64,None,congruent,Left,Left,Right,69,76,7,yellow,2,6,/home/docky/apps/exp/images/69Y.jpeg,/home/docky/apps/exp/images/76Yi.jpeg,0,1,1,1,0,2,2,2,223.2506551639999,None,223.2506551639999,None,1,3.1068892769981176,223.2506551639999,None,226.39130584300074,None,226.39130584300074,None,228.89633199600212,None,228.89633199600212,None,1.0001393249985995,230.69291519699982,None,230.69291519699982,None,6,1,0.667371497998829,231.68439129599938,None,231.68439129599938,None,231.68439129599938,None,232.36839623500055,None,1,0.36764504999882774,232.36839623500055,None,10,232.75260358100059,None,131,B,1,2021_May_28_1450,GazeFlow,2020.1.2,59.88742170818099,
2,Block805.xls,B,5,4,61,61,None,congruent,Left,Left,Right,38,39,1,yellow,2,6,/home/docky/apps/exp/images/38Yi.jpeg,/home/docky/apps/exp/images/39Y.jpeg,0,1,1,1,0,3,3,3,233.75464673600072,None,233.75464673600072,None,1,2.639536709000822,233.75464673600072,None,236.42852995000067,None,236.42852995000067,None,238.93234425099945,None,238.93234425099945,None,1.0166304350022983,240.7289798519996,None,240.7289798519996,None,6,1,0.6677010780003911,241.73723067299943,None,241.73723067299943,None,241.73723067299943,None,242.42156023799907,None,1,0.33380414600105723,242.42156023799907,None,12,242.77193728800194,None,131,B,1,2021_May_28_1450,GazeFlow,2020.1.2,59.88742170818099,
2,Block805.xls,B,5,5,23,23,None,congruent,Left,Left,Right,80,83,3,blue,2,6,/home/docky/apps/exp/images/80B.jpeg,/home/docky/apps/exp/images/83Bi.jpeg,0,1,1,1,0,4,4,4,243.774106552999,None,243.774106552999,None,1,2.7392859979991044,243.774106552999,None,246.5473415560009,None,246.5473415560009,None,249.05257415600136,None,249.05257415600136,None,1.100855003001925,250.85519350600225,None,250.85519350600225,None,6,1,0.7006653209973592,251.94040804900214,None,251.94040804900214,None,251.94040804900214,None,252.6582835850022,None,1,0.3335805819988309,252.6582835850022,None,14,253.0088751760013,None,131,B,1,2021_May_28_1450,GazeFlow,2020.1.2,59.88742170818099,
2,Block805.xls,B,5,6,87,87,None,congruent,Right,Right,Left,76,69,7,yellow,2,5,/home/docky/apps/exp/images/76Yi.jpeg,/home/docky/apps/exp/images/69Y.jpeg,0,1,1,1,0,5,5,5,254.01074681799946,None,254.01074681799946,None,1,3.023059489001753,254.01074681799946,None,257.06973872600065,None,257.06973872600065,None,259.5725418639995,None,259.5725418639995,None,1.0670242179985507,261.37464073999945,None,261.37464073999945,None,5,1,0.7005253370007267,262.42754549299934,None,262.42754549299934,None,262.42754549299934,None,263.14460956699986,None,1,0.367619079999713,263.14460956699986,None,16,263.52892951299873,None,131,B,1,2021_May_28_1450,GazeFlow,2020.1.2,59.88742170818099,
2,Block805.xls,B,5,7,4,4,None,congruent,Left,Left,Right,35,38,3,blue,2,6,/home/docky/apps/exp/images/35B.jpeg,/home/docky/apps/exp/images/38Bi.jpeg,0,1,1,1,0,6,6,6,264.53119077299925,None,264.53119077299925,None,1,3.791827226999885,264.53119077299925,None,268.3571402250018,None,268.3571402250018,None,270.8595293260005,None,270.8595293260005,None,1.100275844000862,272.6576341,None,272.6576341,None,6,1,0.7846273659997678,273.7492431270002,None,273.7492431270002,None,273.7492431270002,None,274.55037088500103,None,1,0.35067784399871016,274.55037088500103,None,18,274.9176579180021,None,131,B,1,2021_May_28_1450,GazeFlow,2020.1.2,59.88742170818099,
2,Block805.xls,B,5,8,114,18,None,incongruent,Right,Left,Right,79,82,3,yellow,2,6,/home/docky/apps/exp/images/79Y.jpeg,/home/docky/apps/exp/images/80Yi.jpeg,0,1,1,1,0,7,7,7,275.9197286310009,None,275.9197286310009,None,1,3.0065537379996385,275.9197286310009,None,278.96003526500135,None,278.96003526500135,None,281.46483014600017,None,281.46483014600017,None,1.8016465149994474,283.2664351400017,None,283.2664351400017,None,5,0,0.7678514690014708,285.0548529680018,None,285.0548529680018,None,285.0548529680018,None,285.83887806200073,None,1,0.3015479759997106,285.83887806200073,None,16,286.15682334699886,None,131,B,1,2021_May_28_1450,GazeFlow,2020.1.2,59.88742170818099,
2,Block805.xls,B,,,,,,,,,,,,,,,,,,0,1,1,1,,,,,,,,,,,,,,,,,,,,,,,,,,,,,,,,,,,,,,,,,,,,131,B,1,2021_May_28_1450,GazeFlow,2020.1.2,59.88742170818099,
3,Block804.xls,B,4,1,95,95,None,congruent,Right,Right,Left,80,79,1,yellow,2,5,/home/docky/apps/exp/images/80Yi.jpeg,/home/docky/apps/exp/images/79Y.jpeg,0,2,2,2,0,0,0,0,306.48080965199915,None,306.48080965199915,None,1,3.2937223219996667,306.48080965199915,None,309.80061878299966,None,309.80061878299966,None,312.3250319700019,None,312.3250319700019,None,1.4837614280004345,314.12869561499974,None,314.12869561499974,None,6,0,0.6507205810012238,315.597489759999,None,315.597489759999,None,315.597489759999,None,316.2647686170021,None,1,0.31801187899691286,316.2647686170021,None,14,316.5994110499996,None,131,B,1,2021_May_28_1450,GazeFlow,2020.1.2,59.88742170818099,
3,Block804.xls,B,4,2,107,11,None,incongruent,Left,Right,Left,83,80,3,blue,2,5,/home/docky/apps/exp/images/83Bi.jpeg,/home/docky/apps/exp/images/80B.jpeg,0,2,2,2,0,1,1,1,317.60089096199954,None,317.60089096199954,None,1,3.290242956001748,317.60089096199954,None,320.92513398600204,None,320.92513398600204,None,323.4283895890003,None,323.4283895890003,None,1.1502345049993892,325.2330900929992,None,325.2330900929992,None,5,1,0.7005597530005616,326.36840494100034,None,326.36840494100034,None,326.36840494100034,None,327.0858829450008,None,1,0.2671694269993168,327.0858829450008,None,16,327.36954947900085,None,131,B,1,2021_May_28_1450,GazeFlow,2020.1.2,59.88742170818099,
3,Block804.xls,B,4,3,27,27,None,congruent,Right,Right,Left,19,16,3,blue,2,5,/home/docky/apps/exp/images/19Bi.jpeg,/home/docky/apps/exp/images/16B.jpeg,0,2,2,2,0,2,2,2,328.3716374249998,None,328.3716374249998,None,1,3.2570715869987907,328.3716374249998,None,331.66270901200187,None,331.66270901200187,None,334.1675800180019,None,334.1675800180019,None,0.9998745850025443,335.97114172900183,None,335.97114172900183,None,5,1,0.7508633420002297,336.9557157970012,None,336.9557157970012,None,336.9557157970012,None,337.72324191699954,None,1,0.30047452700091526,337.72324191699954,None,18,338.0406578080001,None,131,B,1,2021_May_28_1450,GazeFlow,2020.1.2,59.88742170818099,
3,Block804.xls,B,4,4,101,5,None,incongruent,Right,Left,Right,76,79,3,blue,2,6,/home/docky/apps/exp/images/76B.jpeg,/home/docky/apps/exp/images/79Bi.jpeg,0,2,2,2,0,3,3,3,339.0424840900014,None,339.0424840900014,None,1,2.6562800699975924,339.0424840900014,None,341.7319328140002,None,341.7319328140002,None,344.2354128449988,None,344.2354128449988,None,1.100541740997869,346.03818247399977,None,346.03818247399977,None,6,1,0.7173817930015502,347.12551100600103,None,347.12551100600103,None,347.12551100600103,None,347.8595036379993,None,1,0.2672950750020391,347.8595036379993,None,20,348.14343682300023,None,131,B,1,2021_May_28_1450,GazeFlow,2020.1.2,59.88742170818099,
3,Block804.xls,B,4,5,47,47,None,congruent,Right,Right,Left,39,38,1,blue,2,5,/home/docky/apps/exp/images/39Bi.jpeg,/home/docky/apps/exp/images/38B.jpeg,0,2,2,2,0,4,4,4,349.14541354800167,None,349.14541354800167,None,1,2.7226272320003773,349.14541354800167,None,351.9016284729987,None,351.9016284729987,None,354.404796564002,None,354.404796564002,None,1.0670632330002263,356.2089331800016,None,356.2089331800016,None,6,0,0.6339961049998237,357.26179363399933,None,357.26179363399933,None,357.26179363399933,None,357.9124296350019,None,1,0.28418251300172415,357.9124296350019,None,18,358.21292173700203,None,131,B,1,2021_May_28_1450,GazeFlow,2020.1.2,59.88742170818099,
3,Block804.xls,B,4,6,90,90,None,congruent,Right,Right,Left,77,72,5,yellow,2,5,/home/docky/apps/exp/images/77Yi.jpeg,/home/docky/apps/exp/images/72Y.jpeg,0,2,2,2,0,5,5,5,359.21506524399956,None,359.21506524399956,None,1,2.9234315089997835,359.21506524399956,None,362.1717306249993,None,362.1717306249993,None,364.67471985299926,None,364.67471985299926,None,1.100256124002044,366.4780315429998,None,366.4780315429998,None,5,1,0.7175925949995872,367.56509229899893,None,367.56509229899893,None,367.56509229899893,None,368.2992668000006,None,1,0.4006647879978118,368.2992668000006,None,20,368.7167631459997,None,131,B,1,2021_May_28_1450,GazeFlow,2020.1.2,59.88742170818099,
3,Block804.xls,B,4,7,12,12,None,congruent,Left,Left,Right,38,39,1,blue,2,6,/home/docky/apps/exp/images/38B.jpeg,/home/docky/apps/exp/images/39Bi.jpeg,0,2,2,2,0,6,6,6,369.7187285809996,None,369.7187285809996,None,1,2.5394958649994805,369.7187285809996,None,372.29135454900097,None,372.29135454900097,None,374.794653363002,None,374.794653363002,None,1.2004639700026019,376.592715701001,None,376.592715701001,None,5,0,1.0513520569984394,377.78500324700144,None,377.78500324700144,None,377.78500324700144,None,378.8531134980003,None,1,0.3016039840003941,378.8531134980003,None,18,379.170794706999,None,131,B,1,2021_May_28_1450,GazeFlow,2020.1.2,59.88742170818099,
3,Block804.xls,B,4,8,20,20,None,congruent,Left,Left,Right,76,79,3,blue,2,6,/home/docky/apps/exp/images/76Bi.jpeg,/home/docky/apps/exp/images/79B.jpeg,0,2,2,2,0,7,7,7,380.1725355039998,None,380.1725355039998,None,1,3.7411812969985476,380.1725355039998,None,383.94579725800213,None,383.94579725800213,None,386.4503184280002,None,386.4503184280002,None,1.0838074569983291,388.2542384570006,None,388.2542384570006,None,6,1,0.7172960479983885,389.3243547509992,None,389.3243547509992,None,389.3243547509992,None,390.0583287920017,None,1,0.33432789300059085,390.0583287920017,None,20,390.409009752002,None,131,B,1,2021_May_28_1450,GazeFlow,2020.1.2,59.88742170818099,
3,Block804.xls,B,,,,,,,,,,,,,,,,,,0,2,2,2,,,,,,,,,,,,,,,,,,,,,,,,,,,,,,,,,,,,,,,,,,,,131,B,1,2021_May_28_1450,GazeFlow,2020.1.2,59.88742170818099,
4,Block814.xls,B,14,1,99,3,None,incongruent,Right,Left,Right,65,66,1,blue,2,6,/home/docky/apps/exp/images/35Yi.jpeg,/home/docky/apps/exp/images/66B.jpeg,0,3,3,3,0,0,0,0,406.29163051900105,None,406.29163051900105,None,1,3.5947380979996524,406.29163051900105,None,409.9141615430017,None,409.9141615430017,None,412.43999336900015,None,412.43999336900015,None,1.2334897379987524,414.239882271002,None,414.239882271002,None,6,1,0.7343270330020459,415.4580869450001,None,415.4580869450001,None,415.4580869450001,None,416.20903520700085,None,1,0.6180437660004827,416.20903520700085,None,22,416.8434620859989,None,131,B,1,2021_May_28_1450,GazeFlow,2020.1.2,59.88742170818099,
4,Block814.xls,B,14,2,34,34,None,congruent,Right,Right,Left,66,65,1,blue,2,5,/home/docky/apps/exp/images/66B.jpeg,/home/docky/apps/exp/images/35Yi.jpeg,0,3,3,3,0,1,1,1,417.8453201230004,None,417.8453201230004,None,1,2.2718176740017952,417.8453201230004,None,420.1511044580002,None,420.1511044580002,None,422.6542737210002,None,422.6542737210002,None,1.5511067469997215,424.4575071239997,None,424.4575071239997,None,5,1,0.7511461430003692,425.9953858209992,None,425.9953858209992,None,425.9953858209992,None,426.76326523100215,None,1,0.30091797699788003,426.76326523100215,None,24,427.08143822200145,None,131,B,1,2021_May_28_1450,GazeFlow,2020.1.2,59.88742170818099,
4,Block814.xls,B,14,3,91,91,None,congruent,Right,Right,Left,77,72,5,yellow,2,5,/home/docky/apps/exp/images/77Yi.jpeg,/home/docky/apps/exp/images/72Y.jpeg,0,3,3,3,0,2,2,2,428.0819845219994,None,428.0819845219994,None,1,2.605976376999024,428.0819845219994,None,430.72183879500153,None,430.72183879500153,None,433.2243839110015,None,433.2243839110015,None,0.9332752379996236,435.02787571500085,None,435.02787571500085,None,5,1,0.6843572100005986,435.94797398800074,None,435.94797398800074,None,435.94797398800074,None,436.6484572840018,None,1,0.33433409400095115,436.6484572840018,None,26,436.9997877329988,None,131,B,1,2021_May_28_1450,GazeFlow,2020.1.2,59.88742170818099,
4,Block814.xls,B,14,4,68,68,None,congruent,Left,Left,Right,72,77,5,yellow,2,6,/home/docky/apps/exp/images/72Yi.jpeg,/home/docky/apps/exp/images/77Y.jpeg,0,3,3,3,0,3,3,3,438.00165438600015,None,438.00165438600015,None,1,3.0063211740016413,438.00165438600015,None,441.04160831099944,None,441.04160831099944,None,443.54663079500097,None,443.54663079500097,None,0.9663897809987247,445.3486270220019,None,445.3486270220019,None,6,1,0.667657160996896,446.3012596949993,None,446.3012596949993,None,446.3012596949993,None,446.9853109889991,None,1,0.25059324800167815,446.9853109889991,None,28,447.25250688099914,None,131,B,1,2021_May_28_1450,GazeFlow,2020.1.2,59.88742170818099,
4,Block814.xls,B,14,5,66,66,None,congruent,Left,Left,Right,69,76,7,yellow,2,6,/home/docky/apps/exp/images/69Yi.jpeg,/home/docky/apps/exp/images/76Y.jpeg,0,3,3,3,0,4,4,4,448.2551444540004,None,448.2551444540004,None,1,2.4048316209991754,448.2551444540004,None,450.6937313519993,None,450.6937313519993,None,453.19836536500225,None,453.19836536500225,None,0.8832904349983437,455.00011450500097,None,455.00011450500097,None,6,1,0.7009899799995765,455.8700104339987,None,455.8700104339987,None,455.8700104339987,None,456.58743554800094,None,1,0.25057081500199274,456.58743554800094,None,30,456.8546757949989,None,131,B,1,2021_May_28_1450,GazeFlow,2020.1.2,59.88742170818099,
4,Block814.xls,B,14,6,115,19,None,incongruent,Left,Right,Left,80,79,1,yellow,2,5,/home/docky/apps/exp/images/80Yi.jpeg,/home/docky/apps/exp/images/79Y.jpeg,0,3,3,3,0,5,5,5,457.8571399850007,None,457.8571399850007,None,1,2.254699797002104,457.8571399850007,None,460.14543053500165,None,460.14543053500165,None,462.64883915300015,None,462.64883915300015,None,0.983473807998962,464.45174195599975,None,464.45174195599975,None,5,1,0.6674302390019875,465.42202878100215,None,465.42202878100215,None,465.42202878100215,None,466.1063522930017,None,1,0.2504395649993967,466.1063522930017,None,32,466.37334648400065,None,131,B,1,2021_May_28_1450,GazeFlow,2020.1.2,59.88742170818099,
4,Block814.xls,B,14,7,9,9,None,congruent,Left,Left,Right,65,66,1,blue,2,6,/home/docky/apps/exp/images/35Yi.jpeg,/home/docky/apps/exp/images/66B.jpeg,0,3,3,3,0,6,6,6,467.37577610800145,None,467.37577610800145,None,1,3.106095136998192,467.37577610800145,None,470.5155435209999,None,470.5155435209999,None,473.01852556499944,None,473.01852556499944,None,1.0668777399987448,474.8215946820019,None,474.8215946820019,None,6,1,1.3191184610004711,475.87559652500204,None,475.87559652500204,None,475.87559652500204,None,477.2113451940022,None,1,0.3009987719997298,477.2113451940022,None,34,477.5285640330003,None,131,B,1,2021_May_28_1450,GazeFlow,2020.1.2,59.88742170818099,
4,Block814.xls,B,14,8,14,14,None,congruent,Left,Left,Right,38,39,1,blue,2,6,/home/docky/apps/exp/images/38Bi.jpeg,/home/docky/apps/exp/images/39B.jpeg,0,3,3,3,0,7,7,7,478.5301189940001,None,478.5301189940001,None,1,2.455524114000582,478.5301189940001,None,481.01945703100137,None,481.01945703100137,None,483.5255910220003,None,483.5255910220003,None,0.9338030159997288,485.3256057139988,None,485.3256057139988,None,6,1,0.584292720999656,486.24589133500194,None,486.24589133500194,None,486.24589133500194,None,486.84625941800186,None,1,0.26728070699755335,486.84625941800186,None,36,487.12999475499964,None,131,B,1,2021_May_28_1450,GazeFlow,2020.1.2,59.88742170818099,
4,Block814.xls,B,,,,,,,,,,,,,,,,,,0,3,3,3,,,,,,,,,,,,,,,,,,,,,,,,,,,,,,,,,,,,,,,,,,,,131,B,1,2021_May_28_1450,GazeFlow,2020.1.2,59.88742170818099,
5,Block812.xls,B,12,1,18,18,None,congruent,Left,Left,Right,73,76,3,blue,2,6,/home/docky/apps/exp/images/73B.jpeg,/home/docky/apps/exp/images/76Bi.jpeg,0,4,4,4,0,0,0,0,509.42655722999916,None,509.42655722999916,None,1,4.530910682999092,509.42655722999916,None,513.9814694660017,None,513.9814694660017,None,516.5034161209987,None,516.5034161209987,None,0.7996144230019127,518.3070467290017,None,518.3070467290017,None,6,1,0.7173064329981571,519.0929994380022,None,519.0929994380022,None,519.0929994380022,None,519.8274296070012,None,1,0.2504987610009266,519.8274296070012,None,38,520.0942031900013,None,131,B,1,2021_May_28_1450,GazeFlow,2020.1.2,59.88742170818099,
5,Block812.xls,B,12,2,3,3,None,congruent,Left,Left,Right,16,19,3,blue,2,6,/home/docky/apps/exp/images/16Bi.jpeg,/home/docky/apps/exp/images/19B.jpeg,0,4,4,4,0,1,1,1,521.0964976380019,None,521.0964976380019,None,1,2.30527974999859,521.0964976380019,None,523.4351911689992,None,523.4351911689992,None,525.9383902879999,None,525.9383902879999,None,0.899392543000431,527.7362595420018,None,527.7362595420018,None,6,1,0.6339717730006669,528.6280273299999,None,528.6280273299999,None,528.6280273299999,None,529.2786841650013,None,1,0.2672697350026283,529.2786841650013,None,40,529.5627030489995,None,131,B,1,2021_May_28_1450,GazeFlow,2020.1.2,59.88742170818099,
5,Block812.xls,B,12,3,56,56,None,congruent,Left,Left,Right,62,65,3,yellow,2,6,/home/docky/apps/exp/images/38Bi.jpeg,/home/docky/apps/exp/images/35B.jpeg,0,4,4,4,0,2,2,2,530.5649416000015,None,530.5649416000015,None,1,1.9206656759997713,530.5649416000015,None,532.5194514840005,None,532.5194514840005,None,535.0226362559988,None,535.0226362559988,None,1.0002245379982924,536.8257729100005,None,536.8257729100005,None,5,0,0.667408853998495,537.8125793079998,None,537.8125793079998,None,537.8125793079998,None,538.4966522030008,None,1,0.25051015699864365,538.4966522030008,None,38,538.7638777030006,None,131,B,1,2021_May_28_1450,GazeFlow,2020.1.2,59.88742170818099,
5,Block812.xls,B,12,4,11,11,None,congruent,Left,Left,Right,38,39,1,blue,2,6,/home/docky/apps/exp/images/38B.jpeg,/home/docky/apps/exp/images/39Bi.jpeg,0,4,4,4,0,3,3,3,539.7658426279995,None,539.7658426279995,None,1,2.1721219520004524,539.7658426279995,None,541.9710296609992,None,541.9710296609992,None,544.4741422360021,None,544.4741422360021,None,0.9667540740010736,546.2774469079995,None,546.2774469079995,None,6,1,0.634121117000177,547.2309023400012,None,547.2309023400012,None,547.2309023400012,None,547.8816347930006,None,1,0.2671741749982175,547.8816347930006,None,40,548.165123797,None,131,B,1,2021_May_28_1450,GazeFlow,2020.1.2,59.88742170818099,
5,Block812.xls,B,12,5,116,20,None,incongruent,Left,Right,Left,35,33,2,yellow,2,5,/home/docky/apps/exp/images/35Yi.jpeg,/home/docky/apps/exp/images/33Y.jpeg,0,4,4,4,0,4,4,4,549.1679490800016,None,549.1679490800016,None,1,1.8875432699969679,549.1679490800016,None,551.0888857300015,None,551.0888857300015,None,553.5920248809998,None,553.5920248809998,None,1.400670672999695,555.3945042500018,None,555.3945042500018,None,6,0,0.7847872730017116,556.7827703969997,None,556.7827703969997,None,556.7827703969997,None,557.58371721,None,1,0.26788249099990935,557.58371721,None,38,557.8681143770009,None,131,B,1,2021_May_28_1450,GazeFlow,2020.1.2,59.88742170818099,
5,Block812.xls,B,12,6,40,40,None,congruent,Right,Right,Left,79,76,3,blue,2,5,/home/docky/apps/exp/images/79Bi.jpeg,/home/docky/apps/exp/images/76B.jpeg,0,4,4,4,0,5,5,5,558.8700143850001,None,558.8700143850001,None,1,1.8371473339975637,558.8700143850001,None,560.7411088090012,None,560.7411088090012,None,563.243540866999,None,563.243540866999,None,0.8997324960000697,565.0465223020001,None,565.0465223020001,None,5,1,0.6505766740010586,565.9338421089997,None,565.9338421089997,None,565.9338421089997,None,566.6011599109988,None,1,0.3342192950003664,566.6011599109988,None,40,566.951726694002,None,131,B,1,2021_May_28_1450,GazeFlow,2020.1.2,59.88742170818099,
5,Block812.xls,B,12,7,76,76,None,congruent,Right,Right,Left,39,38,1,yellow,2,5,/home/docky/apps/exp/images/39Yi.jpeg,/home/docky/apps/exp/images/38Y.jpeg,0,4,4,4,0,6,6,6,567.9538957610021,None,567.9538957610021,None,1,2.105124388999684,567.9538957610021,None,570.0928499090005,None,570.0928499090005,None,572.5954051240005,None,572.5954051240005,None,1.6848311280009511,574.3988970950013,None,574.3988970950013,None,5,1,0.6008348719988135,576.0703613869991,None,576.0703613869991,None,576.0703613869991,None,576.6876119869994,None,1,0.26712199299799977,576.6876119869994,None,42,576.9718223700002,None,131,B,1,2021_May_28_1450,GazeFlow,2020.1.2,59.88742170818099,
5,Block812.xls,B,12,8,77,77,None,congruent,Right,Right,Left,39,38,1,yellow,2,5,/home/docky/apps/exp/images/39Y.jpeg,/home/docky/apps/exp/images/38Yi.jpeg,0,4,4,4,0,7,7,7,577.9735496180001,None,577.9735496180001,None,1,2.5893301489995793,577.9735496180001,None,580.5960835820006,None,580.5960835820006,None,583.1035232979993,None,583.1035232979993,None,1.3171302390001074,584.9046601430018,None,584.9046601430018,None,5,1,0.6843524500000058,586.2065999160004,None,586.2065999160004,None,586.2065999160004,None,586.9073945359996,None,1,0.28440591099933954,586.9073945359996,None,44,587.2084308929989,None,131,B,1,2021_May_28_1450,GazeFlow,2020.1.2,59.88742170818099,
5,Block812.xls,B,,,,,,,,,,,,,,,,,,0,4,4,4,,,,,,,,,,,,,,,,,,,,,,,,,,,,,,,,,,,,,,,,,,,,131,B,1,2021_May_28_1450,GazeFlow,2020.1.2,59.88742170818099,
6,Block803.xls,B,3,1,84,84,None,congruent,Right,Right,Left,75,69,6,yellow,2,5,/home/docky/apps/exp/images/76Yi.jpeg,/home/docky/apps/exp/images/69Y.jpeg,0,5,5,5,0,0,0,0,608.6009168540004,None,608.6009168540004,None,1,5.901565056999971,608.6009168540004,None,614.5338030480016,None,614.5338030480016,None,617.0502957060016,None,617.0502957060016,None,0.8826103130013507,618.8525234900007,None,618.8525234900007,None,5,1,0.6672510800017335,619.721904623002,None,619.721904623002,None,619.721904623002,None,620.4058824169988,None,1,0.3004520229987975,620.4058824169988,None,46,620.7231728629995,None,131,B,1,2021_May_28_1450,GazeFlow,2020.1.2,59.88742170818099,
6,Block803.xls,B,3,2,82,82,None,congruent,Right,Right,Left,66,65,1,yellow,2,5,/home/docky/apps/exp/images/66Y.jpeg,/home/docky/apps/exp/images/35Bi.jpeg,0,5,5,5,0,1,1,1,621.725415293,None,621.725415293,None,1,3.1397417789994506,621.725415293,None,624.8990277090015,None,624.8990277090015,None,627.4016312349995,None,627.4016312349995,None,1.5846548280023853,629.2048436430014,None,629.2048436430014,None,5,1,0.6172260649982491,630.7765375830022,None,630.7765375830022,None,630.7765375830022,None,631.4106432699991,None,1,0.30121284800043213,631.4106432699991,None,48,631.7282793980012,None,131,B,1,2021_May_28_1450,GazeFlow,2020.1.2,59.88742170818099,
6,Block803.xls,B,3,3,80,80,None,congruent,Right,Right,Left,66,65,1,yellow,2,5,/home/docky/apps/exp/images/66Yi.jpeg,/home/docky/apps/exp/images/35B.jpeg,0,5,5,5,0,2,2,2,632.7300327320008,None,632.7300327320008,None,1,2.7557858920008584,632.7300327320008,None,635.5194670160017,None,635.5194670160017,None,638.0227656220013,None,638.0227656220013,None,0.9504100659978576,639.8250224809999,None,639.8250224809999,None,5,1,0.6678919500009215,640.7625025660018,None,640.7625025660018,None,640.7625025660018,None,641.4467688040022,None,1,0.23389408900038688,641.4467688040022,None,50,641.6970719950004,None,131,B,1,2021_May_28_1450,GazeFlow,2020.1.2,59.88742170818099,
6,Block803.xls,B,3,4,79,79,None,congruent,Right,Right,Left,66,65,1,yellow,2,5,/home/docky/apps/exp/images/66Y.jpeg,/home/docky/apps/exp/images/35Bi.jpeg,0,5,5,5,0,3,3,3,642.6991577709996,None,642.6991577709996,None,1,1.7712925730011193,642.6991577709996,None,644.5049104729987,None,644.5049104729987,None,647.0086879549999,None,647.0086879549999,None,0.9500031559982745,648.8076304470014,None,648.8076304470014,None,5,1,0.6341366019987618,649.7467760520012,None,649.7467760520012,None,649.7467760520012,None,650.397437519001,None,1,0.25042578599823173,650.397437519001,None,52,650.6643165890018,None,131,B,1,2021_May_28_1450,GazeFlow,2020.1.2,59.88742170818099,
6,Block803.xls,B,3,5,92,92,None,congruent,Right,Right,Left,77,72,5,yellow,2,5,/home/docky/apps/exp/images/77Y.jpeg,/home/docky/apps/exp/images/72Yi.jpeg,0,5,5,5,0,4,4,4,651.6671152090021,None,651.6671152090021,None,1,1.9038305699978082,651.6671152090021,None,653.6046947430004,None,653.6046947430004,None,656.109438689,None,656.109438689,None,0.983643943000061,657.9109859990022,None,657.9109859990022,None,6,0,0.583869420002884,658.881308439999,None,658.881308439999,None,658.881308439999,None,659.4817939040004,None,1,0.28405356599978404,659.4817939040004,None,50,659.7823761200016,None,131,B,1,2021_May_28_1450,GazeFlow,2020.1.2,59.88742170818099,
6,Block803.xls,B,3,6,106,10,None,incongruent,Left,Right,Left,79,76,3,blue,2,5,/home/docky/apps/exp/images/79Bi.jpeg,/home/docky/apps/exp/images/76B.jpeg,0,5,5,5,0,5,5,5,660.7847804519988,None,660.7847804519988,None,1,1.953961535000417,660.7847804519988,None,662.7726681460008,None,662.7726681460008,None,665.2758814510016,None,665.2758814510016,None,0.8998382419995323,667.0782308750022,None,667.0782308750022,None,5,1,0.667521195999143,667.9653283150001,None,667.9653283150001,None,667.9653283150001,None,668.6497946029995,None,1,0.2502197009998781,668.6497946029995,None,52,668.916971128001,None,131,B,1,2021_May_28_1450,GazeFlow,2020.1.2,59.88742170818099,
6,Block803.xls,B,3,7,25,25,None,congruent,Right,Right,Left,19,16,3,blue,2,5,/home/docky/apps/exp/images/19Bi.jpeg,/home/docky/apps/exp/images/16B.jpeg,0,5,5,5,0,6,6,6,669.9191741790019,None,669.9191741790019,None,1,1.7696069899975555,669.9191741790019,None,671.7061752520021,None,671.7061752520021,None,674.2277981010011,None,674.2277981010011,None,1.467732723998779,676.0315986210007,None,676.0315986210007,None,6,0,1.41958829700161,677.4839136970004,None,677.4839136970004,None,677.4839136970004,None,678.9198915519992,None,1,0.28353762500046287,678.9198915519992,None,50,679.2201528020014,None,131,B,1,2021_May_28_1450,GazeFlow,2020.1.2,59.88742170818099,
6,Block803.xls,B,3,8,46,46,None,congruent,Right,Right,Left,39,38,1,blue,2,5,/home/docky/apps/exp/images/39B.jpeg,/home/docky/apps/exp/images/38Bi.jpeg,0,5,5,5,0,7,7,7,680.2221591330017,None,680.2221591330017,None,1,2.1886592930022744,680.2221591330017,None,682.444312554002,None,682.444312554002,None,684.9489054059995,None,684.9489054059995,None,0.84965677999935,686.7459328320001,None,686.7459328320001,None,5,1,0.6006334419980703,687.587144191999,None,687.587144191999,None,687.587144191999,None,688.2040877690015,None,1,0.25074774799941224,688.2040877690015,None,52,688.471313080001,None,131,B,1,2021_May_28_1450,GazeFlow,2020.1.2,59.88742170818099,
6,Block803.xls,B,,,,,,,,,,,,,,,,,,0,5,5,5,,,,,,,,,,,,,,,,,,,,,,,,,,,,,,,,,,,,,,,,,,,,131,B,1,2021_May_28_1450,GazeFlow,2020.1.2,59.88742170818099,
7,Block810.xls,B,10,1,119,23,None,incongruent,Left,Right,Left,76,69,7,yellow,2,5,/home/docky/apps/exp/images/76Yi.jpeg,/home/docky/apps/exp/images/69Y.jpeg,0,6,6,6,0,0,0,0,713.0864284070012,None,713.0864284070012,None,1,4.349823419001041,713.0864284070012,None,717.459903248,None,717.459903248,None,719.9824272869992,None,719.9824272869992,None,0.8493037440020998,721.7811573290019,None,721.7811573290019,None,5,1,0.6182651309973153,722.621714121,None,722.621714121,None,722.621714121,None,723.2555239940011,None,1,0.2841035080018628,723.2555239940011,None,54,723.5558983580013,None,131,B,1,2021_May_28_1450,GazeFlow,2020.1.2,59.88742170818099,
7,Block810.xls,B,10,2,43,43,None,congruent,Right,Right,Left,83,80,3,blue,2,5,/home/docky/apps/exp/images/83B.jpeg,/home/docky/apps/exp/images/80Bi.jpeg,0,6,6,6,0,1,1,1,724.558652071999,None,724.558652071999,None,1,2.4386018559998774,724.558652071999,None,727.0306736250022,None,727.0306736250022,None,729.5337920029997,None,729.5337920029997,None,0.9165003470006923,731.3401428950019,None,731.3401428950019,None,5,1,0.7010534330001974,732.2404504600017,None,732.2404504600017,None,732.2404504600017,None,732.9581107929989,None,1,0.2668929629980994,732.9581107929989,None,56,733.2419227460014,None,131,B,1,2021_May_28_1450,GazeFlow,2020.1.2,59.88742170818099,
7,Block810.xls,B,10,3,53,53,None,congruent,Left,Left,Right,65,66,1,yellow,2,6,/home/docky/apps/exp/images/35Bi.jpeg,/home/docky/apps/exp/images/66Y.jpeg,0,6,6,6,0,2,2,2,734.2436081279993,None,734.2436081279993,None,1,1.9879944280000927,734.2436081279993,None,736.2654788770014,None,736.2654788770014,None,738.7682385629996,None,738.7682385629996,None,0.9167677699988417,740.5704848780006,None,740.5704848780006,None,5,0,0.6837288589995296,741.4753673429987,None,741.4753673429987,None,741.4753673429987,None,742.1757342570017,None,1,0.23401142100192374,742.1757342570017,None,54,742.4263041250015,None,131,B,1,2021_May_28_1450,GazeFlow,2020.1.2,59.88742170818099,
7,Block810.xls,B,10,4,74,74,None,congruent,Right,Right,Left,35,33,2,yellow,2,5,/home/docky/apps/exp/images/35Y.jpeg,/home/docky/apps/exp/images/33Yi.jpeg,0,6,6,6,0,3,3,3,743.4286071089991,None,743.4286071089991,None,1,1.9873764689982636,743.4286071089991,None,745.449725429,None,745.449725429,None,747.9562959520008,None,747.9562959520008,None,1.5849109689988836,749.7503716530009,None,749.7503716530009,None,5,1,0.8352166519980528,751.3276030340021,None,751.3276030340021,None,751.3276030340021,None,752.1788831350023,None,1,0.2676792029997159,752.1788831350023,None,56,752.462801067999,None,131,B,1,2021_May_28_1450,GazeFlow,2020.1.2,59.88742170818099,
7,Block810.xls,B,10,5,21,21,None,congruent,Left,Left,Right,76,79,3,blue,2,6,/home/docky/apps/exp/images/76B.jpeg,/home/docky/apps/exp/images/79Bi.jpeg,0,6,6,6,0,4,4,4,753.4643093340019,None,753.4643093340019,None,1,1.871027037002932,753.4643093340019,None,755.3723239399988,None,755.3723239399988,None,757.8723677119997,None,757.8723677119997,None,1.8016902189992834,759.6696551890018,None,759.6696551890018,None,6,1,0.5677198999983375,761.4637788229993,None,761.4637788229993,None,761.4637788229993,None,762.0480503010003,None,1,0.3006792800006224,762.0480503010003,None,58,762.3653476569998,None,131,B,1,2021_May_28_1450,GazeFlow,2020.1.2,59.88742170818099,
7,Block810.xls,B,10,6,85,85,None,congruent,Right,Right,Left,75,69,6,yellow,2,5,/home/docky/apps/exp/images/76Y.jpeg,/home/docky/apps/exp/images/69Yi.jpeg,0,6,6,6,0,5,5,5,763.3668298590019,None,763.3668298590019,None,1,1.9048486790015886,763.3668298590019,None,765.3050324930009,None,765.3050324930009,None,767.8098612909998,None,767.8098612909998,None,0.8832580269991013,769.6069981389992,None,769.6069981389992,None,5,1,0.6508170919987606,770.4815653180012,None,770.4815653180012,None,770.4815653180012,None,771.1487145350002,None,1,0.28422088300067117,771.1487145350002,None,60,771.4493205729996,None,131,B,1,2021_May_28_1450,GazeFlow,2020.1.2,59.88742170818099,
7,Block810.xls,B,10,7,49,49,None,congruent,Left,Left,Right,33,35,2,yellow,2,6,/home/docky/apps/exp/images/33Yi.jpeg,/home/docky/apps/exp/images/35Y.jpeg,0,6,6,6,0,6,6,6,772.4517064089996,None,772.4517064089996,None,1,2.104721581003105,772.4517064089996,None,774.5885073030004,None,774.5885073030004,None,777.0942505099993,None,777.0942505099993,None,0.916749471998628,778.8954951859996,None,778.8954951859996,None,6,1,0.6172321740014013,779.7994542699998,None,779.7994542699998,None,779.7994542699998,None,780.4334398319988,None,1,0.26752912899974035,780.4334398319988,None,62,780.7171911559999,None,131,B,1,2021_May_28_1450,GazeFlow,2020.1.2,59.88742170818099,
7,Block810.xls,B,10,8,63,63,None,congruent,Left,Left,Right,38,39,1,yellow,2,6,/home/docky/apps/exp/images/38Y.jpeg,/home/docky/apps/exp/images/39Yi.jpeg,0,6,6,6,0,7,7,7,781.7198045910009,None,781.7198045910009,None,1,2.3551028430010774,781.7198045910009,None,784.1084263369994,None,784.1084263369994,None,786.6132159389999,None,786.6132159389999,None,0.8668362930002331,788.4146324729991,None,788.4146324729991,None,6,1,0.5842429340009403,789.2678059669997,None,789.2678059669997,None,789.2678059669997,None,789.868235705002,None,1,0.2510625569993863,789.868235705002,None,64,790.1355489830021,None,131,B,1,2021_May_28_1450,GazeFlow,2020.1.2,59.88742170818099,
7,Block810.xls,B,,,,,,,,,,,,,,,,,,0,6,6,6,,,,,,,,,,,,,,,,,,,,,,,,,,,,,,,,,,,,,,,,,,,,131,B,1,2021_May_28_1450,GazeFlow,2020.1.2,59.88742170818099,
8,Block801.xls,B,1,1,1,1,None,congruent,Left,Left,Right,16,19,3,blue,2,6,/home/docky/apps/exp/images/16Bi.jpeg,/home/docky/apps/exp/images/19B.jpeg,0,7,7,7,0,0,0,0,815.4196701260007,None,815.4196701260007,None,1,7.533887625999341,815.4196701260007,None,822.9826276669992,None,822.9826276669992,None,825.5055010950018,None,825.5055010950018,None,0.9162953849991027,827.3088947920005,None,827.3088947920005,None,6,1,0.6677051600017876,828.2102658500007,None,828.2102658500007,None,828.2102658500007,None,828.8942467170018,None,1,0.31739107799876365,828.8942467170018,None,66,829.2284853199999,None,131,B,1,2021_May_28_1450,GazeFlow,2020.1.2,59.88742170818099,
8,Block801.xls,B,1,2,105,9,None,incongruent,Left,Right,Left,79,73,6,blue,2,5,/home/docky/apps/exp/images/79B.jpeg,/home/docky/apps/exp/images/73Bi.jpeg,0,7,7,7,0,1,1,1,830.2305640990016,None,830.2305640990016,None,1,2.054399029999331,830.2305640990016,None,832.320979144999,None,832.320979144999,None,834.8214444910009,None,834.8214444910009,None,0.916973842002335,836.6197016539991,None,836.6197016539991,None,5,1,0.6506268279990763,837.5283189770016,None,837.5283189770016,None,837.5283189770016,None,838.1956945080019,None,1,0.2503670139994938,838.1956945080019,None,68,838.462874658002,None,131,B,1,2021_May_28_1450,GazeFlow,2020.1.2,59.88742170818099,
8,Block801.xls,B,1,3,62,62,None,congruent,Left,Left,Right,38,39,1,yellow,2,6,/home/docky/apps/exp/images/38Y.jpeg,/home/docky/apps/exp/images/39Yi.jpeg,0,7,7,7,0,2,2,2,839.4652601509988,None,839.4652601509988,None,1,1.9539347919999273,839.4652601509988,None,841.4530358289994,None,841.4530358289994,None,843.9556671259998,None,843.9556671259998,None,2.219523150997702,845.7545924920014,None,845.7545924920014,None,5,0,2.4206061770019005,847.9651858809993,None,847.9651858809993,None,847.9651858809993,None,850.4029342190006,None,1,0.46799131100124214,850.4029342190006,None,66,850.887416005,None,131,B,1,2021_May_28_1450,GazeFlow,2020.1.2,59.88742170818099,
8,Block801.xls,B,1,4,38,38,None,congruent,Right,Right,Left,79,73,6,blue,2,5,/home/docky/apps/exp/images/79B.jpeg,/home/docky/apps/exp/images/73Bi.jpeg,0,7,7,7,0,3,3,3,851.889420620002,None,851.889420620002,None,1,2.3881085889988753,851.889420620002,None,854.3115623599988,None,854.3115623599988,None,856.814327791999,None,856.814327791999,None,0.8667732260000776,858.6121354300012,None,858.6121354300012,None,5,1,0.6508017399974051,859.4708396570022,None,859.4708396570022,None,859.4708396570022,None,860.1381377790021,None,1,0.3179912689993216,860.1381377790021,None,68,860.4719345880003,None,131,B,1,2021_May_28_1450,GazeFlow,2020.1.2,59.88742170818099,
8,Block801.xls,B,1,5,6,6,None,congruent,Left,Left,Right,35,38,3,blue,2,6,/home/docky/apps/exp/images/35Bi.jpeg,/home/docky/apps/exp/images/38B.jpeg,0,7,7,7,0,4,4,4,861.4747989169991,None,861.4747989169991,None,1,1.8375029349990655,861.4747989169991,None,863.3456913660011,None,863.3456913660011,None,865.848009829002,None,865.848009829002,None,0.9835022630031744,867.6462038409991,None,867.6462038409991,None,6,1,0.6339917699988291,868.6221584800005,None,868.6221584800005,None,868.6221584800005,None,869.2727394940011,None,1,0.3338895880006021,869.2727394940011,None,70,869.6234435020015,None,131,B,1,2021_May_28_1450,GazeFlow,2020.1.2,59.88742170818099,
8,Block801.xls,B,1,6,51,51,None,congruent,Left,Left,Right,33,35,2,yellow,2,6,/home/docky/apps/exp/images/33Yi.jpeg,/home/docky/apps/exp/images/35Y.jpeg,0,7,7,7,0,5,5,5,870.6250907419999,None,870.6250907419999,None,1,2.505818726000143,870.6250907419999,None,873.1657129070009,None,873.1657129070009,None,875.6695630909999,None,875.6695630909999,None,0.9834693230004632,877.471690614002,None,877.471690614002,None,6,1,0.6340693840029417,878.4409031719988,None,878.4409031719988,None,878.4409031719988,None,879.0916739630011,None,1,0.31756726400271873,879.0916739630011,None,72,879.4257102830015,None,131,B,1,2021_May_28_1450,GazeFlow,2020.1.2,59.88742170818099,
8,Block801.xls,B,1,7,73,73,None,congruent,Right,Right,Left,35,33,2,yellow,2,5,/home/docky/apps/exp/images/35Yi.jpeg,/home/docky/apps/exp/images/33Y.jpeg,0,7,7,7,0,6,6,6,880.4281898320005,None,880.4281898320005,None,1,3.1061680230013735,880.4281898320005,None,883.5720435760013,None,883.5720435760013,None,886.0703110229988,None,886.0703110229988,None,1.0168104199983645,887.8741035300009,None,887.8741035300009,None,5,1,0.6337924540021049,888.8782523820009,None,888.8782523820009,None,888.8782523820009,None,889.5289704829993,None,1,0.33377848899908713,889.5289704829993,None,74,889.8792347679992,None,131,B,1,2021_May_28_1450,GazeFlow,2020.1.2,59.88742170818099,
8,Block801.xls,B,1,8,96,96,None,congruent,Right,Right,Left,80,79,1,yellow,2,5,/home/docky/apps/exp/images/80Yi.jpeg,/home/docky/apps/exp/images/79Y.jpeg,0,7,7,7,0,7,7,7,890.8815693149991,None,890.8815693149991,None,1,1.9374896970002737,890.8815693149991,None,892.8529639619992,None,892.8529639619992,None,895.3572955000018,None,895.3572955000018,None,0.9167528939979093,897.1607322630007,None,897.1607322630007,None,5,1,0.6172122819989454,898.062659645002,None,898.062659645002,None,898.062659645002,None,898.6964599349994,None,1,0.38438497300012386,898.6964599349994,None,76,899.0971491140008,None,131,B,1,2021_May_28_1450,GazeFlow,2020.1.2,59.88742170818099,
8,Block801.xls,B,,,,,,,,,,,,,,,,,,0,7,7,7,,,,,,,,,,,,,,,,,,,,,,,,,,,,,,,,,,,,,,,,,,,,131,B,1,2021_May_28_1450,GazeFlow,2020.1.2,59.88742170818099,
9,Block802.xls,B,2,1,30,30,None,congruent,Right,Right,Left,38,35,3,blue,2,5,/home/docky/apps/exp/images/38B.jpeg,/home/docky/apps/exp/images/35Bi.jpeg,0,8,8,8,0,0,0,0,945.9895745489994,None,945.9895745489994,None,1,6.152784419002273,945.9895745489994,None,952.1714483329997,None,952.1714483329997,None,954.6897832329996,None,954.6897832329996,None,0.8828284320006787,956.4933614820002,None,956.4933614820002,None,5,1,0.6342658889989252,957.3611694120009,None,957.3611694120009,None,957.3611694120009,None,958.0117438589987,None,1,0.33398459299860406,958.0117438589987,None,78,958.3622767900015,None,131,B,1,2021_May_28_1450,GazeFlow,2020.1.2,59.88742170818099,
9,Block802.xls,B,2,2,5,5,None,congruent,Left,Left,Right,35,38,3,blue,2,6,/home/docky/apps/exp/images/35B.jpeg,/home/docky/apps/exp/images/38Bi.jpeg,0,8,8,8,0,1,1,1,959.3648118599995,None,959.3648118599995,None,1,2.288067031000537,959.3648118599995,None,961.6876177250015,None,961.6876177250015,None,964.1899798300001,None,964.1899798300001,None,0.9166225650005799,965.9931604960002,None,965.9931604960002,None,6,1,0.617346073002409,966.8962251740013,None,966.8962251740013,None,966.8962251740013,None,967.530111041,None,1,0.3509665989986388,967.530111041,None,80,967.8975934260015,None,131,B,1,2021_May_28_1450,GazeFlow,2020.1.2,59.88742170818099,
9,Block802.xls,B,2,3,103,7,None,incongruent,Left,Right,Left,19,16,3,blue,2,5,/home/docky/apps/exp/images/19Bi.jpeg,/home/docky/apps/exp/images/16B.jpeg,0,8,8,8,0,2,2,2,968.8999130350021,None,968.8999130350021,None,1,2.2713263139994524,968.8999130350021,None,971.2032310600007,None,971.2032310600007,None,973.7079350189997,None,973.7079350189997,None,1.1341350319999037,975.5112631480006,None,975.5112631480006,None,5,1,0.6007918510003947,976.6318266080016,None,976.6318266080016,None,976.6318266080016,None,977.2490564460022,None,1,0.3348056440008804,977.2490564460022,None,82,977.6004865840005,None,131,B,1,2021_May_28_1450,GazeFlow,2020.1.2,59.88742170818099,
9,Block802.xls,B,2,4,35,35,None,congruent,Right,Right,Left,66,65,1,blue,2,5,/home/docky/apps/exp/images/66B.jpeg,/home/docky/apps/exp/images/35Yi.jpeg,0,8,8,8,0,3,3,3,978.601592310999,None,978.601592310999,None,1,1.7880593979971309,978.601592310999,None,980.4229498570021,None,980.4229498570021,None,982.926455836001,None,982.926455836001,None,0.8663555269995413,984.7258481089993,None,984.7258481089993,None,5,1,0.6172503259986115,985.5825478590014,None,985.5825478590014,None,985.5825478590014,None,986.2162986219992,None,1,0.3174185780007974,986.2162986219992,None,84,986.5504699890007,None,131,B,1,2021_May_28_1450,GazeFlow,2020.1.2,59.88742170818099,
9,Block802.xls,B,2,5,42,42,None,congruent,Right,Right,Left,83,80,3,blue,2,5,/home/docky/apps/exp/images/83Bi.jpeg,/home/docky/apps/exp/images/80B.jpeg,0,8,8,8,0,4,4,4,987.5529228209998,None,987.5529228209998,None,1,2.0874920200003544,987.5529228209998,None,989.6742015550008,None,989.6742015550008,None,992.176996107999,None,992.176996107999,None,1.0338473150004575,993.9801444500008,None,993.9801444500008,None,5,1,0.6509793010009162,995.0006079060004,None,995.0006079060004,None,995.0006079060004,None,995.668194468999,None,1,0.3672804219968384,995.668194468999,None,86,996.0520327960003,None,131,B,1,2021_May_28_1450,GazeFlow,2020.1.2,59.88742170818099,
9,Block802.xls,B,2,6,104,8,None,incongruent,Left,Right,Left,38,35,3,blue,2,5,/home/docky/apps/exp/images/38B.jpeg,/home/docky/apps/exp/images/35Bi.jpeg,0,8,8,8,0,5,5,5,997.054203538999,None,997.054203538999,None,1,1.9383226339996327,997.054203538999,None,999.0242673659995,None,999.0242673659995,None,1001.5304747949995,None,1001.5304747949995,None,1.1166337540016684,1003.3326811379993,None,1003.3326811379993,None,5,1,0.6674149290010973,1004.4359817040022,None,1004.4359817040022,None,1004.4359817040022,None,1005.1197219819987,None,1,0.33428342000115663,1005.1197219819987,None,88,1005.470546757002,None,131,B,1,2021_May_28_1450,GazeFlow,2020.1.2,59.88742170818099,
9,Block802.xls,B,2,7,22,22,None,congruent,Left,Left,Right,80,83,3,blue,2,6,/home/docky/apps/exp/images/80Bi.jpeg,/home/docky/apps/exp/images/83B.jpeg,0,8,8,8,0,6,6,6,1006.4726372200021,None,1006.4726372200021,None,1,2.2382971189981617,1006.4726372200021,None,1008.7449427640022,None,1008.7449427640022,None,1011.2476011149993,None,1011.2476011149993,None,0.9166836670010525,1013.0506920770022,None,1013.0506920770022,None,6,1,0.6175822030018026,1013.9543123879994,None,1013.9543123879994,None,1013.9543123879994,None,1014.5882459999993,None,1,0.31781798800147953,1014.5882459999993,None,90,1014.9222074729987,None,131,B,1,2021_May_28_1450,GazeFlow,2020.1.2,59.88742170818099,
9,Block802.xls,B,2,8,54,54,None,congruent,Left,Left,Right,65,66,1,yellow,2,6,/home/docky/apps/exp/images/35Bi.jpeg,/home/docky/apps/exp/images/66Y.jpeg,0,8,8,8,0,7,7,7,1015.924540854001,None,1015.924540854001,None,1,2.221336620998045,1015.924540854001,None,1018.1795543480002,None,1018.1795543480002,None,1020.6829029260007,None,1020.6829029260007,None,1.0169257119996473,1022.4867044210005,None,1022.4867044210005,None,5,0,0.6342270759996609,1023.4892478539987,None,1023.4892478539987,None,1023.4892478539987,None,1024.140047830002,None,1,0.3343204330012668,1024.140047830002,None,88,1024.4909102370002,None,131,B,1,2021_May_28_1450,GazeFlow,2020.1.2,59.88742170818099,
9,Block802.xls,B,,,,,,,,,,,,,,,,,,0,8,8,8,,,,,,,,,,,,,,,,,,,,,,,,,,,,,,,,,,,,,,,,,,,,131,B,1,2021_May_28_1450,GazeFlow,2020.1.2,59.88742170818099,
10,Block813.xls,B,13,1,70,70,None,congruent,Left,Left,Right,79,82,3,yellow,2,6,/home/docky/apps/exp/images/79Yi.jpeg,/home/docky/apps/exp/images/80Y.jpeg,0,9,9,9,0,0,0,0,1042.8965506759996,None,1042.8965506759996,None,1,5.629908726001304,1042.8965506759996,None,1048.5582978540006,None,1048.5582978540006,None,1051.080626744002,None,1051.080626744002,None,1.1501536139985546,1052.8793794039993,None,1052.8793794039993,None,5,0,0.7344487519985705,1054.0156155240002,None,1054.0156155240002,None,1054.0156155240002,None,1054.766260968001,None,1,0.28403930100103025,1054.766260968001,None,86,1055.067085679002,None,131,B,1,2021_May_28_1450,GazeFlow,2020.1.2,59.88742170818099,
10,Block813.xls,B,13,2,60,60,None,congruent,Left,Left,Right,38,39,1,yellow,2,6,/home/docky/apps/exp/images/38Yi.jpeg,/home/docky/apps/exp/images/39Y.jpeg,0,9,9,9,0,1,1,1,1056.0687120719995,None,1056.0687120719995,None,1,2.439386039997771,1056.0687120719995,None,1058.541469060001,None,1058.541469060001,None,1061.046386422,None,1061.046386422,None,0.8497499860022799,1062.8482370769998,None,1062.8482370769998,None,6,1,0.6506511480001791,1063.6842727680014,None,1063.6842727680014,None,1063.6842727680014,None,1064.3516988330011,None,1,0.28385547200014116,1064.3516988330011,None,88,1064.6522480599997,None,131,B,1,2021_May_28_1450,GazeFlow,2020.1.2,59.88742170818099,
10,Block813.xls,B,13,3,81,81,None,congruent,Right,Right,Left,66,65,1,yellow,2,5,/home/docky/apps/exp/images/66Y.jpeg,/home/docky/apps/exp/images/35Bi.jpeg,0,9,9,9,0,2,2,2,1065.6546297589994,None,1065.6546297589994,None,1,1.9707778909978515,1065.6546297589994,None,1067.6616843150005,None,1067.6616843150005,None,1070.162151053999,None,1070.162151053999,None,0.9169006330012053,1071.967089357,None,1071.967089357,None,5,1,0.6676042639992374,1072.868912124999,None,1072.868912124999,None,1072.868912124999,None,1073.552795882002,None,1,0.30073259200071334,1073.552795882002,None,90,1073.8700983980016,None,131,B,1,2021_May_28_1450,GazeFlow,2020.1.2,59.88742170818099,
10,Block813.xls,B,13,4,110,14,None,incongruent,Right,Left,Right,65,66,1,yellow,2,6,/home/docky/apps/exp/images/35B.jpeg,/home/docky/apps/exp/images/66Yi.jpeg,0,9,9,9,0,3,3,3,1074.8718318790015,None,1074.8718318790015,None,1,2.0046847940029693,1074.8718318790015,None,1076.9084231779998,None,1076.9084231779998,None,1079.4128531390015,None,1079.4128531390015,None,1.7351870470010908,1081.2172768429991,None,1081.2172768429991,None,5,0,0.9183239270023478,1082.9383791500004,None,1082.9383791500004,None,1082.9383791500004,None,1083.873283421999,None,1,0.3336955660015519,1083.873283421999,None,88,1084.2236388300007,None,131,B,1,2021_May_28_1450,GazeFlow,2020.1.2,59.88742170818099,
10,Block813.xls,B,13,5,17,17,None,congruent,Left,Left,Right,73,76,3,blue,2,6,/home/docky/apps/exp/images/73Bi.jpeg,/home/docky/apps/exp/images/76B.jpeg,0,9,9,9,0,4,4,4,1085.226020127,None,1085.226020127,None,1,2.0882305929990252,1085.226020127,None,1087.3475563720021,None,1087.3475563720021,None,1089.850700089999,None,1089.850700089999,None,0.6997552619977796,1091.648555177002,None,1091.648555177002,None,6,1,0.6343611859992961,1092.339984741,None,1092.339984741,None,1092.339984741,None,1092.9904958789994,None,1,0.3173969819981721,1092.9904958789994,None,90,1093.3245631470018,None,131,B,1,2021_May_28_1450,GazeFlow,2020.1.2,59.88742170818099,
10,Block813.xls,B,13,6,111,15,None,incongruent,Right,Left,Right,62,65,3,yellow,2,6,/home/docky/apps/exp/images/38B.jpeg,/home/docky/apps/exp/images/35Bi.jpeg,0,9,9,9,0,5,5,5,1094.32642682,None,1094.32642682,None,1,1.7370455319978646,1094.32642682,None,1096.0807919200015,None,1096.0807919200015,None,1098.585457696001,None,1098.585457696001,None,0.983915282999078,1100.4043516849997,None,1100.4043516849997,None,6,1,0.7006165130005684,1101.374199244001,None,1101.374199244001,None,1101.374199244001,None,1102.0919356970007,None,1,0.2835241130014765,1102.0919356970007,None,92,1102.3924967540006,None,131,B,1,2021_May_28_1450,GazeFlow,2020.1.2,59.88742170818099,
10,Block813.xls,B,13,7,55,55,None,congruent,Left,Left,Right,65,66,1,yellow,2,6,/home/docky/apps/exp/images/35B.jpeg,/home/docky/apps/exp/images/66Yi.jpeg,0,9,9,9,0,6,6,6,1103.3941443340009,None,1103.3941443340009,None,1,1.8212357290030923,1103.3941443340009,None,1105.2486562049999,None,1105.2486562049999,None,1107.7534118389995,None,1107.7534118389995,None,1.7181541680001828,1109.5568518420005,None,1109.5568518420005,None,5,0,0.6007240059989272,1111.2600926359992,None,1111.2600926359992,None,1111.2600926359992,None,1111.8770100879992,None,1,0.23472841599868843,1111.8770100879992,None,90,1112.1281856599999,None,131,B,1,2021_May_28_1450,GazeFlow,2020.1.2,59.88742170818099,
10,Block813.xls,B,13,8,26,26,None,congruent,Right,Right,Left,19,16,3,blue,2,5,/home/docky/apps/exp/images/19B.jpeg,/home/docky/apps/exp/images/16Bi.jpeg,0,9,9,9,0,7,7,7,1113.1297708989987,None,1113.1297708989987,None,1,1.8044774230002076,1113.1297708989987,None,1114.9677721260014,None,1114.9677721260014,None,1117.4710182689996,None,1117.4710182689996,None,0.9501963280017662,1119.275907514002,None,1119.275907514002,None,5,1,0.650786064001295,1120.210726346002,None,1120.210726346002,None,1120.210726346002,None,1120.8781329410012,None,1,0.9357789389978279,1120.8781329410012,None,92,1121.830394110002,None,131,B,1,2021_May_28_1450,GazeFlow,2020.1.2,59.88742170818099,
10,Block813.xls,B,,,,,,,,,,,,,,,,,,0,9,9,9,,,,,,,,,,,,,,,,,,,,,,,,,,,,,,,,,,,,,,,,,,,,131,B,1,2021_May_28_1450,GazeFlow,2020.1.2,59.88742170818099,
11,Block806.xls,B,6,1,10,10,None,congruent,Left,Left,Right,65,66,1,blue,2,6,/home/docky/apps/exp/images/35Y.jpeg,/home/docky/apps/exp/images/66Bi.jpeg,0,10,10,10,0,0,0,0,1144.1582760630008,None,1144.1582760630008,None,1,2.85560022899881,1144.1582760630008,None,1147.041298895001,None,1147.041298895001,None,1149.5663717579991,None,1149.5663717579991,None,1.066174265997688,1151.3553271730016,None,1151.3553271730016,None,6,1,0.7339291460011736,1152.4066263640016,None,1152.4066263640016,None,1152.4066263640016,None,1153.157569097999,None,1,0.2836401450003905,1153.157569097999,None,94,1153.458081285,None,131,B,1,2021_May_28_1450,GazeFlow,2020.1.2,59.88742170818099,
11,Block806.xls,B,6,2,89,89,None,congruent,Right,Right,Left,76,69,7,yellow,2,5,/home/docky/apps/exp/images/76Yi.jpeg,/home/docky/apps/exp/images/69Y.jpeg,0,10,10,10,0,1,1,1,1154.4602927220003,None,1154.4602927220003,None,1,2.1546401279993006,1154.4602927220003,None,1156.6488240510007,None,1156.6488240510007,None,1159.1517051570008,None,1159.1517051570008,None,0.883191255001293,1160.9554506950008,None,1160.9554506950008,None,5,1,0.6342652849998558,1161.8248926470005,None,1161.8248926470005,None,1161.8248926470005,None,1162.475616904001,None,1,0.3842000030017516,1162.475616904001,None,96,1162.8763294269993,None,131,B,1,2021_May_28_1450,GazeFlow,2020.1.2,59.88742170818099,
11,Block806.xls,B,6,3,88,88,None,congruent,Right,Right,Left,76,69,7,yellow,2,5,/home/docky/apps/exp/images/76Y.jpeg,/home/docky/apps/exp/images/69Yi.jpeg,0,10,10,10,0,2,2,2,1163.878145532999,None,1163.878145532999,None,1,1.871503139998822,1163.878145532999,None,1165.7831732090017,None,1165.7831732090017,None,1168.2877554590013,None,1168.2877554590013,None,0.8664969230012503,1170.0892062880012,None,1170.0892062880012,None,5,1,0.667452243000298,1170.9428712869994,None,1170.9428712869994,None,1170.9428712869994,None,1171.6265891840012,None,1,0.28420564599946374,1171.6265891840012,None,98,1171.9278670870008,None,131,B,1,2021_May_28_1450,GazeFlow,2020.1.2,59.88742170818099,
11,Block806.xls,B,6,4,109,13,None,incongruent,Right,Left,Right,33,35,2,yellow,2,6,/home/docky/apps/exp/images/33Yi.jpeg,/home/docky/apps/exp/images/35Y.jpeg,0,10,10,10,0,3,3,3,1172.9297727699995,None,1172.9297727699995,None,1,5.1772407999997085,1172.9297727699995,None,1178.1388776860003,None,1178.1388776860003,None,1180.6433819539998,None,1180.6433819539998,None,1.1671048440002778,1182.4463392430007,None,1182.4463392430007,None,6,1,0.6674750089987356,1183.6006647489994,None,1183.6006647489994,None,1183.6006647489994,None,1184.2847626370021,None,1,0.2505281180019665,1184.2847626370021,None,100,1184.5518101170019,None,131,B,1,2021_May_28_1450,GazeFlow,2020.1.2,59.88742170818099,
11,Block806.xls,B,6,5,37,37,None,congruent,Right,Right,Left,79,73,6,blue,2,5,/home/docky/apps/exp/images/79Bi.jpeg,/home/docky/apps/exp/images/73B.jpeg,0,10,10,10,0,4,4,4,1185.553810450001,None,1185.553810450001,None,1,2.138165508000384,1185.553810450001,None,1187.7251993809987,None,1187.7251993809987,None,1190.2305616470003,None,1190.2305616470003,None,0.900161791996652,1192.032125875001,None,1192.032125875001,None,5,1,0.6509660930023529,1192.9185413090017,None,1192.9185413090017,None,1192.9185413090017,None,1193.5859792240008,None,1,0.3007409519996145,1193.5859792240008,None,102,1193.9032531480007,None,131,B,1,2021_May_28_1450,GazeFlow,2020.1.2,59.88742170818099,
11,Block806.xls,B,6,6,108,12,None,incongruent,Left,Right,Left,39,38,1,blue,2,5,/home/docky/apps/exp/images/39Bi.jpeg,/home/docky/apps/exp/images/38B.jpeg,0,10,10,10,0,5,5,5,1194.9055016640013,None,1194.9055016640013,None,1,1.9881789520004531,1194.9055016640013,None,1196.9269115040006,None,1196.9269115040006,None,1199.4358445319995,None,1199.4358445319995,None,1.6849794949994248,1201.235212391999,None,1201.235212391999,None,6,0,0.6171451959999104,1202.904664329999,None,1202.904664329999,None,1202.904664329999,None,1203.5387110049996,None,1,0.2845274659994175,1203.5387110049996,None,100,1203.8397566040003,None,131,B,1,2021_May_28_1450,GazeFlow,2020.1.2,59.88742170818099,
11,Block806.xls,B,6,7,52,52,None,congruent,Left,Left,Right,65,66,1,yellow,2,6,/home/docky/apps/exp/images/35B.jpeg,/home/docky/apps/exp/images/66Yi.jpeg,0,10,10,10,0,6,6,6,1204.8412646729994,None,1204.8412646729994,None,1,1.7226899160014,1204.8412646729994,None,1206.5983910590003,None,1206.5983910590003,None,1209.0991043920003,None,1209.0991043920003,None,1.6347371060001024,1210.9024811960007,None,1210.9024811960007,None,6,1,15.613709211000241,1212.523461536999,None,1212.523461536999,None,1212.523461536999,None,1228.153548631999,None,1,6.279441749000398,1228.153548631999,None,102,1234.4491551419997,None,131,B,1,2021_May_28_1450,GazeFlow,2020.1.2,59.88742170818099,
11,Block806.xls,B,6,8,75,75,None,congruent,Right,Right,Left,35,33,2,yellow,2,5,/home/docky/apps/exp/images/35Yi.jpeg,/home/docky/apps/exp/images/33Y.jpeg,0,10,10,10,0,7,7,7,1235.451168429001,None,1235.451168429001,None,1,3.1729027750006935,1235.451168429001,None,1238.6579917730014,None,1238.6579917730014,None,1241.164746655999,None,1241.164746655999,None,1.3844386900018435,1242.9650896589992,None,1242.9650896589992,None,5,1,0.7175101120010368,1244.3352634700022,None,1244.3352634700022,None,1244.3352634700022,None,1245.0692710209987,None,1,0.6680833160025941,1245.0692710209987,None,104,1245.7541222420004,None,131,B,1,2021_May_28_1450,GazeFlow,2020.1.2,59.88742170818099,
11,Block806.xls,B,,,,,,,,,,,,,,,,,,0,10,10,10,,,,,,,,,,,,,,,,,,,,,,,,,,,,,,,,,,,,,,,,,,,,131,B,1,2021_May_28_1450,GazeFlow,2020.1.2,59.88742170818099,
12,Block811.xls,B,11,1,86,86,None,congruent,Right,Right,Left,75,69,6,yellow,2,5,/home/docky/apps/exp/images/76Y.jpeg,/home/docky/apps/exp/images/69Yi.jpeg,0,11,11,11,0,0,0,0,1271.0215125520008,None,1271.0215125520008,None,1,5.031264285000361,1271.0215125520008,None,1276.0804072110004,None,1276.0804072110004,None,1278.602187258999,None,1278.602187258999,None,0.9493139000005613,1280.4040100890015,None,1280.4040100890015,None,5,1,0.7008494090005115,1281.340524203999,None,1281.340524203999,None,1281.340524203999,None,1282.057858258002,None,1,0.3841395509989525,1282.057858258002,None,106,1282.4586041170005,None,131,B,1,2021_May_28_1450,GazeFlow,2020.1.2,59.88742170818099,
12,Block811.xls,B,11,2,83,83,None,congruent,Right,Right,Left,75,69,6,yellow,2,5,/home/docky/apps/exp/images/76Yi.jpeg,/home/docky/apps/exp/images/69Y.jpeg,0,11,11,11,0,1,1,1,1283.4605632099992,None,1283.4605632099992,None,1,2.0046551960003853,1283.4605632099992,None,1285.499100306999,None,1285.499100306999,None,1288.0014169570022,None,1288.0014169570022,None,1.133696223001607,1289.8033161019994,None,1289.8033161019994,None,5,1,0.6509095769979467,1290.9257545610017,None,1290.9257545610017,None,1290.9257545610017,None,1291.5931797660014,None,1,0.43445501099995454,1291.5931797660014,None,108,1292.0437866479988,None,131,B,1,2021_May_28_1450,GazeFlow,2020.1.2,59.88742170818099,
12,Block811.xls,B,11,3,28,28,None,congruent,Right,Right,Left,38,35,3,blue,2,5,/home/docky/apps/exp/images/38Bi.jpeg,/home/docky/apps/exp/images/35B.jpeg,0,11,11,11,0,2,2,2,1293.0459696670005,None,1293.0459696670005,None,1,1.9046943810026278,1293.0459696670005,None,1294.983936626999,None,1294.983936626999,None,1297.487346334001,None,1297.487346334001,None,1.1669873600003484,1299.2924650759996,None,1299.2924650759996,None,5,1,0.6671939179977926,1300.444338207999,None,1300.444338207999,None,1300.444338207999,None,1301.1282998409988,None,1,0.4012379329979012,1301.1282998409988,None,110,1301.5462310200019,None,131,B,1,2021_May_28_1450,GazeFlow,2020.1.2,59.88742170818099,
12,Block811.xls,B,11,4,58,58,None,congruent,Left,Left,Right,62,65,3,yellow,2,6,/home/docky/apps/exp/images/38B.jpeg,/home/docky/apps/exp/images/35Bi.jpeg,0,11,11,11,0,3,3,3,1302.5476820309996,None,1302.5476820309996,None,1,1.9044051920027414,1302.5476820309996,None,1304.4858435770002,None,1304.4858435770002,None,1306.988994121999,None,1306.988994121999,None,0.9998792510014027,1308.7898226370016,None,1308.7898226370016,None,6,1,2.103404309000325,1309.7789553719995,None,1309.7789553719995,None,1309.7789553719995,None,1311.899154609,None,1,0.7178611660019669,1311.899154609,None,112,1312.6338757090016,None,131,B,1,2021_May_28_1450,GazeFlow,2020.1.2,59.88742170818099,
12,Block811.xls,B,11,5,32,32,None,congruent,Right,Right,Left,66,65,1,blue,2,5,/home/docky/apps/exp/images/66Bi.jpeg,/home/docky/apps/exp/images/35Y.jpeg,0,11,11,11,0,4,4,4,1313.6363704540017,None,1313.6363704540017,None,1,2.204439545999776,1313.6363704540017,None,1315.8746965669998,None,1315.8746965669998,None,1318.3791479540014,None,1318.3791479540014,None,1.2172016879994771,1320.181233629999,None,1320.181233629999,None,5,1,0.6843154560010589,1321.3846669420018,None,1321.3846669420018,None,1321.3846669420018,None,1322.0856220880014,None,1,0.5186699540026893,1322.0856220880014,None,114,1322.6202397660018,None,131,B,1,2021_May_28_1450,GazeFlow,2020.1.2,59.88742170818099,
12,Block811.xls,B,11,6,67,67,None,congruent,Left,Left,Right,72,77,5,yellow,2,6,/home/docky/apps/exp/images/72Y.jpeg,/home/docky/apps/exp/images/77Yi.jpeg,0,11,11,11,0,5,5,5,1323.6219799770006,None,1323.6219799770006,None,1,2.3051098309988447,1323.6219799770006,None,1325.966536300999,None,1325.966536300999,None,1328.4641604489989,None,1328.4641604489989,None,1.317654530001164,1330.267301584001,None,1330.267301584001,None,6,1,0.7009508819974144,1331.5713034250002,None,1331.5713034250002,None,1331.5713034250002,None,1332.2888397099996,None,1,0.5516092739999294,1332.2888397099996,None,116,1332.8570063799998,None,131,B,1,2021_May_28_1450,GazeFlow,2020.1.2,59.88742170818099,
12,Block811.xls,B,11,7,120,24,None,incongruent,Left,Right,Left,77,72,5,yellow,2,5,/home/docky/apps/exp/images/77Y.jpeg,/home/docky/apps/exp/images/72Yi.jpeg,0,11,11,11,0,6,6,6,1333.8584344779993,None,1333.8584344779993,None,1,2.7896934309974313,1333.8584344779993,None,1336.6818334060008,None,1336.6818334060008,None,1339.1849589689991,None,1339.1849589689991,None,1.183913343000313,1340.9874104560004,None,1340.9874104560004,None,5,1,0.7007594220012834,1342.1585617620003,None,1342.1585617620003,None,1342.1585617620003,None,1342.8759598180004,None,1,0.46812268500070786,1342.8759598180004,None,118,1343.3607832019989,None,131,B,1,2021_May_28_1450,GazeFlow,2020.1.2,59.88742170818099,
12,Block811.xls,B,11,8,57,57,None,congruent,Left,Left,Right,62,65,3,yellow,2,6,/home/docky/apps/exp/images/38Bi.jpeg,/home/docky/apps/exp/images/35B.jpeg,0,11,11,11,0,7,7,7,1344.3621027090012,None,1344.3621027090012,None,1,2.0885688069975004,1344.3621027090012,None,1346.4838483050007,None,1346.4838483050007,None,1348.9876187699992,None,1348.9876187699992,None,1.0504876999984845,1350.7880637160015,None,1350.7880637160015,None,6,1,0.6675947550029377,1351.827282893999,None,1351.827282893999,None,1351.827282893999,None,1352.5113575960022,None,1,0.400741763998667,1352.5113575960022,None,120,1352.9286533740014,None,131,B,1,2021_May_28_1450,GazeFlow,2020.1.2,59.88742170818099,
12,Block811.xls,B,,,,,,,,,,,,,,,,,,0,11,11,11,,,,,,,,,,,,,,,,,,,,,,,,,,,,,,,,,,,,,,,,,,,,131,B,1,2021_May_28_1450,GazeFlow,2020.1.2,59.88742170818099,
13,Block808.xls,B,8,1,118,22,None,incongruent,Left,Right,Left,75,69,6,yellow,2,5,/home/docky/apps/exp/images/76Y.jpeg,/home/docky/apps/exp/images/69Yi.jpeg,0,12,12,12,0,0,0,0,1374.038287727999,None,1374.038287727999,None,1,4.098033227000997,1374.038287727999,None,1378.167276698001,None,1378.167276698001,None,1380.6823272910005,None,1380.6823272910005,None,1.0495722310006386,1382.485826303,None,1382.485826303,None,5,1,0.7341526790005446,1383.5224333660008,None,1383.5224333660008,None,1383.5224333660008,None,1384.2732099589994,None,1,0.41816828200171585,1384.2732099589994,None,122,1384.707849934999,None,131,B,1,2021_May_28_1450,GazeFlow,2020.1.2,59.88742170818099,
13,Block808.xls,B,8,2,7,7,None,congruent,Left,Left,Right,65,66,1,blue,2,6,/home/docky/apps/exp/images/35Yi.jpeg,/home/docky/apps/exp/images/66B.jpeg,0,12,12,12,0,1,1,1,1385.709439618,None,1385.709439618,None,1,2.071266111001023,1385.709439618,None,1387.814177149001,None,1387.814177149001,None,1390.3177408390002,None,1390.3177408390002,None,1.0503351270017447,1392.1224965309993,None,1392.1224965309993,None,5,0,0.767654583996773,1393.1576024509995,None,1393.1576024509995,None,1393.1576024509995,None,1393.9418631810004,None,1,0.40083200599838165,1393.9418631810004,None,120,1394.3595666239999,None,131,B,1,2021_May_28_1450,GazeFlow,2020.1.2,59.88742170818099,
13,Block808.xls,B,8,3,112,16,None,incongruent,Right,Left,Right,69,76,7,yellow,2,6,/home/docky/apps/exp/images/69Yi.jpeg,/home/docky/apps/exp/images/76Y.jpeg,0,12,12,12,0,2,2,2,1395.3612201210017,None,1395.3612201210017,None,1,1.92130776400154,1395.3612201210017,None,1397.3162520459991,None,1397.3162520459991,None,1399.8054535250012,None,1399.8054535250012,None,1.4514069620017835,1401.616978940001,None,1401.616978940001,None,6,1,0.7509115089997067,1403.0602199999994,None,1403.0602199999994,None,1403.0602199999994,None,1403.8279118339997,None,1,0.36838765799984685,1403.8279118339997,None,122,1404.2122441809988,None,131,B,1,2021_May_28_1450,GazeFlow,2020.1.2,59.88742170818099,
13,Block808.xls,B,8,4,97,1,None,incongruent,Right,Left,Right,16,19,3,blue,2,6,/home/docky/apps/exp/images/16Bi.jpeg,/home/docky/apps/exp/images/19B.jpeg,0,12,12,12,0,3,3,3,1405.2137992300013,None,1405.2137992300013,None,1,2.038083095001639,1405.2137992300013,None,1407.2851168929992,None,1407.2851168929992,None,1409.7905374949987,None,1409.7905374949987,None,1.2339362310012802,1411.5867616600008,None,1411.5867616600008,None,6,1,0.7676246769988211,1412.8124769710012,None,1412.8124769710012,None,1412.8124769710012,None,1413.5968031070006,None,1,0.4180178930000693,1413.5968031070006,None,124,1414.0315766890017,None,131,B,1,2021_May_28_1450,GazeFlow,2020.1.2,59.88742170818099,
13,Block808.xls,B,8,5,24,24,None,congruent,Left,Left,Right,80,83,3,blue,2,6,/home/docky/apps/exp/images/80Bi.jpeg,/home/docky/apps/exp/images/83B.jpeg,0,12,12,12,0,4,4,4,1415.0328791770007,None,1415.0328791770007,None,1,2.272077801000705,1415.0328791770007,None,1417.3380990510013,None,1417.3380990510013,None,1419.8410223829997,None,1419.8410223829997,None,0.9667095479999261,1421.638720592,None,1421.638720592,None,6,1,0.7844395579995762,1422.5978758540004,None,1422.5978758540004,None,1422.5978758540004,None,1423.3991625609997,None,1,0.3507559450008557,1423.3991625609997,None,126,1423.7665454880007,None,131,B,1,2021_May_28_1450,GazeFlow,2020.1.2,59.88742170818099,
13,Block808.xls,B,8,6,13,13,None,congruent,Left,Left,Right,38,39,1,blue,2,6,/home/docky/apps/exp/images/38Bi.jpeg,/home/docky/apps/exp/images/39B.jpeg,0,12,12,12,0,5,5,5,1424.7686137419987,None,1424.7686137419987,None,1,2.706101715000841,1424.7686137419987,None,1427.508044025999,None,1427.508044025999,None,1430.0109466329995,None,1430.0109466329995,None,1.2340257869982452,1431.8124515810014,None,1431.8124515810014,None,6,1,0.6840647889985121,1433.035065942,None,1433.035065942,None,1433.035065942,None,1433.7359795880002,None,1,0.3840337809997436,1433.7359795880002,None,128,1434.1366564400014,None,131,B,1,2021_May_28_1450,GazeFlow,2020.1.2,59.88742170818099,
13,Block808.xls,B,8,7,8,8,None,congruent,Left,Left,Right,65,66,1,blue,2,6,/home/docky/apps/exp/images/35Y.jpeg,/home/docky/apps/exp/images/66Bi.jpeg,0,12,12,12,0,6,6,6,1435.1386304670013,None,1435.1386304670013,None,1,2.205023369002447,1435.1386304670013,None,1437.3775278950015,None,1437.3775278950015,None,1439.8801063880019,None,1439.8801063880019,None,1.1673482229998626,1441.6784806280011,None,1441.6784806280011,None,6,1,0.7008847209981468,1442.8375650900016,None,1442.8375650900016,None,1442.8375650900016,None,1443.5550669149998,None,1,0.35070726499907323,1443.5550669149998,None,130,1443.9222294210012,None,131,B,1,2021_May_28_1450,GazeFlow,2020.1.2,59.88742170818099,
13,Block808.xls,B,8,8,31,31,None,congruent,Right,Right,Left,66,65,1,blue,2,5,/home/docky/apps/exp/images/66B.jpeg,/home/docky/apps/exp/images/35Yi.jpeg,0,12,12,12,0,7,7,7,1444.9243519090014,None,1444.9243519090014,None,1,2.1385261609975714,1444.9243519090014,None,1447.0961807739986,None,1447.0961807739986,None,1449.6036144009995,None,1449.6036144009995,None,1.1339496270011296,1451.4026632099994,None,1451.4026632099994,None,5,1,0.7008493300018017,1452.5229464639997,None,1452.5229464639997,None,1452.5229464639997,None,1453.240534550001,None,1,0.35079429100005655,1453.240534550001,None,132,1453.6078421599996,None,131,B,1,2021_May_28_1450,GazeFlow,2020.1.2,59.88742170818099,
13,Block808.xls,B,,,,,,,,,,,,,,,,,,0,12,12,12,,,,,,,,,,,,,,,,,,,,,,,,,,,,,,,,,,,,,,,,,,,,131,B,1,2021_May_28_1450,GazeFlow,2020.1.2,59.88742170818099,
14,Block815.xls,B,15,1,65,65,None,congruent,Left,Left,Right,69,76,7,yellow,2,6,/home/docky/apps/exp/images/69Yi.jpeg,/home/docky/apps/exp/images/76Y.jpeg,0,13,13,13,0,0,0,0,1471.3941928700006,None,1471.3941928700006,None,1,6.253076273998886,1471.3941928700006,None,1477.6805892760021,None,1477.6805892760021,None,1480.1945512909988,None,1480.1945512909988,None,1.0663170570005605,1481.9959462280021,None,1481.9959462280021,None,6,1,0.7173353399994085,1483.0490000259997,None,1483.0490000259997,None,1483.0490000259997,None,1483.7833259290019,None,1,0.33371633700153325,1483.7833259290019,None,134,1484.1336871169988,None,131,B,1,2021_May_28_1450,GazeFlow,2020.1.2,59.88742170818099,
14,Block815.xls,B,15,2,102,6,None,incongruent,Right,Left,Right,80,83,3,blue,2,6,/home/docky/apps/exp/images/80B.jpeg,/home/docky/apps/exp/images/83Bi.jpeg,0,13,13,13,0,1,1,1,1485.1358362889987,None,1485.1358362889987,None,1,2.0376626459983527,1485.1358362889987,None,1487.2073747100003,None,1487.2073747100003,None,1489.7106001069988,None,1489.7106001069988,None,1.0826817410015792,1491.5159994980022,None,1491.5159994980022,None,6,1,0.7174558750011784,1492.5841014809994,None,1492.5841014809994,None,1492.5841014809994,None,1493.3181671300008,None,1,0.30067464300009306,1493.3181671300008,None,136,1493.6354993019995,None,131,B,1,2021_May_28_1450,GazeFlow,2020.1.2,59.88742170818099,
14,Block815.xls,B,15,3,33,33,None,congruent,Right,Right,Left,66,65,1,blue,2,5,/home/docky/apps/exp/images/66Bi.jpeg,/home/docky/apps/exp/images/35Y.jpeg,0,13,13,13,0,2,2,2,1494.6375187529993,None,1494.6375187529993,None,1,1.6709083759997156,1494.6375187529993,None,1496.3419204189995,None,1496.3419204189995,None,1498.8465462169988,None,1498.8465462169988,None,1.4333640449985978,1500.644528793,None,1500.644528793,None,5,1,1.0522789559981902,1502.0691978739997,None,1502.0691978739997,None,1502.0691978739997,None,1503.137729779999,None,1,0.31785474799835356,1503.137729779999,None,138,1503.4717704030008,None,131,B,1,2021_May_28_1450,GazeFlow,2020.1.2,59.88742170818099,
14,Block815.xls,B,15,4,72,72,None,congruent,Left,Left,Right,79,82,3,yellow,2,6,/home/docky/apps/exp/images/79Yi.jpeg,/home/docky/apps/exp/images/80Y.jpeg,0,13,13,13,0,3,3,3,1504.4733793080013,None,1504.4733793080013,None,1,2.288774294000177,1504.4733793080013,None,1506.7937937850002,None,1506.7937937850002,None,1509.298514432001,None,1509.298514432001,None,1.518231770998682,1511.1008199669996,None,1511.1008199669996,None,5,0,0.7174087509993115,1512.606343593001,None,1512.606343593001,None,1512.606343593001,None,1513.3404384759997,None,1,0.33504912400167086,1513.3404384759997,None,136,1513.691627406999,None,131,B,1,2021_May_28_1450,GazeFlow,2020.1.2,59.88742170818099,
14,Block815.xls,B,15,5,100,4,None,incongruent,Right,Left,Right,73,76,3,blue,2,6,/home/docky/apps/exp/images/73B.jpeg,/home/docky/apps/exp/images/76Bi.jpeg,0,13,13,13,0,4,4,4,1514.6928100570003,None,1514.6928100570003,None,1,1.787847466999665,1514.6928100570003,None,1516.512524105001,None,1516.512524105001,None,1519.0166900430013,None,1519.0166900430013,None,1.6012155239986896,1520.8213335860019,None,1520.8213335860019,None,5,0,0.8520202130021062,1522.4087351599992,None,1522.4087351599992,None,1522.4087351599992,None,1523.276852048999,None,1,0.3175001950003207,1523.276852048999,None,134,1523.6107560220007,None,131,B,1,2021_May_28_1450,GazeFlow,2020.1.2,59.88742170818099,
14,Block815.xls,B,15,6,45,45,None,congruent,Right,Right,Left,39,38,1,blue,2,5,/home/docky/apps/exp/images/39B.jpeg,/home/docky/apps/exp/images/38Bi.jpeg,0,13,13,13,0,5,5,5,1524.612455123999,None,1524.612455123999,None,1,1.8205995050011552,1524.612455123999,None,1526.4672347990017,None,1526.4672347990017,None,1528.9702992169987,None,1528.9702992169987,None,0.9836834730012924,1530.768074705,None,1530.768074705,None,5,1,0.700826477001101,1531.7435641189986,None,1531.7435641189986,None,1531.7435641189986,None,1532.4610058120015,None,1,0.3171612289988843,1532.4610058120015,None,136,1532.7949568170006,None,131,B,1,2021_May_28_1450,GazeFlow,2020.1.2,59.88742170818099,
14,Block815.xls,B,15,7,98,2,None,incongruent,Right,Left,Right,35,38,3,blue,2,6,/home/docky/apps/exp/images/35Bi.jpeg,/home/docky/apps/exp/images/38B.jpeg,0,13,13,13,0,6,6,6,1533.7968908370021,None,1533.7968908370021,None,1,1.8546927839997807,1533.7968908370021,None,1535.6849788520012,None,1535.6849788520012,None,1538.1899623120007,None,1538.1899623120007,None,1.1004311779979616,1539.9915050330019,None,1539.9915050330019,None,6,1,0.6677058619970921,1541.078269521,None,1541.078269521,None,1541.078269521,None,1541.762222182002,None,1,0.3007964930002345,1541.762222182002,None,138,1542.079654964,None,131,B,1,2021_May_28_1450,GazeFlow,2020.1.2,59.88742170818099,
14,Block815.xls,B,15,8,59,59,None,congruent,Left,Left,Right,38,39,1,yellow,2,6,/home/docky/apps/exp/images/38Yi.jpeg,/home/docky/apps/exp/images/39Y.jpeg,0,13,13,13,0,7,7,7,1543.081684151999,None,1543.081684151999,None,1,1.987770255000214,1543.081684151999,None,1545.1015937049997,None,1545.1015937049997,None,1547.6059457039992,None,1547.6059457039992,None,1.00012750300084,1549.4099134829994,None,1549.4099134829994,None,6,1,0.6173216329989373,1550.3963605019999,None,1550.3963605019999,None,1550.3963605019999,None,1551.0302816360017,None,1,0.31759258700185455,1551.0302816360017,None,140,1551.364390597002,None,131,B,1,2021_May_28_1450,GazeFlow,2020.1.2,59.88742170818099,
14,Block815.xls,B,,,,,,,,,,,,,,,,,,0,13,13,13,,,,,,,,,,,,,,,,,,,,,,,,,,,,,,,,,,,,,,,,,,,,131,B,1,2021_May_28_1450,GazeFlow,2020.1.2,59.88742170818099,
15,Block807.xls,B,7,1,71,71,None,congruent,Left,Left,Right,79,82,3,yellow,2,6,/home/docky/apps/exp/images/79Y.jpeg,/home/docky/apps/exp/images/80Yi.jpeg,0,14,14,14,0,0,0,0,1572.0733474920016,None,1572.0733474920016,None,1,3.91338549899956,1572.0733474920016,None,1576.0190943720008,None,1576.0190943720008,None,1578.5348162980008,None,1578.5348162980008,None,1.1666364149969013,1580.3366213869995,None,1580.3366213869995,None,6,1,0.6840051389990549,1581.490116371002,None,1581.490116371002,None,1581.490116371002,None,1582.1908036329987,None,1,0.28386455299914815,1582.1908036329987,None,142,1582.491410568,None,131,B,1,2021_May_28_1450,GazeFlow,2020.1.2,59.88742170818099,
15,Block807.xls,B,7,2,44,44,None,congruent,Right,Right,Left,83,80,3,blue,2,5,/home/docky/apps/exp/images/83Bi.jpeg,/home/docky/apps/exp/images/80B.jpeg,0,14,14,14,0,1,1,1,1583.4933633500004,None,1583.4933633500004,None,1,2.2383874129991455,1583.4933633500004,None,1585.7656843059995,None,1585.7656843059995,None,1588.2688510539992,None,1588.2688510539992,None,1.083592447997944,1590.0717753380013,None,1590.0717753380013,None,5,1,0.6675146070010669,1591.1422502470014,None,1591.1422502470014,None,1591.1422502470014,None,1591.8261065740007,None,1,0.3676452039981086,1591.8261065740007,None,144,1592.2103702200002,None,131,B,1,2021_May_28_1450,GazeFlow,2020.1.2,59.88742170818099,
15,Block807.xls,B,7,3,48,48,None,congruent,Right,Right,Left,39,38,1,blue,2,5,/home/docky/apps/exp/images/39Bi.jpeg,/home/docky/apps/exp/images/38B.jpeg,0,14,14,14,0,2,2,2,1593.2126093410006,None,1593.2126093410006,None,1,2.104481955000665,1593.2126093410006,None,1595.3508100340005,None,1595.3508100340005,None,1597.8538709610002,None,1597.8538709610002,None,1.4176633759998367,1599.6520002549987,None,1599.6520002549987,None,5,1,0.617653060999146,1601.0612426820007,None,1601.0612426820007,None,1601.0612426820007,None,1601.6956065550003,None,1,0.3176999099996465,1601.6956065550003,None,146,1602.0298220100012,None,131,B,1,2021_May_28_1450,GazeFlow,2020.1.2,59.88742170818099,
15,Block807.xls,B,7,4,113,17,None,incongruent,Right,Left,Right,72,77,5,yellow,2,6,/home/docky/apps/exp/images/72Yi.jpeg,/home/docky/apps/exp/images/77Y.jpeg,0,14,14,14,0,3,3,3,1603.0314521639993,None,1603.0314521639993,None,1,2.0211783000013384,1603.0314521639993,None,1605.086516407002,None,1605.086516407002,None,1607.5911264150018,None,1607.5911264150018,None,1.2173651779994543,1609.3946414220009,None,1609.3946414220009,None,6,1,0.6841835629966226,1610.5964174440014,None,1610.5964174440014,None,1610.5964174440014,None,1611.2974154080002,None,1,0.2672407089994522,1611.2974154080002,None,148,1611.5811792929999,None,131,B,1,2021_May_28_1450,GazeFlow,2020.1.2,59.88742170818099,
15,Block807.xls,B,7,5,69,69,None,congruent,Left,Left,Right,72,77,5,yellow,2,6,/home/docky/apps/exp/images/72Y.jpeg,/home/docky/apps/exp/images/77Yi.jpeg,0,14,14,14,0,4,4,4,1612.583320378002,None,1612.583320378002,None,1,1.954442554997513,1612.583320378002,None,1614.5717761160013,None,1614.5717761160013,None,1617.0743129539987,None,1617.0743129539987,None,1.2342534609997529,1618.8775619680018,None,1618.8775619680018,None,6,1,0.6672532400007185,1620.098622518999,None,1620.098622518999,None,1620.098622518999,None,1620.7823725240014,None,1,0.3675491049980337,1620.7823725240014,None,150,1621.1668527360016,None,131,B,1,2021_May_28_1450,GazeFlow,2020.1.2,59.88742170818099,
15,Block807.xls,B,7,6,39,39,None,congruent,Right,Right,Left,79,76,3,blue,2,5,/home/docky/apps/exp/images/79B.jpeg,/home/docky/apps/exp/images/76Bi.jpeg,0,14,14,14,0,5,5,5,1622.1682895189988,None,1622.1682895189988,None,1,2.0215599160001148,1622.1682895189988,None,1624.2234302430006,None,1624.2234302430006,None,1626.7269485350007,None,1626.7269485350007,None,0.9837940380020882,1628.5304634070017,None,1628.5304634070017,None,5,1,0.6678100760000234,1629.5000071450013,None,1629.5000071450013,None,1629.5000071450013,None,1630.1838934799998,None,1,0.3510445220017573,1630.1838934799998,None,152,1630.5516371900012,None,131,B,1,2021_May_28_1450,GazeFlow,2020.1.2,59.88742170818099,
15,Block807.xls,B,7,7,50,50,None,congruent,Left,Left,Right,33,35,2,yellow,2,6,/home/docky/apps/exp/images/33Y.jpeg,/home/docky/apps/exp/images/35Yi.jpeg,0,14,14,14,0,6,6,6,1631.5533248989996,None,1631.5533248989996,None,1,1.871221291999973,1631.5533248989996,None,1633.4630317010015,None,1633.4630317010015,None,1635.9630317340016,None,1635.9630317340016,None,1.083471518002625,1637.759224231002,None,1637.759224231002,None,6,1,0.6342195420002099,1638.8347521409996,None,1638.8347521409996,None,1638.8347521409996,None,1639.4856180230017,None,1,0.3004651420014852,1639.4856180230017,None,154,1639.8030739509995,None,131,B,1,2021_May_28_1450,GazeFlow,2020.1.2,59.88742170818099,
15,Block807.xls,B,7,8,19,19,None,congruent,Left,Left,Right,76,79,3,blue,2,6,/home/docky/apps/exp/images/76B.jpeg,/home/docky/apps/exp/images/79Bi.jpeg,0,14,14,14,0,7,7,7,1640.8047140320014,None,1640.8047140320014,None,1,1.9211151279996557,1640.8047140320014,None,1642.7589393540002,None,1642.7589393540002,None,1645.2630915730006,None,1645.2630915730006,None,1.0673039610010164,1647.0662905259996,None,1647.0662905259996,None,6,1,0.700689285997214,1648.1196577849987,None,1648.1196577849987,None,1648.1196577849987,None,1648.8368976089987,None,1,0.3007679679976718,1648.8368976089987,None,156,1649.1541866270018,None,131,B,1,2021_May_28_1450,GazeFlow,2020.1.2,59.88742170818099,
15,Block807.xls,B,,,,,,,,,,,,,,,,,,0,14,14,14,,,,,,,,,,,,,,,,,,,,,,,,,,,,,,,,,,,,,,,,,,,,131,B,1,2021_May_28_1450,GazeFlow,2020.1.2,59.88742170818099,
