Nblock,condsFile,grouping,Block,TrialBlock,N,trialN,trialCond,gazeCon,gazedirR,corrBinR,corrBinP,valLBY,valRBY,diff,colorCube,feedbacktext,corrAns,imageL,imageR,SelBlocks.thisRepN,SelBlocks.thisTrialN,SelBlocks.thisN,SelBlocks.thisIndex,Trials.thisRepN,Trials.thisTrialN,Trials.thisN,Trials.thisIndex,waitCube.started,waitCube.stopped,text_3.started,text_3.stopped,StartKeyPress.keys,StartKeyPress.rt,StartKeyPress.started,StartKeyPress.stopped,StimL.started,StimL.stopped,StimR.started,StimR.stopped,imageStim2L.started,imageStim2L.stopped,imageStim2R.started,imageStim2R.stopped,RTkeyRelease,imageStim3L.started,imageStim3L.stopped,imageStim3R.started,imageStim3R.stopped,dropResp.keys,dropResp.corr,dropResp.rt,dropResp.started,dropResp.stopped,imageStim5L.started,imageStim5L.stopped,imageStim5R.started,imageStim5R.stopped,text_2.started,text_2.stopped,ReturnSpace.keys,ReturnSpace.rt,ReturnSpace.started,ReturnSpace.stopped,totalpoints,textFeedback.started,textFeedback.stopped,participant,group,session,date,expName,psychopyVersion,frameRate,
1,Block502.xls,A,2,1,93,33,22,incongruent,Left,Right,Left,38,35,3,blue,2,5,/home/docky/apps/exp/images/38B.jpeg,/home/docky/apps/exp/images/35Bi.jpeg,0,0,0,0,0,0,0,0,130.85985003000314,None,130.85985003000314,None,1,8.102922649999527,130.85985003000314,None,138.9985986640022,None,138.9985986640022,None,141.51440679700318,None,141.51440679700318,None,1.8677010179999343,143.31799116600087,None,143.31799116600087,None,5,1,1.0189785590009706,145.1686507129998,None,145.1686507129998,None,145.1686507129998,None,146.20364442900245,None,1,1.7537471360010386,146.20364442900245,None,2,147.97366812300243,None,132,A,1,2021_May_28_1624,GazeFlow,2020.1.2,59.96458347761054,
1,Block502.xls,A,2,2,42,42,12,congruent,Right,Right,Left,83,80,3,blue,2,5,/home/docky/apps/exp/images/83Bi.jpeg,/home/docky/apps/exp/images/80B.jpeg,0,0,0,0,0,1,1,1,148.97601286900317,None,148.97601286900317,None,1,7.230907455999841,148.97601286900317,None,156.24034224900242,None,156.24034224900242,None,158.7440317690016,None,158.7440317690016,None,1.9017949099979887,160.54580138300298,None,160.54580138300298,None,5,1,1.068281289000879,162.43560057300056,None,162.43560057300056,None,162.43560057300056,None,163.52039230000082,None,1,1.3868525129983027,163.52039230000082,None,4,164.92359946000215,None,132,A,1,2021_May_28_1624,GazeFlow,2020.1.2,59.96458347761054,
1,Block502.xls,A,2,3,9,9,11,congruent,Left,Left,Right,38,39,1,blue,2,6,/home/docky/apps/exp/images/38Bi.jpeg,/home/docky/apps/exp/images/39B.jpeg,0,0,0,0,0,2,2,2,165.92541857600008,None,165.92541857600008,None,1,7.515425061999849,165.92541857600008,None,173.4748699390002,None,173.4748699390002,None,175.97919106100017,None,175.97919106100017,None,1.5838871589985501,177.78264454500095,None,177.78264454500095,None,5,0,1.0684086149994982,179.35178170899962,None,179.35178170899962,None,179.35178170899962,None,180.43652776800081,None,1,1.0857710230011435,180.43652776800081,None,2,181.5388018670019,None,132,A,1,2021_May_28_1624,GazeFlow,2020.1.2,59.96458347761054,
1,Block502.xls,A,2,4,23,23,11,congruent,Left,Left,Right,38,39,1,yellow,2,6,/home/docky/apps/exp/images/38Yi.jpeg,/home/docky/apps/exp/images/39Y.jpeg,0,0,0,0,0,3,3,3,182.5411733860019,None,182.5411733860019,None,1,7.665093362000334,182.5411733860019,None,190.23988982500305,None,190.23988982500305,None,192.74338690399964,None,192.74338690399964,None,1.0334864979995473,194.54656261000127,None,194.54656261000127,None,6,1,1.3021671059977962,195.5667727430009,None,195.5667727430009,None,195.5667727430009,None,196.8856885410023,None,1,1.1517463529999077,196.8856885410023,None,4,198.05429032699976,None,132,A,1,2021_May_28_1624,GazeFlow,2020.1.2,59.96458347761054,
1,Block502.xls,A,2,5,57,57,12,congruent,Right,Right,Left,77,72,5,yellow,2,5,/home/docky/apps/exp/images/77Y.jpeg,/home/docky/apps/exp/images/72Yi.jpeg,0,0,0,0,0,4,4,4,199.05650376300036,None,199.05650376300036,None,1,7.331644990998029,199.05650376300036,None,206.4217839940029,None,206.4217839940029,None,208.92483646600158,None,208.92483646600158,None,2.202484015000664,210.72733823500312,None,210.72733823500312,None,5,1,1.1015128809995076,212.9167917570012,None,212.9167917570012,None,212.9167917570012,None,214.03513952300273,None,1,1.102370290998806,214.03513952300273,None,6,215.15394825100157,None,132,A,1,2021_May_28_1624,GazeFlow,2020.1.2,59.96458347761054,
1,Block502.xls,A,2,6,118,58,22,incongruent,Left,Right,Left,80,79,1,yellow,2,5,/home/docky/apps/exp/images/80Yi.jpeg,/home/docky/apps/exp/images/79Y.jpeg,0,0,0,0,0,5,5,5,216.156572013002,None,216.156572013002,None,1,7.331582380997133,216.156572013002,None,223.5220211170017,None,223.5220211170017,None,226.02623353500167,None,226.02623353500167,None,1.3007163449983636,227.82841331900272,None,227.82841331900272,None,5,1,1.1187471359990013,229.1152169800007,None,229.1152169800007,None,229.1152169800007,None,230.25048686000082,None,1,0.9012435539989383,230.25048686000082,None,8,231.16847347099974,None,132,A,1,2021_May_28_1624,GazeFlow,2020.1.2,59.96458347761054,
1,Block502.xls,A,2,7,101,41,22,incongruent,Left,Right,Left,83,80,3,blue,2,5,/home/docky/apps/exp/images/83Bi.jpeg,/home/docky/apps/exp/images/80B.jpeg,0,0,0,0,0,6,6,6,232.17050918099994,None,232.17050918099994,None,1,6.881118087003415,232.17050918099994,None,239.08502048800074,None,239.08502048800074,None,241.5876350920007,None,241.5876350920007,None,1.150422005001019,243.3914391640028,None,243.3914391640028,None,5,1,1.0350048180007434,244.5284209110032,None,244.5284209110032,None,244.5284209110032,None,245.57996497600107,None,1,1.0019691570014402,245.57996497600107,None,10,246.5982481610008,None,132,A,1,2021_May_28_1624,GazeFlow,2020.1.2,59.96458347761054,
1,Block502.xls,A,2,8,69,9,21,incongruent,Right,Left,Right,73,76,3,blue,2,6,/home/docky/apps/exp/images/73B.jpeg,/home/docky/apps/exp/images/76Bi.jpeg,0,0,0,0,0,7,7,7,247.6004418290031,None,247.6004418290031,None,1,7.0811448260028556,247.6004418290031,None,254.71673330900012,None,254.71673330900012,None,257.21807907699986,None,257.21807907699986,None,1.1003559460004908,259.0235181570024,None,259.0235181570024,None,6,1,1.3192005960008828,260.10875061400293,None,260.10875061400293,None,260.10875061400293,None,261.4445735260015,None,1,0.8179809230023238,261.4445735260015,None,12,262.27888389000145,None,132,A,1,2021_May_28_1624,GazeFlow,2020.1.2,59.96458347761054,
1,Block502.xls,A,,,,,,,,,,,,,,,,,,0,0,0,0,,,,,,,,,,,,,,,,,,,,,,,,,,,,,,,,,,,,,,,,,,,,132,A,1,2021_May_28_1624,GazeFlow,2020.1.2,59.96458347761054,
2,Block506.xls,A,6,1,120,60,22,incongruent,Left,Right,Left,80,79,1,yellow,2,5,/home/docky/apps/exp/images/80Yi.jpeg,/home/docky/apps/exp/images/79Y.jpeg,0,1,1,1,0,0,0,0,282.42092943300304,None,282.42092943300304,None,1,6.368618860000424,282.42092943300304,None,288.81665612100187,None,288.81665612100187,None,291.34102333600094,None,291.34102333600094,None,1.149834406998707,293.1328572450002,None,293.1328572450002,None,5,1,1.0016528209998796,294.2751107900003,None,294.2751107900003,None,294.2751107900003,None,295.2930452090004,None,1,0.7515999040006136,295.2930452090004,None,14,296.0612014210019,None,132,A,1,2021_May_28_1624,GazeFlow,2020.1.2,59.96458347761054,
2,Block506.xls,A,6,2,51,51,12,congruent,Right,Right,Left,66,65,1,yellow,2,5,/home/docky/apps/exp/images/66Y.jpeg,/home/docky/apps/exp/images/35Bi.jpeg,0,1,1,1,0,1,1,1,297.06323800000246,None,297.06323800000246,None,1,5.862533816998621,297.06323800000246,None,302.9588247580032,None,302.9588247580032,None,305.4620414830024,None,305.4620414830024,None,1.4344455690006725,307.26301260200125,None,307.26301260200125,None,5,1,0.9855518429976655,308.686412623003,None,308.686412623003,None,308.686412623003,None,309.68806985800256,None,1,1.7196272390028753,309.68806985800256,None,16,311.4243439890015,None,132,A,1,2021_May_28_1624,GazeFlow,2020.1.2,59.96458347761054,
2,Block506.xls,A,6,3,119,59,22,incongruent,Left,Right,Left,80,79,1,yellow,2,5,/home/docky/apps/exp/images/80Y.jpeg,/home/docky/apps/exp/images/79Yi.jpeg,0,1,1,1,0,2,2,2,312.4268037640031,None,312.4268037640031,None,1,6.546425794000243,312.4268037640031,None,319.00686928100185,None,319.00686928100185,None,321.5102014300028,None,321.5102014300028,None,1.4177716649974172,323.3168758190004,None,323.3168758190004,None,5,1,1.0521540059999097,324.7174222820031,None,324.7174222820031,None,324.7174222820031,None,325.7860274920022,None,1,0.8679861089985934,325.7860274920022,None,18,326.6707379610016,None,132,A,1,2021_May_28_1624,GazeFlow,2020.1.2,59.96458347761054,
2,Block506.xls,A,6,4,28,28,11,congruent,Left,Left,Right,72,77,5,yellow,2,6,/home/docky/apps/exp/images/72Y.jpeg,/home/docky/apps/exp/images/77Yi.jpeg,0,1,1,1,0,3,3,3,327.67305746700004,None,327.67305746700004,None,1,6.5460951770000975,327.67305746700004,None,334.2515757889996,None,334.2515757889996,None,336.756011356003,None,336.756011356003,None,1.3842636110020976,338.56006191800043,None,338.56006191800043,None,6,1,0.9177961209970817,339.9304294400026,None,339.9304294400026,None,339.9304294400026,None,340.86501972800033,None,1,0.6679220100013481,340.86501972800033,None,20,341.5493419190025,None,132,A,1,2021_May_28_1624,GazeFlow,2020.1.2,59.96458347761054,
2,Block506.xls,A,6,5,85,25,21,incongruent,Right,Left,Right,69,75,6,yellow,2,6,/home/docky/apps/exp/images/69Y.jpeg,/home/docky/apps/exp/images/76Yi.jpeg,0,1,1,1,0,4,4,4,342.5515741030031,None,342.5515741030031,None,1,6.095835326999804,342.5515741030031,None,348.6824580650027,None,348.6824580650027,None,351.18382115400163,None,351.18382115400163,None,1.1504568099990138,352.98700511300194,None,352.98700511300194,None,6,1,1.0184255130006932,354.12468775600064,None,354.12468775600064,None,354.12468775600064,None,355.1592649740014,None,1,0.9855725899979006,355.1592649740014,None,22,356.1614786820028,None,132,A,1,2021_May_28_1624,GazeFlow,2020.1.2,59.96458347761054,
2,Block506.xls,A,6,6,71,11,21,incongruent,Right,Left,Right,76,79,3,blue,2,6,/home/docky/apps/exp/images/76B.jpeg,/home/docky/apps/exp/images/79Bi.jpeg,0,1,1,1,0,5,5,5,357.16331842100044,None,357.16331842100044,None,1,5.895797514000151,357.16331842100044,None,363.09249474100216,None,363.09249474100216,None,365.5959914970008,None,365.5959914970008,None,1.6512996410019696,367.3986352400025,None,367.3986352400025,None,6,1,1.1020624299999326,369.03717599599986,None,369.03717599599986,None,369.03717599599986,None,370.1554859759999,None,1,0.6846841659971687,370.1554859759999,None,24,370.8565161389997,None,132,A,1,2021_May_28_1624,GazeFlow,2020.1.2,59.96458347761054,
2,Block506.xls,A,6,7,56,56,12,congruent,Right,Right,Left,76,69,7,yellow,2,5,/home/docky/apps/exp/images/76Yi.jpeg,/home/docky/apps/exp/images/69Y.jpeg,0,1,1,1,0,6,6,6,371.8584083240021,None,371.8584083240021,None,1,6.446642419999989,371.8584083240021,None,378.33882908300075,None,378.33882908300075,None,380.84165048700015,None,380.84165048700015,None,1.0835788489966944,382.64498753299995,None,382.64498753299995,None,5,1,1.0179043570024078,383.71552226100175,None,383.71552226100175,None,383.71552226100175,None,384.74983454200265,None,1,0.6860001750028459,384.74983454200265,None,26,385.4518895630026,None,132,A,1,2021_May_28_1624,GazeFlow,2020.1.2,59.96458347761054,
2,Block506.xls,A,6,8,33,33,12,congruent,Right,Right,Left,38,35,3,blue,2,5,/home/docky/apps/exp/images/38B.jpeg,/home/docky/apps/exp/images/35Bi.jpeg,0,1,1,1,0,7,7,7,386.45338507700217,None,386.45338507700217,None,1,5.86207796799863,386.45338507700217,None,392.34929581800316,None,392.34929581800316,None,394.8523490280022,None,394.8523490280022,None,2.0020004409998364,396.65631350900003,None,396.65631350900003,None,5,1,1.084657141000207,398.64460625100037,None,398.64460625100037,None,398.64460625100037,None,399.7457420179999,None,1,1.1526002069986134,399.7457420179999,None,28,400.9149578610013,None,132,A,1,2021_May_28_1624,GazeFlow,2020.1.2,59.96458347761054,
2,Block506.xls,A,,,,,,,,,,,,,,,,,,0,1,1,1,,,,,,,,,,,,,,,,,,,,,,,,,,,,,,,,,,,,,,,,,,,,132,A,1,2021_May_28_1624,GazeFlow,2020.1.2,59.96458347761054,
3,Block505.xls,A,5,1,1,1,11,congruent,Left,Left,Right,16,19,3,blue,2,6,/home/docky/apps/exp/images/16Bi.jpeg,/home/docky/apps/exp/images/19B.jpeg,0,2,2,2,0,0,0,0,421.87495650700293,None,421.87495650700293,None,1,5.982009726998513,421.87495650700293,None,427.8823875140006,None,427.8823875140006,None,430.40653104100056,None,430.40653104100056,None,0.9161725159974594,432.2047992400003,None,432.2047992400003,None,6,1,1.201578183001402,433.11149434800245,None,433.11149434800245,None,433.11149434800245,None,434.32965159500236,None,1,0.7690441419981653,434.32965159500236,None,30,435.115130563001,None,132,A,1,2021_May_28_1624,GazeFlow,2020.1.2,59.96458347761054,
3,Block505.xls,A,5,2,10,10,11,congruent,Left,Left,Right,73,76,3,blue,2,6,/home/docky/apps/exp/images/73B.jpeg,/home/docky/apps/exp/images/76Bi.jpeg,0,2,2,2,0,1,1,1,436.11651685700053,None,436.11651685700053,None,1,5.261252405001869,436.11651685700053,None,441.40949801300303,None,441.40949801300303,None,443.9145730930031,None,443.9145730930031,None,1.2340403010020964,445.71739865400014,None,445.71739865400014,None,5,0,1.2857186660003208,446.93812117500056,None,446.93812117500056,None,446.93812117500056,None,448.24060380500305,None,1,0.8012247160004335,448.24060380500305,None,28,449.0583584300002,None,132,A,1,2021_May_28_1624,GazeFlow,2020.1.2,59.96458347761054,
3,Block505.xls,A,5,3,95,35,22,incongruent,Left,Right,Left,66,65,1,blue,2,5,/home/docky/apps/exp/images/66B.jpeg,/home/docky/apps/exp/images/35Yi.jpeg,0,2,2,2,0,2,2,2,450.0602088910018,None,450.0602088910018,None,1,9.41912841500016,450.0602088910018,None,459.5129858550026,None,459.5129858550026,None,462.01785345100143,None,462.01785345100143,None,1.7682538570006727,463.82007837499987,None,463.82007837499987,None,6,0,1.068871774001309,465.5744339060002,None,465.5744339060002,None,465.5744339060002,None,466.65962984400176,None,1,1.2355448530033755,466.65962984400176,None,26,467.9117039340017,None,132,A,1,2021_May_28_1624,GazeFlow,2020.1.2,59.96458347761054,
3,Block505.xls,A,5,4,46,46,12,congruent,Right,Right,Left,35,33,2,yellow,2,5,/home/docky/apps/exp/images/35Yi.jpeg,/home/docky/apps/exp/images/33Y.jpeg,0,2,2,2,0,3,3,3,468.91399420200105,None,468.91399420200105,None,1,6.162292437998985,468.91399420200105,None,475.1100539649997,None,475.1100539649997,None,477.6145345719997,None,477.6145345719997,None,1.017238663000171,479.4164393130013,None,479.4164393130013,None,5,1,1.3192658810003195,480.4197553230006,None,480.4197553230006,None,480.4197553230006,None,481.7555652660012,None,1,1.0685626580016105,481.7555652660012,None,28,482.84063849400263,None,132,A,1,2021_May_28_1624,GazeFlow,2020.1.2,59.96458347761054,
3,Block505.xls,A,5,5,78,18,21,incongruent,Right,Left,Right,65,66,1,yellow,2,6,/home/docky/apps/exp/images/35Bi.jpeg,/home/docky/apps/exp/images/66Y.jpeg,0,2,2,2,0,4,4,4,483.8430186370024,None,483.8430186370024,None,1,6.546649833999254,483.8430186370024,None,490.4230067690005,None,490.4230067690005,None,492.92625558500004,None,492.92625558500004,None,4.006558603003214,494.7295071590015,None,494.7295071590015,None,6,1,2.3040577930005384,498.7393658250003,None,498.7393658250003,None,498.7393658250003,None,501.05975042000136,None,1,5.761825374000182,501.05975042000136,None,30,506.83770285500214,None,132,A,1,2021_May_28_1624,GazeFlow,2020.1.2,59.96458347761054,
3,Block505.xls,A,5,6,43,43,12,congruent,Right,Right,Left,83,80,3,blue,2,5,/home/docky/apps/exp/images/83B.jpeg,/home/docky/apps/exp/images/80Bi.jpeg,0,2,2,2,0,5,5,5,507.8395836100026,None,507.8395836100026,None,1,5.744898061999265,507.8395836100026,None,513.6178255830018,None,513.6178255830018,None,516.1232522150021,None,516.1232522150021,None,1.2339661580008396,517.9248207790006,None,517.9248207790006,None,5,1,7.264549131999956,519.145164988,None,519.145164988,None,519.145164988,None,526.4257323730017,None,1,2.004103949002456,526.4257323730017,None,32,528.4462864320012,None,132,A,1,2021_May_28_1624,GazeFlow,2020.1.2,59.96458347761054,
3,Block505.xls,A,5,7,44,44,12,congruent,Right,Right,Left,39,38,1,blue,2,5,/home/docky/apps/exp/images/39Bi.jpeg,/home/docky/apps/exp/images/38B.jpeg,0,2,2,2,0,6,6,6,529.4483436810006,None,529.4483436810006,None,1,12.157153124000615,529.4483436810006,None,541.6393091700011,None,541.6393091700011,None,544.1438164290012,None,544.1438164290012,None,1.1836657159983588,545.9456214279999,None,545.9456214279999,None,5,1,11.322291898999538,547.1158212010014,None,547.1158212010014,None,547.1158212010014,None,558.4544027960001,None,1,1.9379605870017258,558.4544027960001,None,34,560.4085250110002,None,132,A,1,2021_May_28_1624,GazeFlow,2020.1.2,59.96458347761054,
3,Block505.xls,A,5,8,116,56,22,incongruent,Left,Right,Left,77,72,5,yellow,2,5,/home/docky/apps/exp/images/77Y.jpeg,/home/docky/apps/exp/images/72Y.jpeg,0,2,2,2,0,7,7,7,561.4103899490001,None,561.4103899490001,None,1,6.546312653998029,561.4103899490001,None,567.9906093280006,None,567.9906093280006,None,570.4954153590006,None,570.4954153590006,None,1.066587677996722,572.2970695660006,None,572.2970695660006,None,5,1,3.523391607999656,573.3502118130018,None,573.3502118130018,None,573.3502118130018,None,576.8902346930008,None,1,2.472385272001702,576.8902346930008,None,36,579.3786013050012,None,132,A,1,2021_May_28_1624,GazeFlow,2020.1.2,59.96458347761054,
3,Block505.xls,A,,,,,,,,,,,,,,,,,,0,2,2,2,,,,,,,,,,,,,,,,,,,,,,,,,,,,,,,,,,,,,,,,,,,,132,A,1,2021_May_28_1624,GazeFlow,2020.1.2,59.96458347761054,
4,Block509.xls,A,9,1,34,34,12,congruent,Right,Right,Left,38,35,3,blue,2,5,/home/docky/apps/exp/images/38Bi.jpeg,/home/docky/apps/exp/images/35B.jpeg,0,3,3,3,0,0,0,0,622.3140130250031,None,622.3140130250031,None,1,6.352226094997604,622.3140130250031,None,628.6949152350026,None,628.6949152350026,None,631.2133308700031,None,631.2133308700031,None,2.3195129099985934,633.0168961340023,None,633.0168961340023,None,6,0,1.1180049709982995,635.3214042899999,None,635.3214042899999,None,635.3214042899999,None,636.4557434330018,None,1,1.0856030529976124,636.4557434330018,None,34,637.5581898460005,None,132,A,1,2021_May_28_1624,GazeFlow,2020.1.2,59.96458347761054,
4,Block509.xls,A,9,2,7,7,11,congruent,Left,Left,Right,65,66,1,blue,2,6,/home/docky/apps/exp/images/35Yi.jpeg,/home/docky/apps/exp/images/66B.jpeg,0,3,3,3,0,1,1,1,638.5602329620015,None,638.5602329620015,None,1,6.262703082000371,638.5602329620015,None,644.856348911002,None,644.856348911002,None,647.359799601003,None,647.359799601003,None,1.7014437830002862,649.1582138910017,None,649.1582138910017,None,5,0,1.0357263780024368,650.8509690130013,None,650.8509690130013,None,650.8509690130013,None,651.903059485001,None,1,1.2521472330008692,651.903059485001,None,32,653.171883588002,None,132,A,1,2021_May_28_1624,GazeFlow,2020.1.2,59.96458347761054,
4,Block509.xls,A,9,3,74,14,21,incongruent,Right,Left,Right,80,83,3,blue,2,6,/home/docky/apps/exp/images/80B.jpeg,/home/docky/apps/exp/images/83Bi.jpeg,0,3,3,3,0,2,2,2,654.1737981170008,None,654.1737981170008,None,1,6.396362499999668,654.1737981170008,None,660.6040233650019,None,660.6040233650019,None,663.1086674040016,None,663.1086674040016,None,1.0002674329989532,664.9104019200022,None,664.9104019200022,None,6,1,1.1017956060022698,665.8967340740019,None,665.8967340740019,None,665.8967340740019,None,667.0150196360009,None,1,0.9352581249986542,667.0150196360009,None,34,667.9670384600031,None,132,A,1,2021_May_28_1624,GazeFlow,2020.1.2,59.96458347761054,
4,Block509.xls,A,9,4,19,19,11,congruent,Left,Left,Right,65,66,1,yellow,2,6,/home/docky/apps/exp/images/35Bi.jpeg,/home/docky/apps/exp/images/66Y.jpeg,0,3,3,3,0,3,3,3,668.9688736360004,None,668.9688736360004,None,1,5.811944768000103,668.9688736360004,None,674.8147095990025,None,674.8147095990025,None,677.3176928169996,None,677.3176928169996,None,1.1671215650021622,679.1160347760015,None,679.1160347760015,None,6,1,1.1015890549970209,680.2748393600014,None,680.2748393600014,None,680.2748393600014,None,681.3932204780031,None,1,0.8347094029995787,681.3932204780031,None,36,682.2447530400023,None,132,A,1,2021_May_28_1624,GazeFlow,2020.1.2,59.96458347761054,
4,Block509.xls,A,9,5,60,60,12,congruent,Right,Right,Left,80,79,1,yellow,2,5,/home/docky/apps/exp/images/80Yi.jpeg,/home/docky/apps/exp/images/79Y.jpeg,0,3,3,3,0,4,4,4,683.246498096003,None,683.246498096003,None,1,6.613584200000332,683.246498096003,None,689.8920781490015,None,689.8920781490015,None,692.3971016640025,None,692.3971016640025,None,1.9853426730005594,694.1955947630013,None,694.1955947630013,None,5,1,0.8850221520006016,696.1723703090029,None,696.1723703090029,None,696.1723703090029,None,697.073820495003,None,1,1.5858940180005447,697.073820495003,None,38,698.6764144300032,None,132,A,1,2021_May_28_1624,GazeFlow,2020.1.2,59.96458347761054,
4,Block509.xls,A,9,6,83,23,21,incongruent,Right,Left,Right,38,39,1,yellow,2,6,/home/docky/apps/exp/images/38Yi.jpeg,/home/docky/apps/exp/images/39Y.jpeg,0,3,3,3,0,5,5,5,699.6790378740006,None,699.6790378740006,None,1,6.062541684001189,699.6790378740006,None,705.7728601160015,None,705.7728601160015,None,708.283533566002,None,708.283533566002,None,1.066896992000693,710.0781960760032,None,710.0781960760032,None,6,1,1.3692672430006496,711.1348284150008,None,711.1348284150008,None,711.1348284150008,None,712.5206031410016,None,1,0.9014740519996849,712.5206031410016,None,40,713.4383801820004,None,132,A,1,2021_May_28_1624,GazeFlow,2020.1.2,59.96458347761054,
4,Block509.xls,A,9,7,4,4,11,congruent,Left,Left,Right,35,38,3,blue,2,6,/home/docky/apps/exp/images/35B.jpeg,/home/docky/apps/exp/images/38Bi.jpeg,0,3,3,3,0,6,6,6,714.4408172780022,None,714.4408172780022,None,1,6.313446620999457,714.4408172780022,None,720.788209745002,None,720.788209745002,None,723.2947074520016,None,723.2947074520016,None,1.4673792840003443,725.0889886350014,None,725.0889886350014,None,6,1,1.1850196870000218,726.547925345003,None,726.547925345003,None,726.547925345003,None,727.750234692001,None,1,1.0018501430022297,727.750234692001,None,42,728.7684684570013,None,132,A,1,2021_May_28_1624,GazeFlow,2020.1.2,59.96458347761054,
4,Block509.xls,A,9,8,24,24,11,congruent,Left,Left,Right,38,39,1,yellow,2,6,/home/docky/apps/exp/images/38Y.jpeg,/home/docky/apps/exp/images/39Yi.jpeg,0,3,3,3,0,7,7,7,729.7708450420032,None,729.7708450420032,None,1,6.095143104001181,729.7708450420032,None,735.9000833040009,None,735.9000833040009,None,738.4059074350007,None,738.4059074350007,None,1.1505357490023016,740.2016246320018,None,740.2016246320018,None,5,0,1.1519118709984468,741.3433904049998,None,741.3433904049998,None,741.3433904049998,None,742.5117554690005,None,1,1.0853465549989778,742.5117554690005,None,40,743.6137642470021,None,132,A,1,2021_May_28_1624,GazeFlow,2020.1.2,59.96458347761054,
4,Block509.xls,A,,,,,,,,,,,,,,,,,,0,3,3,3,,,,,,,,,,,,,,,,,,,,,,,,,,,,,,,,,,,,,,,,,,,,132,A,1,2021_May_28_1624,GazeFlow,2020.1.2,59.96458347761054,
5,Block504.xls,A,4,1,11,11,11,congruent,Left,Left,Right,73,76,3,blue,2,6,/home/docky/apps/exp/images/73Bi.jpeg,/home/docky/apps/exp/images/76B.jpeg,0,4,4,4,0,0,0,0,765.9108575530008,None,765.9108575530008,None,1,5.850854004002031,765.9108575530008,None,771.7903485830029,None,771.7903485830029,None,774.3061524020013,None,774.3061524020013,None,1.5340620979986852,776.105209471003,None,776.105209471003,None,6,1,1.3524666420016729,777.6305970659996,None,777.6305970659996,None,777.6305970659996,None,778.9996132320011,None,1,3.390286408000975,778.9996132320011,None,42,782.4061196030016,None,132,A,1,2021_May_28_1624,GazeFlow,2020.1.2,59.96458347761054,
5,Block504.xls,A,4,2,87,27,21,incongruent,Right,Left,Right,72,77,5,yellow,2,6,/home/docky/apps/exp/images/72Y.jpeg,/home/docky/apps/exp/images/77Yi.jpeg,0,4,4,4,0,1,1,1,783.4081960600015,None,783.4081960600015,None,1,6.229150839000795,783.4081960600015,None,789.6710804330032,None,789.6710804330032,None,792.1756793260029,None,792.1756793260029,None,0.9165232769992144,793.9780809700023,None,793.9780809700023,None,6,1,1.3524963519994344,794.8806205550027,None,794.8806205550027,None,794.8806205550027,None,796.2502307670002,None,1,1.1349093429998902,796.2502307670002,None,44,797.4017407580031,None,132,A,1,2021_May_28_1624,GazeFlow,2020.1.2,59.96458347761054,
5,Block504.xls,A,4,3,48,48,12,congruent,Right,Right,Left,39,38,1,yellow,2,5,/home/docky/apps/exp/images/39Yi.jpeg,/home/docky/apps/exp/images/38Y.jpeg,0,4,4,4,0,2,2,2,798.403719527003,None,798.403719527003,None,1,6.730363001999649,798.403719527003,None,805.1662879760006,None,805.1662879760006,None,807.6729119379997,None,807.6729119379997,None,1.4843618539998715,809.4738695970009,None,809.4738695970009,None,5,1,1.019012978002138,810.945267987001,None,810.945267987001,None,810.945267987001,None,811.9804279980017,None,1,0.9347356150028645,811.9804279980017,None,46,812.9318805720031,None,132,A,1,2021_May_28_1624,GazeFlow,2020.1.2,59.96458347761054,
5,Block504.xls,A,4,4,38,38,12,congruent,Right,Right,Left,79,73,6,blue,2,5,/home/docky/apps/exp/images/79B.jpeg,/home/docky/apps/exp/images/73Bi.jpeg,0,4,4,4,0,3,3,3,813.9342389789999,None,813.9342389789999,None,1,6.1955827940000745,813.9342389789999,None,820.1636976480004,None,820.1636976480004,None,822.6681544849998,None,822.6681544849998,None,3.6891526529980183,824.4703552000028,None,824.4703552000028,None,5,1,1.7207780520002416,828.1609591990018,None,828.1609591990018,None,828.1609591990018,None,829.8978804550025,None,1,1.6208076719995006,829.8978804550025,None,48,831.5350800420019,None,132,A,1,2021_May_28_1624,GazeFlow,2020.1.2,59.96458347761054,
5,Block504.xls,A,4,5,2,2,11,congruent,Left,Left,Right,16,19,3,blue,2,6,/home/docky/apps/exp/images/16B.jpeg,/home/docky/apps/exp/images/19Bi.jpeg,0,4,4,4,0,4,4,4,832.5371214530023,None,832.5371214530023,None,1,6.696521960999235,832.5371214530023,None,839.2672236640028,None,839.2672236640028,None,841.770788146001,None,841.770788146001,None,1.5011909910026588,843.5759702610012,None,843.5759702610012,None,6,1,1.3363856360010686,845.0614163010032,None,845.0614163010032,None,845.0614163010032,None,846.4139546190017,None,1,2.454604656999436,846.4139546190017,None,50,848.8852960310032,None,132,A,1,2021_May_28_1624,GazeFlow,2020.1.2,59.96458347761054,
5,Block504.xls,A,4,6,73,13,21,incongruent,Right,Left,Right,80,83,3,blue,2,6,/home/docky/apps/exp/images/80Bi.jpeg,/home/docky/apps/exp/images/83B.jpeg,0,4,4,4,0,5,5,5,849.887434946002,None,849.887434946002,None,1,6.012328502998571,849.887434946002,None,855.9331271020019,None,855.9331271020019,None,858.4360564600029,None,858.4360564600029,None,1.7684042660002888,860.2339121559999,None,860.2339121559999,None,6,1,1.1190454179995868,861.9943126680009,None,861.9943126680009,None,861.9943126680009,None,863.1293163260016,None,1,0.8351759979996132,863.1293163260016,None,52,863.9808235240016,None,132,A,1,2021_May_28_1624,GazeFlow,2020.1.2,59.96458347761054,
5,Block504.xls,A,4,7,63,3,21,incongruent,Right,Left,Right,35,38,3,blue,2,6,/home/docky/apps/exp/images/35B.jpeg,/home/docky/apps/exp/images/38Bi.jpeg,0,4,4,4,0,6,6,6,864.9833351080015,None,864.9833351080015,None,1,6.178952205002133,864.9833351080015,None,871.1960311960029,None,871.1960311960029,None,873.699436805,None,873.699436805,None,1.6177904719988874,875.5043583100014,None,875.5043583100014,None,6,1,1.435802951000369,877.1070256189996,None,877.1070256189996,None,877.1070256189996,None,878.5593081080006,None,1,0.8348695909990056,878.5593081080006,None,54,879.4108521300004,None,132,A,1,2021_May_28_1624,GazeFlow,2020.1.2,59.96458347761054,
5,Block504.xls,A,4,8,86,26,21,incongruent,Right,Left,Right,72,77,5,yellow,2,6,/home/docky/apps/exp/images/72Yi.jpeg,/home/docky/apps/exp/images/77Y.jpeg,0,4,4,4,0,7,7,7,880.4134546720015,None,880.4134546720015,None,1,5.99517141600154,880.4134546720015,None,886.4404847490005,None,886.4404847490005,None,888.9469450240031,None,888.9469450240031,None,1.1171097620026558,890.7489375020014,None,890.7489375020014,None,6,1,1.135089664003317,891.8523091330026,None,891.8523091330026,None,891.8523091330026,None,893.004113457002,None,1,0.8014802809993853,893.004113457002,None,56,893.8222635250022,None,132,A,1,2021_May_28_1624,GazeFlow,2020.1.2,59.96458347761054,
5,Block504.xls,A,,,,,,,,,,,,,,,,,,0,4,4,4,,,,,,,,,,,,,,,,,,,,,,,,,,,,,,,,,,,,,,,,,,,,132,A,1,2021_May_28_1624,GazeFlow,2020.1.2,59.96458347761054,
6,Block511.xls,A,11,1,15,15,11,congruent,Left,Left,Right,80,83,3,blue,2,6,/home/docky/apps/exp/images/80Bi.jpeg,/home/docky/apps/exp/images/83B.jpeg,0,5,5,5,0,0,0,0,914.2812840320003,None,914.2812840320003,None,1,5.819004621000204,914.2812840320003,None,920.1287978530017,None,920.1287978530017,None,922.647386992001,None,922.647386992001,None,1.4170886630017776,924.447800031001,None,924.447800031001,None,6,1,1.1187541460021748,925.8517874810022,None,925.8517874810022,None,925.8517874810022,None,926.986861444002,None,1,0.8850711769991904,926.986861444002,None,58,927.888426501002,None,132,A,1,2021_May_28_1624,GazeFlow,2020.1.2,59.96458347761054,
6,Block511.xls,A,11,2,105,45,22,incongruent,Left,Right,Left,39,38,1,blue,2,5,/home/docky/apps/exp/images/39Bi.jpeg,/home/docky/apps/exp/images/38B.jpeg,0,5,5,5,0,1,1,1,928.8903875940014,None,928.8903875940014,None,1,6.129733693000162,928.8903875940014,None,935.0535526410022,None,935.0535526410022,None,937.556663137002,None,937.556663137002,None,1.8017303870001342,939.3597784010017,None,939.3597784010017,None,5,1,1.3016469750000397,941.148401855,None,941.148401855,None,941.148401855,None,942.4668901330006,None,1,0.8349958840008185,942.4668901330006,None,60,943.3188344980008,None,132,A,1,2021_May_28_1624,GazeFlow,2020.1.2,59.96458347761054,
6,Block511.xls,A,11,3,68,8,21,incongruent,Right,Left,Right,38,39,1,blue,2,6,/home/docky/apps/exp/images/38B.jpeg,/home/docky/apps/exp/images/39Bi.jpeg,0,5,5,5,0,2,2,2,944.320884105,None,944.320884105,None,1,6.395906892001221,944.320884105,None,950.7506808560029,None,950.7506808560029,None,953.2553614950011,None,953.2553614950011,None,1.4007583550010168,955.053153189001,None,955.053153189001,None,5,0,0.985307635000936,956.4445049540009,None,956.4445049540009,None,956.4445049540009,None,957.4463057930006,None,1,0.9180895560020872,957.4463057930006,None,58,958.3809903470028,None,132,A,1,2021_May_28_1624,GazeFlow,2020.1.2,59.96458347761054,
6,Block511.xls,A,11,4,80,20,21,incongruent,Right,Left,Right,62,65,3,yellow,2,6,/home/docky/apps/exp/images/38Bi.jpeg,/home/docky/apps/exp/images/35B.jpeg,0,5,5,5,0,3,3,3,959.3833886360007,None,959.3833886360007,None,1,5.795459886001481,959.3833886360007,None,965.2121939570025,None,965.2121939570025,None,967.716850175002,None,967.716850175002,None,1.834740566999244,969.5205620180022,None,969.5205620180022,None,6,1,1.018864334000682,971.3400482850011,None,971.3400482850011,None,971.3400482850011,None,972.375348032001,None,1,0.867872417999024,972.375348032001,None,60,973.2600177940003,None,132,A,1,2021_May_28_1624,GazeFlow,2020.1.2,59.96458347761054,
6,Block511.xls,A,11,5,5,5,11,congruent,Left,Left,Right,65,66,1,blue,2,6,/home/docky/apps/exp/images/35Yi.jpeg,/home/docky/apps/exp/images/66B.jpeg,0,5,5,5,0,4,4,4,974.2621034229996,None,974.2621034229996,None,1,6.262661040000239,974.2621034229996,None,980.558947679001,None,980.558947679001,None,983.0634789970027,None,983.0634789970027,None,1.2174823380009911,984.8650941390006,None,984.8650941390006,None,5,0,1.2024104129995976,986.0686773180023,None,986.0686773180023,None,986.0686773180023,None,987.2874903660013,None,1,0.8347355980004068,987.2874903660013,None,58,988.1388067790031,None,132,A,1,2021_May_28_1624,GazeFlow,2020.1.2,59.96458347761054,
6,Block511.xls,A,11,6,18,18,11,congruent,Left,Left,Right,65,66,1,yellow,2,6,/home/docky/apps/exp/images/35B.jpeg,/home/docky/apps/exp/images/66Yi.jpeg,0,5,5,5,0,5,5,5,989.1409813360006,None,989.1409813360006,None,1,5.995901401001902,989.1409813360006,None,995.1702088730017,None,995.1702088730017,None,997.6734336730005,None,997.6734336730005,None,1.4842602780008747,999.4767555580001,None,999.4767555580001,None,5,0,1.069135900997935,1000.9476570270017,None,1000.9476570270017,None,1000.9476570270017,None,1002.032920556001,None,1,0.7509665239995229,1002.032920556001,None,56,1002.800700582,None,132,A,1,2021_May_28_1624,GazeFlow,2020.1.2,59.96458347761054,
6,Block511.xls,A,11,7,25,25,11,congruent,Left,Left,Right,69,75,6,yellow,2,6,/home/docky/apps/exp/images/69Yi.jpeg,/home/docky/apps/exp/images/76Y.jpeg,0,5,5,5,0,6,6,6,1003.8023980970029,None,1003.8023980970029,None,1,5.862846323998383,1003.8023980970029,None,1009.6993215069997,None,1009.6993215069997,None,1012.2031264830002,None,1012.2031264830002,None,1.5510885430012422,1014.0065825330021,None,1014.0065825330021,None,6,1,1.0691012420029438,1015.5427683160015,None,1015.5427683160015,None,1015.5427683160015,None,1016.6279905230003,None,1,1.1013987790029205,1016.6279905230003,None,58,1017.7460291470015,None,132,A,1,2021_May_28_1624,GazeFlow,2020.1.2,59.96458347761054,
6,Block511.xls,A,11,8,3,3,11,congruent,Left,Left,Right,35,38,3,blue,2,6,/home/docky/apps/exp/images/35Bi.jpeg,/home/docky/apps/exp/images/38B.jpeg,0,5,5,5,0,7,7,7,1018.7486671600018,None,1018.7486671600018,None,1,5.17708141699768,1018.7486671600018,None,1023.9594520090031,None,1023.9594520090031,None,1026.466964033003,None,1026.466964033003,None,0.9848926739978197,1028.2512151190022,None,1028.2512151190022,None,5,0,1.1181720819986367,1029.235950839,None,1029.235950839,None,1029.235950839,None,1030.371302929001,None,1,0.7686733170012303,1030.371302929001,None,56,1031.1561151690003,None,132,A,1,2021_May_28_1624,GazeFlow,2020.1.2,59.96458347761054,
6,Block511.xls,A,,,,,,,,,,,,,,,,,,0,5,5,5,,,,,,,,,,,,,,,,,,,,,,,,,,,,,,,,,,,,,,,,,,,,132,A,1,2021_May_28_1624,GazeFlow,2020.1.2,59.96458347761054,
7,Block508.xls,A,8,1,13,13,11,congruent,Left,Left,Right,76,79,3,blue,2,6,/home/docky/apps/exp/images/76Bi.jpeg,/home/docky/apps/exp/images/79B.jpeg,0,6,6,6,0,0,0,0,1053.9189370640015,None,1053.9189370640015,None,1,5.36744275700039,1053.9189370640015,None,1059.317801643003,None,1059.317801643003,None,1061.833016124001,None,1061.833016124001,None,0.915945341999759,1063.6351107100018,None,1063.6351107100018,None,6,1,1.1516676809987985,1064.5375399100012,None,1064.5375399100012,None,1064.5375399100012,None,1065.7059175590002,None,1,1.1024821329992847,1065.7059175590002,None,58,1066.824669466001,None,132,A,1,2021_May_28_1624,GazeFlow,2020.1.2,59.96458347761054,
7,Block508.xls,A,8,2,21,21,11,congruent,Left,Left,Right,62,65,3,yellow,2,6,/home/docky/apps/exp/images/38B.jpeg,/home/docky/apps/exp/images/35Bi.jpeg,0,6,6,6,0,1,1,1,1067.8274568510024,None,1067.8274568510024,None,1,4.759432459999516,1067.8274568510024,None,1072.62075242,None,1072.62075242,None,1075.1238217210011,None,1075.1238217210011,None,0.9166872420028085,1076.9270496050012,None,1076.9270496050012,None,6,1,1.1849023030008539,1077.8303595370016,None,1077.8303595370016,None,1077.8303595370016,None,1079.032205380001,None,1,0.8515171250001004,1079.032205380001,None,60,1079.9003076990011,None,132,A,1,2021_May_28_1624,GazeFlow,2020.1.2,59.96458347761054,
7,Block508.xls,A,8,3,99,39,22,incongruent,Left,Right,Left,79,76,3,blue,2,5,/home/docky/apps/exp/images/79Bi.jpeg,/home/docky/apps/exp/images/76B.jpeg,0,6,6,6,0,2,2,2,1080.9021333780001,None,1080.9021333780001,None,1,5.378079769001488,1080.9021333780001,None,1086.3186221150027,None,1086.3186221150027,None,1088.816677007002,None,1088.816677007002,None,1.016939018998528,1090.619556159003,None,1090.619556159003,None,5,1,1.101853158997983,1091.6237489270025,None,1091.6237489270025,None,1091.6237489270025,None,1092.7420520470005,None,1,1.0853078340005595,1092.7420520470005,None,62,1093.844277139,None,132,A,1,2021_May_28_1624,GazeFlow,2020.1.2,59.96458347761054,
7,Block508.xls,A,8,4,37,37,12,congruent,Right,Right,Left,66,65,1,blue,2,5,/home/docky/apps/exp/images/66Bi.jpeg,/home/docky/apps/exp/images/35Y.jpeg,0,6,6,6,0,3,3,3,1094.8462232660022,None,1094.8462232660022,None,1,5.5112887830000545,1094.8462232660022,None,1100.391437522001,None,1100.391437522001,None,1102.8958391710003,None,1102.8958391710003,None,1.3175957780003955,1104.6996602220024,None,1104.6996602220024,None,5,1,1.001744625998981,1106.0017895290002,None,1106.0017895290002,None,1106.0017895290002,None,1107.0200354780027,None,1,0.9347610069999064,1107.0200354780027,None,64,1107.9714069670008,None,132,A,1,2021_May_28_1624,GazeFlow,2020.1.2,59.96458347761054,
7,Block508.xls,A,8,5,82,22,21,incongruent,Right,Left,Right,38,39,1,yellow,2,6,/home/docky/apps/exp/images/38Y.jpeg,/home/docky/apps/exp/images/39Yi.jpeg,0,6,6,6,0,4,4,4,1108.9734840750025,None,1108.9734840750025,None,1,6.463908443998662,1108.9734840750025,None,1115.4703920620013,None,1115.4703920620013,None,1117.975410299001,None,1117.975410299001,None,1.4676147530008166,1119.7769888290022,None,1119.7769888290022,None,6,1,1.0353210859975661,1121.2314474990017,None,1121.2314474990017,None,1121.2314474990017,None,1122.2830453120005,None,1,0.9016372849982872,1122.2830453120005,None,66,1123.201365603003,None,132,A,1,2021_May_28_1624,GazeFlow,2020.1.2,59.96458347761054,
7,Block508.xls,A,8,6,104,44,22,incongruent,Left,Right,Left,39,38,1,blue,2,5,/home/docky/apps/exp/images/39B.jpeg,/home/docky/apps/exp/images/38Bi.jpeg,0,6,6,6,0,5,5,5,1124.2031379040018,None,1124.2031379040018,None,1,5.327692400001979,1124.2031379040018,None,1129.5647473669997,None,1129.5647473669997,None,1132.0692413290017,None,1132.0692413290017,None,1.033636373002082,1133.871448367001,None,1133.871448367001,None,5,1,1.2185645149984339,1134.8912968430013,None,1134.8912968430013,None,1134.8912968430013,None,1136.1264055540014,None,1,0.7012166610002168,1136.1264055540014,None,68,1136.8442899090005,None,132,A,1,2021_May_28_1624,GazeFlow,2020.1.2,59.96458347761054,
7,Block508.xls,A,8,7,39,39,12,congruent,Right,Right,Left,79,73,6,blue,2,5,/home/docky/apps/exp/images/79B.jpeg,/home/docky/apps/exp/images/73Bi.jpeg,0,6,6,6,0,6,6,6,1137.8462561170018,None,1137.8462561170018,None,1,6.145973493999918,1137.8462561170018,None,1144.0258996420016,None,1144.0258996420016,None,1146.5307668140013,None,1146.5307668140013,None,1.033835218000604,1148.3323120660025,None,1148.3323120660025,None,5,1,1.0181902059994172,1149.352530532,None,1149.352530532,None,1149.352530532,None,1150.387617425,None,1,0.7182499730006384,1150.387617425,None,70,1151.1225029550005,None,132,A,1,2021_May_28_1624,GazeFlow,2020.1.2,59.96458347761054,
7,Block508.xls,A,8,8,36,36,12,congruent,Right,Right,Left,66,65,1,blue,2,5,/home/docky/apps/exp/images/66B.jpeg,/home/docky/apps/exp/images/35Yi.jpeg,0,6,6,6,0,7,7,7,1152.1241696360012,None,1152.1241696360012,None,1,8.082910859000549,1152.1241696360012,None,1160.240586289001,None,1160.240586289001,None,1162.7460186870012,None,1162.7460186870012,None,1.1839900699997088,1164.547831177002,None,1164.547831177002,None,5,1,0.968051514999388,1165.717704183,None,1165.717704183,None,1165.717704183,None,1166.7027757080032,None,1,1.218502196999907,1166.7027757080032,None,72,1167.937819083003,None,132,A,1,2021_May_28_1624,GazeFlow,2020.1.2,59.96458347761054,
7,Block508.xls,A,,,,,,,,,,,,,,,,,,0,6,6,6,,,,,,,,,,,,,,,,,,,,,,,,,,,,,,,,,,,,,,,,,,,,132,A,1,2021_May_28_1624,GazeFlow,2020.1.2,59.96458347761054,
8,Block510.xls,A,10,1,102,42,22,incongruent,Left,Right,Left,83,80,3,blue,2,5,/home/docky/apps/exp/images/83B.jpeg,/home/docky/apps/exp/images/80Bi.jpeg,0,7,7,7,0,0,0,0,1189.0474123130007,None,1189.0474123130007,None,1,5.819869947998086,1189.0474123130007,None,1194.893397969001,None,1194.893397969001,None,1197.4128459519998,None,1197.4128459519998,None,0.9160912949992053,1199.2098916120012,None,1199.2098916120012,None,5,1,1.0184450130000187,1200.1177960780005,None,1200.1177960780005,None,1200.1177960780005,None,1201.1526170420002,None,1,1.4529393140001048,1201.1526170420002,None,74,1202.622186173001,None,132,A,1,2021_May_28_1624,GazeFlow,2020.1.2,59.96458347761054,
8,Block510.xls,A,10,2,114,54,22,incongruent,Left,Right,Left,76,69,7,yellow,2,5,/home/docky/apps/exp/images/76Yi.jpeg,/home/docky/apps/exp/images/69Y.jpeg,0,7,7,7,0,1,1,1,1203.6242908800014,None,1203.6242908800014,None,1,5.778415472999768,1203.6242908800014,None,1209.4357932599996,None,1209.4357932599996,None,1211.9393377330016,None,1211.9393377330016,None,1.2172509039992292,1213.7425680859997,None,1213.7425680859997,None,5,1,1.0679481100014527,1214.946874227,None,1214.946874227,None,1214.946874227,None,1216.0313738500008,None,1,1.887211984001624,1216.0313738500008,None,76,1217.9351135910001,None,132,A,1,2021_May_28_1624,GazeFlow,2020.1.2,59.96458347761054,
8,Block510.xls,A,10,3,72,12,21,incongruent,Right,Left,Right,76,79,3,blue,2,6,/home/docky/apps/exp/images/76Bi.jpeg,/home/docky/apps/exp/images/79B.jpeg,0,7,7,7,0,2,2,2,1218.9375700460005,None,1218.9375700460005,None,1,5.861598061001132,1218.9375700460005,None,1224.8306711210025,None,1224.8306711210025,None,1227.3355742230015,None,1227.3355742230015,None,1.6182819759997074,1229.133684053002,None,1229.133684053002,None,6,1,1.136030383000616,1230.7439971410022,None,1230.7439971410022,None,1230.7439971410022,None,1231.8963544800026,None,1,0.8341728209998109,1231.8963544800026,None,78,1232.7473939530028,None,132,A,1,2021_May_28_1624,GazeFlow,2020.1.2,59.96458347761054,
8,Block510.xls,A,10,4,112,52,22,incongruent,Left,Right,Left,75,69,6,yellow,2,5,/home/docky/apps/exp/images/76Y.jpeg,/home/docky/apps/exp/images/69Yi.jpeg,0,7,7,7,0,3,3,3,1233.7495672390032,None,1233.7495672390032,None,1,5.060221292998904,1233.7495672390032,None,1238.843447012001,None,1238.843447012001,None,1241.346416548,None,1241.346416548,None,0.8329138680019241,1243.1441908449997,None,1243.1441908449997,None,6,0,1.0685209859984752,1243.969600143002,None,1243.969600143002,None,1243.969600143002,None,1245.0544659600018,None,1,0.7526399560010759,1245.0544659600018,None,76,1245.823114289,None,132,A,1,2021_May_28_1624,GazeFlow,2020.1.2,59.96458347761054,
8,Block510.xls,A,10,5,17,17,11,congruent,Left,Left,Right,33,35,2,yellow,2,6,/home/docky/apps/exp/images/33Y.jpeg,/home/docky/apps/exp/images/35Yi.jpeg,0,7,7,7,0,4,4,4,1246.8247142470027,None,1246.8247142470027,None,1,4.8437689209968084,1246.8247142470027,None,1251.707104268,None,1251.707104268,None,1254.2068006010013,None,1254.2068006010013,None,1.60145589899912,1256.0101469480032,None,1256.0101469480032,None,6,1,1.1520827390013437,1257.596058039002,None,1257.596058039002,None,1257.596058039002,None,1258.764873457003,None,1,0.7510506990001886,1258.764873457003,None,78,1259.5327145130032,None,132,A,1,2021_May_28_1624,GazeFlow,2020.1.2,59.96458347761054,
8,Block510.xls,A,10,6,31,31,12,congruent,Right,Right,Left,19,16,3,blue,2,5,/home/docky/apps/exp/images/19Bi.jpeg,/home/docky/apps/exp/images/16B.jpeg,0,7,7,7,0,5,5,5,1260.5348723850002,None,1260.5348723850002,None,1,4.87650526699872,1260.5348723850002,None,1265.4452972810031,None,1265.4452972810031,None,1267.949930646002,None,1267.949930646002,None,1.4010690899995097,1269.751208654001,None,1269.751208654001,None,5,1,1.0689379979994555,1271.1391325850018,None,1271.1391325850018,None,1271.1391325850018,None,1272.2244738670015,None,1,0.7509475779988861,1272.2244738670015,None,80,1272.9921429100032,None,132,A,1,2021_May_28_1624,GazeFlow,2020.1.2,59.96458347761054,
8,Block510.xls,A,10,7,61,1,21,incongruent,Right,Left,Right,16,19,3,blue,2,6,/home/docky/apps/exp/images/16Bi.jpeg,/home/docky/apps/exp/images/19B.jpeg,0,7,7,7,0,6,6,6,1273.9941022380008,None,1273.9941022380008,None,1,5.779152621998946,1273.9941022380008,None,1279.8061671940013,None,1279.8061671940013,None,1282.309812986001,None,1282.309812986001,None,1.0173160970007302,1284.1079953120025,None,1284.1079953120025,None,6,1,1.2186027610005112,1285.1162522010018,None,1285.1162522010018,None,1285.1162522010018,None,1286.3513175240005,None,1,0.7348617620009463,1286.3513175240005,None,82,1287.1027017440028,None,132,A,1,2021_May_28_1624,GazeFlow,2020.1.2,59.96458347761054,
8,Block510.xls,A,10,8,94,34,22,incongruent,Left,Right,Left,38,35,3,blue,2,5,/home/docky/apps/exp/images/38Bi.jpeg,/home/docky/apps/exp/images/35B.jpeg,0,7,7,7,0,7,7,7,1288.104721808002,None,1288.104721808002,None,1,7.064580755999486,1288.104721808002,None,1295.2031400230007,None,1295.2031400230007,None,1297.7074519039998,None,1297.7074519039998,None,1.3507299960001546,1299.509715676002,None,1299.509715676002,None,6,0,1.0354728819984302,1300.8468076790014,None,1300.8468076790014,None,1300.8468076790014,None,1301.8987917080012,None,1,1.1017228069977136,1301.8987917080012,None,80,1303.0169582000017,None,132,A,1,2021_May_28_1624,GazeFlow,2020.1.2,59.96458347761054,
8,Block510.xls,A,,,,,,,,,,,,,,,,,,0,7,7,7,,,,,,,,,,,,,,,,,,,,,,,,,,,,,,,,,,,,,,,,,,,,132,A,1,2021_May_28_1624,GazeFlow,2020.1.2,59.96458347761054,
9,Block507.xls,A,7,1,110,50,22,incongruent,Left,Right,Left,66,65,1,yellow,2,5,/home/docky/apps/exp/images/66Y.jpeg,/home/docky/apps/exp/images/35Bi.jpeg,0,8,8,8,0,0,0,0,1324.443668054002,None,1324.443668054002,None,1,5.449969446999603,1324.443668054002,None,1329.9224685400004,None,1329.9224685400004,None,1332.440515057002,None,1332.440515057002,None,1.2176123879980878,1334.2285859600015,None,1334.2285859600015,None,5,1,1.0180273429978115,1335.4473345510014,None,1335.4473345510014,None,1335.4473345510014,None,1336.4827836990007,None,1,0.9011717469984433,1336.4827836990007,None,82,1337.4005563150022,None,132,A,1,2021_May_28_1624,GazeFlow,2020.1.2,59.96458347761054,
9,Block507.xls,A,7,2,90,30,22,incongruent,Right,Left,Right,16,19,3,blue,2,6,/home/docky/apps/exp/images/16Bi.jpeg,/home/docky/apps/exp/images/19B.jpeg,0,8,8,8,0,1,1,1,1338.4029960910011,None,1338.4029960910011,None,1,7.130575965999014,1338.4029960910011,None,1345.5675229650005,None,1345.5675229650005,None,1348.072423906,None,1348.072423906,None,1.067116009999154,1349.873976255003,None,1349.873976255003,None,6,1,1.1351365109985636,1350.9275235470013,None,1350.9275235470013,None,1350.9275235470013,None,1352.078803913002,None,1,0.7192270350024046,1352.078803913002,None,84,1352.8136045150022,None,132,A,1,2021_May_28_1624,GazeFlow,2020.1.2,59.96458347761054,
9,Block507.xls,A,7,3,16,16,11,congruent,Left,Left,Right,33,35,2,yellow,2,6,/home/docky/apps/exp/images/33Yi.jpeg,/home/docky/apps/exp/images/35Y.jpeg,0,8,8,8,0,2,2,2,1353.8159748690014,None,1353.8159748690014,None,1,5.411625336000725,1353.8159748690014,None,1359.2602822400004,None,1359.2602822400004,None,1361.768671912003,None,1361.768671912003,None,1.5346905139995215,1363.5675022870018,None,1363.5675022870018,None,6,1,1.202411400998244,1365.0882776830003,None,1365.0882776830003,None,1365.0882776830003,None,1366.3071710559998,None,1,0.8512042599977576,1366.3071710559998,None,86,1367.175323405001,None,132,A,1,2021_May_28_1624,GazeFlow,2020.1.2,59.96458347761054,
9,Block507.xls,A,7,4,117,57,22,incongruent,Left,Right,Left,77,72,5,yellow,2,5,/home/docky/apps/exp/images/77Y.jpeg,/home/docky/apps/exp/images/72Yi.jpeg,0,8,8,8,0,3,3,3,1368.1773993180032,None,1368.1773993180032,None,1,5.7949083220009925,1368.1773993180032,None,1374.0062400710012,None,1374.0062400710012,None,1376.5110024540008,None,1376.5110024540008,None,1.5181456150021404,1378.312539747003,None,1378.312539747003,None,5,1,0.9690957679995336,1379.816747367,None,1379.816747367,None,1379.816747367,None,1380.8017777040004,None,1,0.7681696229992667,1380.8017777040004,None,88,1381.5863880640027,None,132,A,1,2021_May_28_1624,GazeFlow,2020.1.2,59.96458347761054,
9,Block507.xls,A,7,5,53,53,12,congruent,Right,Right,Left,75,69,6,yellow,2,5,/home/docky/apps/exp/images/76Yi.jpeg,/home/docky/apps/exp/images/69Y.jpeg,0,8,8,8,0,4,4,4,1382.588764676002,None,1382.588764676002,None,1,6.6966569340002025,1382.588764676002,None,1389.319154967001,None,1389.319154967001,None,1391.821981612,None,1391.821981612,None,1.0001179020000563,1393.6246729720006,None,1393.6246729720006,None,5,1,1.0184665390006558,1394.612431796002,None,1394.612431796002,None,1394.612431796002,None,1395.6469400310016,None,1,0.918854162999196,1395.6469400310016,None,90,1396.5821200360006,None,132,A,1,2021_May_28_1624,GazeFlow,2020.1.2,59.96458347761054,
9,Block507.xls,A,7,6,96,36,22,incongruent,Left,Right,Left,66,65,1,blue,2,5,/home/docky/apps/exp/images/66Bi.jpeg,/home/docky/apps/exp/images/35Y.jpeg,0,8,8,8,0,5,5,5,1397.5839979420016,None,1397.5839979420016,None,1,7.532181941001909,1397.5839979420016,None,1405.1498224690004,None,1405.1498224690004,None,1407.6566551530013,None,1407.6566551530013,None,1.16720573999919,1409.4583111780012,None,1409.4583111780012,None,5,1,1.1186079139988578,1410.6097710730028,None,1410.6097710730028,None,1410.6097710730028,None,1411.7452241700012,None,1,0.7516815439994389,1411.7452241700012,None,92,1412.5131177830008,None,132,A,1,2021_May_28_1624,GazeFlow,2020.1.2,59.96458347761054,
9,Block507.xls,A,7,7,58,58,12,congruent,Right,Right,Left,77,72,5,yellow,2,5,/home/docky/apps/exp/images/77Yi.jpeg,/home/docky/apps/exp/images/72Y.jpeg,0,8,8,8,0,6,6,6,1413.516466852001,None,1413.516466852001,None,1,6.061411056998622,1413.516466852001,None,1419.611377669,None,1419.611377669,None,1422.1161669250032,None,1422.1161669250032,None,1.6849499410018325,1423.9180687070002,None,1423.9180687070002,None,5,1,1.1527041240005929,1425.589212316001,None,1425.589212316001,None,1425.589212316001,None,1426.757892769001,None,1,0.9180170729996462,1426.757892769001,None,94,1427.6926034380012,None,132,A,1,2021_May_28_1624,GazeFlow,2020.1.2,59.96458347761054,
9,Block507.xls,A,7,8,41,41,12,congruent,Right,Right,Left,79,76,3,blue,2,5,/home/docky/apps/exp/images/79Bi.jpeg,/home/docky/apps/exp/images/76B.jpeg,0,8,8,8,0,7,7,7,1428.6950395679996,None,1428.6950395679996,None,1,6.480033757001365,1428.6950395679996,None,1435.2082748950015,None,1435.2082748950015,None,1437.7139222610022,None,1437.7139222610022,None,1.7181828649991076,1439.5176013620003,None,1439.5176013620003,None,5,1,1.2350137260000338,1441.2195187590005,None,1441.2195187590005,None,1441.2195187590005,None,1442.471322217003,None,1,0.8185904530000698,1442.471322217003,None,96,1443.306274886003,None,132,A,1,2021_May_28_1624,GazeFlow,2020.1.2,59.96458347761054,
9,Block507.xls,A,,,,,,,,,,,,,,,,,,0,8,8,8,,,,,,,,,,,,,,,,,,,,,,,,,,,,,,,,,,,,,,,,,,,,132,A,1,2021_May_28_1624,GazeFlow,2020.1.2,59.96458347761054,
10,Block515.xls,A,15,1,107,47,22,incongruent,Left,Right,Left,35,33,2,yellow,2,5,/home/docky/apps/exp/images/35Yi.jpeg,/home/docky/apps/exp/images/33Y.jpeg,0,9,9,9,0,0,0,0,1463.8659162000004,None,1463.8659162000004,None,1,5.146797632001835,1463.8659162000004,None,1469.042413184001,None,1469.042413184001,None,1471.562210463002,None,1471.562210463002,None,1.1668939760020294,1473.3641201770006,None,1473.3641201770006,None,5,1,1.101621993999288,1474.5174060300014,None,1474.5174060300014,None,1474.5174060300014,None,1475.6356591460026,None,1,0.9021685459993023,1475.6356591460026,None,98,1476.5541505729998,None,132,A,1,2021_May_28_1624,GazeFlow,2020.1.2,59.96458347761054,
10,Block515.xls,A,15,2,55,55,12,congruent,Right,Right,Left,76,69,7,yellow,2,5,/home/docky/apps/exp/images/76Yi.jpeg,/home/docky/apps/exp/images/69Y.jpeg,0,9,9,9,0,1,1,1,1477.5563875100015,None,1477.5563875100015,None,1,5.644799838999461,1477.5563875100015,None,1483.2350592770017,None,1483.2350592770017,None,1485.7380020420023,None,1485.7380020420023,None,1.2005602450008155,1487.5412447920025,None,1487.5412447920025,None,5,1,1.0180154320005386,1488.7285223910003,None,1488.7285223910003,None,1488.7285223910003,None,1489.7633623850015,None,1,0.8016681369990692,1489.7633623850015,None,100,1490.5813965520028,None,132,A,1,2021_May_28_1624,GazeFlow,2020.1.2,59.96458347761054,
10,Block515.xls,A,15,3,75,15,21,incongruent,Right,Left,Right,33,35,2,yellow,2,6,/home/docky/apps/exp/images/33Yi.jpeg,/home/docky/apps/exp/images/35Y.jpeg,0,9,9,9,0,2,2,2,1491.5832070080032,None,1491.5832070080032,None,1,5.695328976999008,1491.5832070080032,None,1497.31226178,None,1497.31226178,None,1499.8154687390015,None,1499.8154687390015,None,1.3842839540011482,1501.6205179170029,None,1501.6205179170029,None,5,0,1.102257460999681,1502.9893912330008,None,1502.9893912330008,None,1502.9893912330008,None,1504.1081436260029,None,1,0.8683573140006047,1504.1081436260029,None,98,1504.992719111,None,132,A,1,2021_May_28_1624,GazeFlow,2020.1.2,59.96458347761054,
10,Block515.xls,A,15,4,62,2,21,incongruent,Right,Left,Right,35,38,3,blue,2,6,/home/docky/apps/exp/images/35Bi.jpeg,/home/docky/apps/exp/images/38B.jpeg,0,9,9,9,0,3,3,3,1505.9948412949998,None,1505.9948412949998,None,1,6.0624083840011735,1505.9948412949998,None,1512.091086845001,None,1512.091086845001,None,1514.5954560910031,None,1514.5954560910031,None,0.9835162419985863,1516.3967325720005,None,1516.3967325720005,None,6,1,1.201797796999017,1517.3673423860018,None,1517.3673423860018,None,1517.3673423860018,None,1518.5859086850032,None,1,0.7347770410015073,1518.5859086850032,None,100,1519.3372374980027,None,132,A,1,2021_May_28_1624,GazeFlow,2020.1.2,59.96458347761054,
10,Block515.xls,A,15,5,100,40,22,incongruent,Left,Right,Left,79,76,3,blue,2,5,/home/docky/apps/exp/images/79Bi.jpeg,/home/docky/apps/exp/images/76B.jpeg,0,9,9,9,0,4,4,4,1520.339167987,None,1520.339167987,None,1,5.828717880001932,1520.339167987,None,1526.2017536370004,None,1526.2017536370004,None,1528.7049365950006,None,1528.7049365950006,None,1.384194092999678,1530.507638828003,None,1530.507638828003,None,5,1,1.0855462170002284,1531.8790036999999,None,1531.8790036999999,None,1531.8790036999999,None,1532.9808046450016,None,1,0.7179497209981491,1532.9808046450016,None,102,1533.7151307610002,None,132,A,1,2021_May_28_1624,GazeFlow,2020.1.2,59.96458347761054,
10,Block515.xls,A,15,6,108,48,22,incongruent,Left,Right,Left,39,38,1,yellow,2,5,/home/docky/apps/exp/images/39Y.jpeg,/home/docky/apps/exp/images/38Yi.jpeg,0,9,9,9,0,5,5,5,1534.7174175040018,None,1534.7174175040018,None,1,6.4129859159984335,1534.7174175040018,None,1541.1643303830024,None,1541.1643303830024,None,1543.6669548570026,None,1543.6669548570026,None,0.983670442001312,1545.4697352889998,None,1545.4697352889998,None,6,0,1.10185452800215,1546.4404033150022,None,1546.4404033150022,None,1546.4404033150022,None,1547.559006491003,None,1,0.668050840999058,1547.559006491003,None,100,1548.2437033550013,None,132,A,1,2021_May_28_1624,GazeFlow,2020.1.2,59.96458347761054,
10,Block515.xls,A,15,7,59,59,12,congruent,Right,Right,Left,80,79,1,yellow,2,5,/home/docky/apps/exp/images/80Y.jpeg,/home/docky/apps/exp/images/79Yi.jpeg,0,9,9,9,0,6,6,6,1549.2455637029998,None,1549.2455637029998,None,1,5.227405106998049,1549.2455637029998,None,1554.5066462249997,None,1554.5066462249997,None,1557.011488262,None,1557.011488262,None,0.8832028540018655,1558.8127464890022,None,1558.8127464890022,None,5,1,1.0849991399991268,1559.6829235760015,None,1559.6829235760015,None,1559.6829235760015,None,1560.7844990750018,None,1,0.6517958540025575,1560.7844990750018,None,102,1561.4528112830012,None,132,A,1,2021_May_28_1624,GazeFlow,2020.1.2,59.96458347761054,
10,Block515.xls,A,15,8,8,8,11,congruent,Left,Left,Right,38,39,1,blue,2,6,/home/docky/apps/exp/images/38B.jpeg,/home/docky/apps/exp/images/39Bi.jpeg,0,9,9,9,0,7,7,7,1562.4544697490019,None,1562.4544697490019,None,1,5.177327827997942,1562.4544697490019,None,1567.6638142940028,None,1567.6638142940028,None,1570.1686831590014,None,1570.1686831590014,None,1.2505862639991392,1571.971393328,None,1571.971393328,None,5,0,1.10222640199936,1573.2091806030003,None,1573.2091806030003,None,1573.2091806030003,None,1574.3278227720002,None,1,0.6175593760017364,1574.3278227720002,None,100,1574.961909001002,None,132,A,1,2021_May_28_1624,GazeFlow,2020.1.2,59.96458347761054,
10,Block515.xls,A,,,,,,,,,,,,,,,,,,0,9,9,9,,,,,,,,,,,,,,,,,,,,,,,,,,,,,,,,,,,,,,,,,,,,132,A,1,2021_May_28_1624,GazeFlow,2020.1.2,59.96458347761054,
11,Block512.xls,A,12,1,30,30,11,congruent,Left,Left,Right,79,82,3,yellow,2,6,/home/docky/apps/exp/images/79Yi.jpeg,/home/docky/apps/exp/images/80Y.jpeg,0,10,10,10,0,0,0,0,1595.1193965050006,None,1595.1193965050006,None,1,5.317719345999649,1595.1193965050006,None,1600.462500810001,None,1600.462500810001,None,1602.9841300980006,None,1602.9841300980006,None,0.7822088150023774,1604.7877384560015,None,1604.7877384560015,None,6,1,1.185312741999951,1605.5551876550016,None,1605.5551876550016,None,1605.5551876550016,None,1606.7569446840025,None,1,0.7186302010013605,1606.7569446840025,None,102,1607.492361669003,None,132,A,1,2021_May_28_1624,GazeFlow,2020.1.2,59.96458347761054,
11,Block512.xls,A,12,2,115,55,22,incongruent,Left,Right,Left,76,69,7,yellow,2,5,/home/docky/apps/exp/images/76Yi.jpeg,/home/docky/apps/exp/images/69Y.jpeg,0,10,10,10,0,1,1,1,1608.4936540650015,None,1608.4936540650015,None,1,4.743604560000676,1608.4936540650015,None,1613.2747908439997,None,1613.2747908439997,None,1615.774065274003,None,1615.774065274003,None,0.699527692002448,1617.5770263090017,None,1617.5770263090017,None,5,1,1.134815699999308,1618.2635254730012,None,1618.2635254730012,None,1618.2635254730012,None,1619.4149950080027,None,1,0.7521181189986237,1619.4149950080027,None,104,1620.183438434,None,132,A,1,2021_May_28_1624,GazeFlow,2020.1.2,59.96458347761054,
11,Block512.xls,A,12,3,66,6,21,incongruent,Right,Left,Right,38,39,1,blue,2,6,/home/docky/apps/exp/images/38B.jpeg,/home/docky/apps/exp/images/39Bi.jpeg,0,10,10,10,0,2,2,2,1621.184838776,None,1621.184838776,None,1,5.294554337000591,1621.184838776,None,1626.5133968730006,None,1626.5133968730006,None,1629.0223004300024,None,1629.0223004300024,None,0.9501807130000088,1630.8203255770022,None,1630.8203255770022,None,5,0,1.0347797769973113,1631.7562939240015,None,1631.7562939240015,None,1631.7562939240015,None,1632.807944354001,None,1,0.6349511879998317,1632.807944354001,None,102,1633.4592796710022,None,132,A,1,2021_May_28_1624,GazeFlow,2020.1.2,59.96458347761054,
11,Block512.xls,A,12,4,35,35,12,congruent,Right,Right,Left,66,65,1,blue,2,5,/home/docky/apps/exp/images/66B.jpeg,/home/docky/apps/exp/images/35Yi.jpeg,0,10,10,10,0,3,3,3,1634.4611342589997,None,1634.4611342589997,None,1,4.993810013998882,1634.4611342589997,None,1639.4886423440003,None,1639.4886423440003,None,1641.9932737590025,None,1641.9932737590025,None,1.0001879510018625,1643.7967864660022,None,1643.7967864660022,None,5,1,1.0348085049990914,1644.7815380770007,None,1644.7815380770007,None,1644.7815380770007,None,1645.8330778320014,None,1,0.7351180959994963,1645.8330778320014,None,104,1646.5842993180013,None,132,A,1,2021_May_28_1624,GazeFlow,2020.1.2,59.96458347761054,
11,Block512.xls,A,12,5,40,40,12,congruent,Right,Right,Left,79,76,3,blue,2,5,/home/docky/apps/exp/images/79Bi.jpeg,/home/docky/apps/exp/images/76B.jpeg,0,10,10,10,0,4,4,4,1647.5863795570003,None,1647.5863795570003,None,1,5.611864130001777,1647.5863795570003,None,1653.231853594003,None,1653.231853594003,None,1655.7367117840004,None,1655.7367117840004,None,1.1838431299984222,1657.538122299,None,1657.538122299,None,5,1,1.4528755399987858,1658.708559632003,None,1658.708559632003,None,1658.708559632003,None,1660.1779290150007,None,1,0.934686780001357,1660.1779290150007,None,106,1661.12935028,None,132,A,1,2021_May_28_1624,GazeFlow,2020.1.2,59.96458347761054,
11,Block512.xls,A,12,6,64,4,21,incongruent,Right,Left,Right,65,66,1,blue,2,6,/home/docky/apps/exp/images/35Yi.jpeg,/home/docky/apps/exp/images/66B.jpeg,0,10,10,10,0,5,5,5,1662.1315475910014,None,1662.1315475910014,None,1,6.2960231640026905,1662.1315475910014,None,1668.4628945780023,None,1668.4628945780023,None,1670.9646174280024,None,1670.9646174280024,None,1.5013236490012787,1672.767904671,None,1672.767904671,None,6,1,1.0847482110002602,1674.2556309440006,None,1674.2556309440006,None,1674.2556309440006,None,1675.3569274760011,None,1,1.653718931000185,1675.3569274760011,None,108,1677.0270190750016,None,132,A,1,2021_May_28_1624,GazeFlow,2020.1.2,59.96458347761054,
11,Block512.xls,A,12,7,12,12,11,congruent,Left,Left,Right,76,79,3,blue,2,6,/home/docky/apps/exp/images/76B.jpeg,/home/docky/apps/exp/images/79Bi.jpeg,0,10,10,10,0,6,6,6,1678.0293625400009,None,1678.0293625400009,None,1,4.309090203998494,1678.0293625400009,None,1682.371731569001,None,1682.371731569001,None,1684.874949989,None,1684.874949989,None,1.0668001010017178,1686.6798124660017,None,1686.6798124660017,None,6,1,1.6024180070016882,1687.7318436230016,None,1687.7318436230016,None,1687.7318436230016,None,1689.3508076880025,None,1,0.5678599259990733,1689.3508076880025,None,110,1689.935318377,None,132,A,1,2021_May_28_1624,GazeFlow,2020.1.2,59.96458347761054,
11,Block512.xls,A,12,8,49,49,12,congruent,Right,Right,Left,39,38,1,yellow,2,5,/home/docky/apps/exp/images/39Y.jpeg,/home/docky/apps/exp/images/38Yi.jpeg,0,10,10,10,0,7,7,7,1690.937756645002,None,1690.937756645002,None,1,5.811529986996902,1690.937756645002,None,1696.783223251001,None,1696.783223251001,None,1699.2859145190014,None,1699.2859145190014,None,0.9333460310008377,1701.0850660819997,None,1701.0850660819997,None,5,1,1.1349764199985657,1702.0093480670002,None,1702.0093480670002,None,1702.0093480670002,None,1703.1611662690011,None,1,0.7681064110001898,1703.1611662690011,None,112,1703.9459411610005,None,132,A,1,2021_May_28_1624,GazeFlow,2020.1.2,59.96458347761054,
11,Block512.xls,A,,,,,,,,,,,,,,,,,,0,10,10,10,,,,,,,,,,,,,,,,,,,,,,,,,,,,,,,,,,,,,,,,,,,,132,A,1,2021_May_28_1624,GazeFlow,2020.1.2,59.96458347761054,
12,Block503.xls,A,3,1,22,22,11,congruent,Left,Left,Right,62,65,3,yellow,2,6,/home/docky/apps/exp/images/38Bi.jpeg,/home/docky/apps/exp/images/35B.jpeg,0,11,11,11,0,0,0,0,1725.4213533690017,None,1725.4213533690017,None,1,4.885106467998412,1725.4213533690017,None,1730.3353476000011,None,1730.3353476000011,None,1732.852932058002,None,1732.852932058002,None,0.7827074190026906,1734.6565999720005,None,1734.6565999720005,None,6,1,1.235212773000967,1735.4243180270023,None,1735.4243180270023,None,1735.4243180270023,None,1736.6763159969996,None,1,0.7352669720021368,1736.6763159969996,None,114,1737.4281126660026,None,132,A,1,2021_May_28_1624,GazeFlow,2020.1.2,59.96458347761054,
12,Block503.xls,A,3,2,65,5,21,incongruent,Right,Left,Right,65,66,1,blue,2,6,/home/docky/apps/exp/images/35Y.jpeg,/home/docky/apps/exp/images/66Bi.jpeg,0,11,11,11,0,1,1,1,1738.4294578780027,None,1738.4294578780027,None,1,5.678937239998049,1738.4294578780027,None,1744.1416740500026,None,1744.1416740500026,None,1746.6448327390026,None,1746.6448327390026,None,0.699661719998403,1748.4479587170026,None,1748.4479587170026,None,5,0,1.1184844039999007,1749.1342048389997,None,1749.1342048389997,None,1749.1342048389997,None,1750.2689889110006,None,1,0.7024010060013097,1750.2689889110006,None,112,1750.9876712000005,None,132,A,1,2021_May_28_1624,GazeFlow,2020.1.2,59.96458347761054,
12,Block503.xls,A,3,3,76,16,21,incongruent,Right,Left,Right,33,35,2,yellow,2,6,/home/docky/apps/exp/images/33Y.jpeg,/home/docky/apps/exp/images/35Yi.jpeg,0,11,11,11,0,2,2,2,1751.989215634003,None,1751.989215634003,None,1,5.427891672999976,1751.989215634003,None,1757.4513999930023,None,1757.4513999930023,None,1759.9557257580018,None,1759.9557257580018,None,0.9666330859981827,1761.7578199500022,None,1761.7578199500022,None,6,1,6.52958051600217,1762.7104873919998,None,1762.7104873919998,None,1762.7104873919998,None,1769.2565463640021,None,1,1.3862635580007918,1769.2565463640021,None,114,1770.6591371410032,None,132,A,1,2021_May_28_1624,GazeFlow,2020.1.2,59.96458347761054,
12,Block503.xls,A,3,4,29,29,11,congruent,Left,Left,Right,79,82,3,yellow,2,6,/home/docky/apps/exp/images/79Y.jpeg,/home/docky/apps/exp/images/80Yi.jpeg,0,11,11,11,0,3,3,3,1771.6612248420024,None,1771.6612248420024,None,1,5.09376207600144,1771.6612248420024,None,1776.7882149230027,None,1776.7882149230027,None,1779.2933561280006,None,1779.2933561280006,None,1.317540160001954,1781.0900548280006,None,1781.0900548280006,None,5,0,1.3188878999972076,1782.398945046003,None,1782.398945046003,None,1782.398945046003,None,1783.7346368940016,None,1,0.9349045580020174,1783.7346368940016,None,112,1784.686345659,None,132,A,1,2021_May_28_1624,GazeFlow,2020.1.2,59.96458347761054,
12,Block503.xls,A,3,5,103,43,22,incongruent,Left,Right,Left,39,38,1,blue,2,5,/home/docky/apps/exp/images/39Bi.jpeg,/home/docky/apps/exp/images/38B.jpeg,0,11,11,11,0,4,4,4,1785.6884942590004,None,1785.6884942590004,None,1,5.711748001998785,1785.6884942590004,None,1791.433635231002,None,1791.433635231002,None,1793.9382486260001,None,1793.9382486260001,None,1.1166596780021791,1795.7420703570024,None,1795.7420703570024,None,5,1,1.2522859380005684,1796.8436226970007,None,1796.8436226970007,None,1796.8436226970007,None,1798.1125635410026,None,1,0.7178202780014544,1798.1125635410026,None,114,1798.8468831420032,None,132,A,1,2021_May_28_1624,GazeFlow,2020.1.2,59.96458347761054,
12,Block503.xls,A,3,6,47,47,12,congruent,Right,Right,Left,35,33,2,yellow,2,5,/home/docky/apps/exp/images/35Yi.jpeg,/home/docky/apps/exp/images/33Y.jpeg,0,11,11,11,0,5,5,5,1799.8487975170028,None,1799.8487975170028,None,1,5.980164926000725,1799.8487975170028,None,1805.8628963560004,None,1805.8628963560004,None,1808.3644880300017,None,1808.3644880300017,None,1.5342191090021515,1810.1633430250004,None,1810.1633430250004,None,6,0,1.3364840419999382,1811.6890671930014,None,1811.6890671930014,None,1811.6890671930014,None,1813.0419804330013,None,1,0.7342300720010826,1813.0419804330013,None,112,1813.792536164001,None,132,A,1,2021_May_28_1624,GazeFlow,2020.1.2,59.96458347761054,
12,Block503.xls,A,3,7,20,20,11,congruent,Left,Left,Right,65,66,1,yellow,2,6,/home/docky/apps/exp/images/35Bi.jpeg,/home/docky/apps/exp/images/66Y.jpeg,0,11,11,11,0,6,6,6,1814.7950140570028,None,1814.7950140570028,None,1,5.093769371997041,1814.7950140570028,None,1819.922253415003,None,1819.922253415003,None,1822.4269422260004,None,1822.4269422260004,None,1.033580797000468,1824.2248169430022,None,1824.2248169430022,None,6,1,1.3359870530002809,1825.248691601002,None,1825.248691601002,None,1825.248691601002,None,1826.6011473340004,None,1,0.7514528569990944,1826.6011473340004,None,114,1827.3689356880022,None,132,A,1,2021_May_28_1624,GazeFlow,2020.1.2,59.96458347761054,
12,Block503.xls,A,3,8,27,27,11,congruent,Left,Left,Right,72,77,5,yellow,2,6,/home/docky/apps/exp/images/72Yi.jpeg,/home/docky/apps/exp/images/77Y.jpeg,0,11,11,11,0,7,7,7,1828.3711906370008,None,1828.3711906370008,None,1,4.826993457001663,1828.3711906370008,None,1833.2328941630003,None,1833.2328941630003,None,1835.734340930001,None,1835.734340930001,None,0.6832142759994895,1837.537446188002,None,1837.537446188002,None,6,1,18.803219133998937,1838.2071220560028,None,1838.2071220560028,None,1838.2071220560028,None,1857.0270336650028,None,1,1.2696292600012384,1857.0270336650028,None,116,1858.312829401002,None,132,A,1,2021_May_28_1624,GazeFlow,2020.1.2,59.96458347761054,
12,Block503.xls,A,,,,,,,,,,,,,,,,,,0,11,11,11,,,,,,,,,,,,,,,,,,,,,,,,,,,,,,,,,,,,,,,,,,,,132,A,1,2021_May_28_1624,GazeFlow,2020.1.2,59.96458347761054,
13,Block501.xls,A,1,1,54,54,12,congruent,Right,Right,Left,75,69,6,yellow,2,5,/home/docky/apps/exp/images/76Y.jpeg,/home/docky/apps/exp/images/69Yi.jpeg,0,12,12,12,0,0,0,0,1876.39797894,None,1876.39797894,None,1,6.302429401999689,1876.39797894,None,1882.7353958380008,None,1882.7353958380008,None,1885.2494281159998,None,1885.2494281159998,None,0.9996769400022458,1887.0465669620025,None,1887.0465669620025,None,5,1,1.2018460690014763,1888.037381500002,None,1888.037381500002,None,1888.037381500002,None,1889.2557626790003,None,1,0.9856361930033017,1889.2557626790003,None,118,1890.257607601001,None,132,A,1,2021_May_28_1624,GazeFlow,2020.1.2,59.96458347761054,
13,Block501.xls,A,1,2,70,10,21,incongruent,Right,Left,Right,73,76,3,blue,2,6,/home/docky/apps/exp/images/73Bi.jpeg,/home/docky/apps/exp/images/76B.jpeg,0,12,12,12,0,1,1,1,1891.2596963390024,None,1891.2596963390024,None,1,5.779157496999687,1891.2596963390024,None,1897.0719902980018,None,1897.0719902980018,None,1899.5747602890006,None,1899.5747602890006,None,1.250766774002841,1901.377722833,None,1901.377722833,None,6,1,1.3030113880013232,1902.6157503520008,None,1902.6157503520008,None,1902.6157503520008,None,1903.9348569070025,None,1,0.6511176230014826,1903.9348569070025,None,120,1904.6023732400026,None,132,A,1,2021_May_28_1624,GazeFlow,2020.1.2,59.96458347761054,
13,Block501.xls,A,1,3,84,24,21,incongruent,Right,Left,Right,69,76,7,yellow,2,6,/home/docky/apps/exp/images/69Yi.jpeg,/home/docky/apps/exp/images/76Y.jpeg,0,12,12,12,0,2,2,2,1905.604345130003,None,1905.604345130003,None,1,5.4446661670008325,1905.604345130003,None,1911.082723843003,None,1911.082723843003,None,1913.5854007449998,None,1913.5854007449998,None,0.8664749230010784,1915.388959412001,None,1915.388959412001,None,6,1,1.2018168850008806,1916.2421578480025,None,1916.2421578480025,None,1916.2421578480025,None,1917.4605747290007,None,1,0.7191572640003869,1917.4605747290007,None,122,1918.1957629839999,None,132,A,1,2021_May_28_1624,GazeFlow,2020.1.2,59.96458347761054,
13,Block501.xls,A,1,4,26,26,11,congruent,Left,Left,Right,69,75,6,yellow,2,6,/home/docky/apps/exp/images/69Y.jpeg,/home/docky/apps/exp/images/76Yi.jpeg,0,12,12,12,0,3,3,3,1919.1973206000002,None,1919.1973206000002,None,1,5.144585744001233,1919.1973206000002,None,1924.375262321002,None,1924.375262321002,None,1926.880151250003,None,1926.880151250003,None,0.833316902997467,1928.6814048369997,None,1928.6814048369997,None,6,1,1.318728974001715,1929.501343445001,None,1929.501343445001,None,1929.501343445001,None,1930.836508184002,None,1,0.6854302430001553,1930.836508184002,None,124,1931.5386256920028,None,132,A,1,2021_May_28_1624,GazeFlow,2020.1.2,59.96458347761054,
13,Block501.xls,A,1,5,97,37,22,incongruent,Left,Right,Left,79,73,6,blue,2,5,/home/docky/apps/exp/images/79B.jpeg,/home/docky/apps/exp/images/73Bi.jpeg,0,12,12,12,0,4,4,4,1932.5399732210026,None,1932.5399732210026,None,1,5.14392017299906,1932.5399732210026,None,1937.7176370529996,None,1937.7176370529996,None,1940.222227592003,None,1940.222227592003,None,0.6996233509999001,1942.026053873,None,1942.026053873,None,5,1,1.101574944001186,1942.7103393220023,None,1942.7103393220023,None,1942.7103393220023,None,1943.8286820950016,None,1,0.6348647160011751,1943.8286820950016,None,126,1944.4799801469999,None,132,A,1,2021_May_28_1624,GazeFlow,2020.1.2,59.96458347761054,
13,Block501.xls,A,1,6,98,38,22,incongruent,Left,Right,Left,79,73,6,blue,2,5,/home/docky/apps/exp/images/79B.jpeg,/home/docky/apps/exp/images/73Bi.jpeg,0,12,12,12,0,5,5,5,1945.4816704190016,None,1945.4816704190016,None,1,5.444482517999859,1945.4816704190016,None,1950.9601542689998,None,1950.9601542689998,None,1953.467206911002,None,1953.467206911002,None,0.8164443440000468,1955.2639350040008,None,1955.2639350040008,None,5,1,1.1682502149997163,1956.0696264180006,None,1956.0696264180006,None,1956.0696264180006,None,1957.2546221420016,None,1,0.6355459559999872,1957.2546221420016,None,128,1957.9063008190024,None,132,A,1,2021_May_28_1624,GazeFlow,2020.1.2,59.96458347761054,
13,Block501.xls,A,1,7,77,17,21,incongruent,Right,Left,Right,65,66,1,yellow,2,6,/home/docky/apps/exp/images/35B.jpeg,/home/docky/apps/exp/images/66Yi.jpeg,0,12,12,12,0,6,6,6,1958.9079042140002,None,1958.9079042140002,None,1,6.2460351979971165,1958.9079042140002,None,1965.1878396050015,None,1965.1878396050015,None,1967.6923455560027,None,1967.6923455560027,None,1.0837530259996129,1969.494215026003,None,1969.494215026003,None,5,0,1.436300585999561,1970.5646744780024,None,1970.5646744780024,None,1970.5646744780024,None,1972.017080122001,None,1,0.7845118889999867,1972.017080122001,None,126,1972.8181047850012,None,132,A,1,2021_May_28_1624,GazeFlow,2020.1.2,59.96458347761054,
13,Block501.xls,A,1,8,50,50,12,congruent,Right,Right,Left,66,65,1,yellow,2,5,/home/docky/apps/exp/images/66Y.jpeg,/home/docky/apps/exp/images/35Bi.jpeg,0,12,12,12,0,7,7,7,1973.8200779290019,None,1973.8200779290019,None,1,4.960205825002049,1973.8200779290019,None,1978.814138599002,None,1978.814138599002,None,1981.3191089540014,None,1981.3191089540014,None,1.017034511998645,1983.1150681110012,None,1983.1150681110012,None,5,1,1.1849036009989504,1984.124236003001,None,1984.124236003001,None,1984.124236003001,None,1985.3257317610005,None,1,0.6685475080012111,1985.3257317610005,None,128,1986.0108403910017,None,132,A,1,2021_May_28_1624,GazeFlow,2020.1.2,59.96458347761054,
13,Block501.xls,A,,,,,,,,,,,,,,,,,,0,12,12,12,,,,,,,,,,,,,,,,,,,,,,,,,,,,,,,,,,,,,,,,,,,,132,A,1,2021_May_28_1624,GazeFlow,2020.1.2,59.96458347761054,
14,Block513.xls,A,13,1,32,32,12,congruent,Right,Right,Left,19,16,3,blue,2,5,/home/docky/apps/exp/images/19B.jpeg,/home/docky/apps/exp/images/16Bi.jpeg,0,13,13,13,0,0,0,0,2006.752437305,None,2006.752437305,None,1,7.605446674999257,2006.752437305,None,2014.3854166689998,None,2014.3854166689998,None,2016.9032776810018,None,2016.9032776810018,None,0.7323672589991475,2018.7065960140026,None,2018.7065960140026,None,5,1,1.2354401359989424,2019.4258935040016,None,2019.4258935040016,None,2019.4258935040016,None,2020.677694879003,None,1,0.6851311760001408,2020.677694879003,None,130,2021.3795966819998,None,132,A,1,2021_May_28_1624,GazeFlow,2020.1.2,59.96458347761054,
14,Block513.xls,A,13,2,81,21,21,incongruent,Right,Left,Right,38,39,1,yellow,2,6,/home/docky/apps/exp/images/38Yi.jpeg,/home/docky/apps/exp/images/39Y.jpeg,0,13,13,13,0,1,1,1,2022.381117072,None,2022.381117072,None,1,4.8768123390000255,2022.381117072,None,2027.291690479,None,2027.291690479,None,2029.7947385210027,None,2029.7947385210027,None,0.7830475249975279,2031.5985280550012,None,2031.5985280550012,None,6,1,1.2018381699999736,2032.367779526001,None,2032.367779526001,None,2032.367779526001,None,2033.5863527380025,None,1,0.6685219450009754,2033.5863527380025,None,132,2034.2711610650003,None,132,A,1,2021_May_28_1624,GazeFlow,2020.1.2,59.96458347761054,
14,Block513.xls,A,13,3,92,32,22,incongruent,Left,Right,Left,19,16,3,blue,2,5,/home/docky/apps/exp/images/19B.jpeg,/home/docky/apps/exp/images/16Bi.jpeg,0,13,13,13,0,2,2,2,2035.2729598120022,None,2035.2729598120022,None,1,4.175868702997832,2035.2729598120022,None,2039.4818320920022,None,2039.4818320920022,None,2041.9855157590027,None,2041.9855157590027,None,0.8664906119993248,2043.7878006259998,None,2043.7878006259998,None,5,1,1.0351178899982187,2044.6414771980017,None,2044.6414771980017,None,2044.6414771980017,None,2045.6931611800028,None,1,0.534908212001028,2045.6931611800028,None,134,2046.2446282630008,None,132,A,1,2021_May_28_1624,GazeFlow,2020.1.2,59.96458347761054,
14,Block513.xls,A,13,4,6,6,11,congruent,Left,Left,Right,65,66,1,blue,2,6,/home/docky/apps/exp/images/35Y.jpeg,/home/docky/apps/exp/images/66Bi.jpeg,0,13,13,13,0,3,3,3,2047.2463437719998,None,2047.2463437719998,None,1,5.0268668989992875,2047.2463437719998,None,2052.3069518360026,None,2052.3069518360026,None,2054.8103640830013,None,2054.8103640830013,None,0.9671138339981553,2056.613215518002,None,2056.613215518002,None,6,1,1.2353083419984614,2057.5667978320016,None,2057.5667978320016,None,2057.5667978320016,None,2058.818488210003,None,1,0.6853028920013458,2058.818488210003,None,136,2059.520337975002,None,132,A,1,2021_May_28_1624,GazeFlow,2020.1.2,59.96458347761054,
14,Block513.xls,A,13,5,67,7,21,incongruent,Right,Left,Right,38,39,1,blue,2,6,/home/docky/apps/exp/images/38Bi.jpeg,/home/docky/apps/exp/images/39B.jpeg,0,13,13,13,0,4,4,4,2060.522095235003,None,2060.522095235003,None,1,5.12704420099908,2060.522095235003,None,2065.6824865630006,None,2065.6824865630006,None,2068.1861456510014,None,2068.1861456510014,None,0.9000932859999011,2069.988725483003,None,2069.988725483003,None,5,0,1.118698393998784,2070.8758516710004,None,2070.8758516710004,None,2070.8758516710004,None,2072.0108392300026,None,1,0.6015722599986475,2072.0108392300026,None,134,2072.629101439001,None,132,A,1,2021_May_28_1624,GazeFlow,2020.1.2,59.96458347761054,
14,Block513.xls,A,13,6,111,51,22,incongruent,Left,Right,Left,66,65,1,yellow,2,5,/home/docky/apps/exp/images/66Yi.jpeg,/home/docky/apps/exp/images/35B.jpeg,0,13,13,13,0,5,5,5,2073.6306927940022,None,2073.6306927940022,None,1,5.344360604998656,2073.6306927940022,None,2079.0089470700004,None,2079.0089470700004,None,2081.512124459001,None,2081.512124459001,None,1.2340507869994326,2083.315213853002,None,2083.315213853002,None,5,1,1.2191878859994176,2084.5356776450026,None,2084.5356776450026,None,2084.5356776450026,None,2085.771339177001,None,1,0.6009605920007743,2085.771339177001,None,136,2086.3886118560004,None,132,A,1,2021_May_28_1624,GazeFlow,2020.1.2,59.96458347761054,
14,Block513.xls,A,13,7,88,28,21,incongruent,Right,Left,Right,79,82,3,yellow,2,6,/home/docky/apps/exp/images/79Y.jpeg,/home/docky/apps/exp/images/80Yi.jpeg,0,13,13,13,0,6,6,6,2087.390860409003,None,2087.390860409003,None,1,4.810344506000547,2087.390860409003,None,2092.234880002001,None,2092.234880002001,None,2094.7394667480003,None,2094.7394667480003,None,0.9169803149998188,2096.540931475003,None,2096.540931475003,None,5,0,1.1685533090021636,2097.4442270280015,None,2097.4442270280015,None,2097.4442270280015,None,2098.62915968,None,1,0.5516688319985406,2098.62915968,None,134,2099.197295350001,None,132,A,1,2021_May_28_1624,GazeFlow,2020.1.2,59.96458347761054,
14,Block513.xls,A,13,8,14,14,11,congruent,Left,Left,Right,80,83,3,blue,2,6,/home/docky/apps/exp/images/80B.jpeg,/home/docky/apps/exp/images/83Bi.jpeg,0,13,13,13,0,7,7,7,2100.198971634003,None,2100.198971634003,None,1,5.678379545999633,2100.198971634003,None,2105.911182025,None,2105.911182025,None,2108.414560739002,None,2108.414560739002,None,0.8498777839995455,2110.2129638780025,None,2110.2129638780025,None,6,1,1.3527636640028504,2111.0539872370027,None,2111.0539872370027,None,2111.0539872370027,None,2112.4226087220013,None,1,0.9348996690023341,2112.4226087220013,None,136,2113.374573923,None,132,A,1,2021_May_28_1624,GazeFlow,2020.1.2,59.96458347761054,
14,Block513.xls,A,,,,,,,,,,,,,,,,,,0,13,13,13,,,,,,,,,,,,,,,,,,,,,,,,,,,,,,,,,,,,,,,,,,,,132,A,1,2021_May_28_1624,GazeFlow,2020.1.2,59.96458347761054,
15,Block514.xls,A,14,1,113,53,22,incongruent,Left,Right,Left,75,69,6,yellow,2,5,/home/docky/apps/exp/images/76Y.jpeg,/home/docky/apps/exp/images/69Yi.jpeg,0,14,14,14,0,0,0,0,2133.164704883002,None,2133.164704883002,None,1,5.215443534998485,2133.164704883002,None,2138.4086643230003,None,2138.4086643230003,None,2140.929160210002,None,2140.929160210002,None,0.8826260050009296,2142.732503139003,None,2142.732503139003,None,5,1,1.084858324000379,2143.6005777650025,None,2143.6005777650025,None,2143.6005777650025,None,2144.702065567002,None,1,0.6188641619992268,2144.702065567002,None,138,2145.3370790010013,None,132,A,1,2021_May_28_1624,GazeFlow,2020.1.2,59.96458347761054,
15,Block514.xls,A,14,2,45,45,12,congruent,Right,Right,Left,39,38,1,blue,2,5,/home/docky/apps/exp/images/39B.jpeg,/home/docky/apps/exp/images/38Bi.jpeg,0,14,14,14,0,1,1,1,2146.3385444410014,None,2146.3385444410014,None,1,5.4109549969980435,2146.3385444410014,None,2151.7831591700015,None,2151.7831591700015,None,2154.2881749750013,None,2154.2881749750013,None,0.8660805639992759,2156.086045701002,None,2156.086045701002,None,5,1,1.2517261819994019,2156.943217226002,None,2156.943217226002,None,2156.943217226002,None,2158.211575043002,None,1,0.7687426280026557,2158.211575043002,None,140,2158.9961597550027,None,132,A,1,2021_May_28_1624,GazeFlow,2020.1.2,59.96458347761054,
15,Block514.xls,A,14,3,52,52,12,congruent,Right,Right,Left,75,69,6,yellow,2,5,/home/docky/apps/exp/images/76Y.jpeg,/home/docky/apps/exp/images/69Yi.jpeg,0,14,14,14,0,2,2,2,2159.9981801050017,None,2159.9981801050017,None,1,5.645217785000568,2159.9981801050017,None,2165.675495653002,None,2165.675495653002,None,2168.1800188140005,None,2168.1800188140005,None,0.7495713370008161,2169.9831448920013,None,2169.9831448920013,None,5,1,1.1849336369996308,2170.719916152,None,2170.719916152,None,2170.719916152,None,2171.9214384260013,None,1,0.6348008099994331,2171.9214384260013,None,142,2172.5728310330014,None,132,A,1,2021_May_28_1624,GazeFlow,2020.1.2,59.96458347761054,
15,Block514.xls,A,14,4,106,46,22,incongruent,Left,Right,Left,35,33,2,yellow,2,5,/home/docky/apps/exp/images/35Yi.jpeg,/home/docky/apps/exp/images/33Y.jpeg,0,14,14,14,0,3,3,3,2173.574943227002,None,2173.574943227002,None,1,6.580022033002024,2173.574943227002,None,2180.188803330002,None,2180.188803330002,None,2182.693361796002,None,2182.693361796002,None,1.0668448159995023,2184.495285230001,None,2184.495285230001,None,5,1,1.1188059340020118,2185.548583791002,None,2185.548583791002,None,2185.548583791002,None,2186.6834579640017,None,1,0.6355135789999622,2186.6834579640017,None,144,2187.3352676400027,None,132,A,1,2021_May_28_1624,GazeFlow,2020.1.2,59.96458347761054,
15,Block514.xls,A,14,5,109,49,22,incongruent,Left,Right,Left,39,38,1,yellow,2,5,/home/docky/apps/exp/images/39Yi.jpeg,/home/docky/apps/exp/images/38Y.jpeg,0,14,14,14,0,4,4,4,2188.3368203550017,None,2188.3368203550017,None,1,6.18038413999966,2188.3368203550017,None,2194.5503527200017,None,2194.5503527200017,None,2197.0532307680005,None,2197.0532307680005,None,1.0671915659986553,2198.8554831690017,None,2198.8554831690017,None,5,1,1.13562705500226,2199.9096870950016,None,2199.9096870950016,None,2199.9096870950016,None,2201.061559691003,None,1,1.052100586999586,2201.061559691003,None,146,2202.130218862003,None,132,A,1,2021_May_28_1624,GazeFlow,2020.1.2,59.96458347761054,
15,Block514.xls,A,14,6,89,29,21,incongruent,Right,Left,Right,79,82,3,yellow,2,6,/home/docky/apps/exp/images/79Yi.jpeg,/home/docky/apps/exp/images/80Y.jpeg,0,14,14,14,0,5,5,5,2203.1321132390003,None,2203.1321132390003,None,1,5.144427188999543,2203.1321132390003,None,2208.310014665003,None,2208.310014665003,None,2210.8156650420024,None,2210.8156650420024,None,1.3341490120001254,2212.616817035003,None,2212.616817035003,None,6,1,1.419905145001394,2213.937084004003,None,2213.937084004003,None,2213.937084004003,None,2215.3730312760017,None,1,0.7680038399994373,2215.3730312760017,None,148,2216.1574472110005,None,132,A,1,2021_May_28_1624,GazeFlow,2020.1.2,59.96458347761054,
15,Block514.xls,A,14,7,91,31,22,incongruent,Left,Right,Left,19,16,3,blue,2,5,/home/docky/apps/exp/images/19Bi.jpeg,/home/docky/apps/exp/images/16B.jpeg,0,14,14,14,0,6,6,6,2217.159523196002,None,2217.159523196002,None,1,4.910085647999949,2217.159523196002,None,2222.1013469340032,None,2222.1013469340032,None,2224.606627770001,None,2224.606627770001,None,0.9333553930009657,2226.4099898470013,None,2226.4099898470013,None,5,1,1.2521455140013131,2227.329592647002,None,2227.329592647002,None,2227.329592647002,None,2228.5984023970013,None,1,0.6511381400014216,2228.5984023970013,None,150,2229.2662812260023,None,132,A,1,2021_May_28_1624,GazeFlow,2020.1.2,59.96458347761054,
15,Block514.xls,A,14,8,79,19,21,incongruent,Right,Left,Right,62,65,3,yellow,2,6,/home/docky/apps/exp/images/38B.jpeg,/home/docky/apps/exp/images/35Bi.jpeg,0,14,14,14,0,7,7,7,2230.2689739680027,None,2230.2689739680027,None,1,5.026636288999725,2230.2689739680027,None,2235.328801439002,None,2235.328801439002,None,2237.832236479,None,2237.832236479,None,1.8852180850008153,2239.635890313002,None,2239.635890313002,None,5,0,1.1346347559992864,2241.507434230003,None,2241.507434230003,None,2241.507434230003,None,2242.6588408550015,None,1,0.6178385240018542,2242.6588408550015,None,148,2243.2932690529997,None,132,A,1,2021_May_28_1624,GazeFlow,2020.1.2,59.96458347761054,
15,Block514.xls,A,,,,,,,,,,,,,,,,,,0,14,14,14,,,,,,,,,,,,,,,,,,,,,,,,,,,,,,,,,,,,,,,,,,,,132,A,1,2021_May_28_1624,GazeFlow,2020.1.2,59.96458347761054,
