Nblock,condsFile,grouping,Block,TrialBlock,N,trialN,trialCond,gazeCon,gazedirR,corrBinR,corrBinP,valLBY,valRBY,diff,colorCube,feedbacktext,corrAns,imageL,imageR,SelBlocks.thisRepN,SelBlocks.thisTrialN,SelBlocks.thisN,SelBlocks.thisIndex,Trials.thisRepN,Trials.thisTrialN,Trials.thisN,Trials.thisIndex,waitCube.started,waitCube.stopped,text_3.started,text_3.stopped,StartKeyPress.keys,StartKeyPress.rt,StartKeyPress.started,StartKeyPress.stopped,StimL.started,StimL.stopped,StimR.started,StimR.stopped,imageStim2L.started,imageStim2L.stopped,imageStim2R.started,imageStim2R.stopped,RTkeyRelease,imageStim3L.started,imageStim3L.stopped,imageStim3R.started,imageStim3R.stopped,dropResp.keys,dropResp.corr,dropResp.rt,dropResp.started,dropResp.stopped,imageStim5L.started,imageStim5L.stopped,imageStim5R.started,imageStim5R.stopped,text_2.started,text_2.stopped,ReturnSpace.keys,ReturnSpace.rt,ReturnSpace.started,ReturnSpace.stopped,totalpoints,textFeedback.started,textFeedback.stopped,participant,group,session,date,expName,psychopyVersion,frameRate,
1,Block809.xls,B,9,1,93,93,None,congruent,Right,Right,Left,80,79,1,yellow,2,5,/home/docky/apps/exp/images/80Y.jpeg,/home/docky/apps/exp/images/79Yi.jpeg,0,0,0,0,0,0,0,0,92.26774781100175,None,92.26774781100175,None,1,3.1602002539984824,92.26774781100175,None,95.4598429760008,None,95.4598429760008,None,97.97829977700167,None,97.97829977700167,None,7.629538851000689,99.78204192500198,None,99.78204192500198,None,5,1,11.536905695000314,107.41395617000308,None,107.41395617000308,None,107.41395617000308,None,118.96710305600209,None,1,1.7373712869994051,118.96710305600209,None,2,120.72075753300305,None,133,B,1,2021_May_28_1754,GazeFlow,2020.1.2,59.85569868441462,
1,Block809.xls,B,9,2,15,15,None,congruent,Left,Left,Right,38,39,1,blue,2,6,/home/docky/apps/exp/images/38B.jpeg,/home/docky/apps/exp/images/39Bi.jpeg,0,0,0,0,0,1,1,1,121.72273619100088,None,121.72273619100088,None,1,5.009966699999495,121.72273619100088,None,126.76643140200031,None,126.76643140200031,None,129.27143995799997,None,129.27143995799997,None,0.5993999749989598,131.07318261100227,None,131.07318261100227,None,6,1,4.409426293997967,131.65856686900224,None,131.65856686900224,None,131.65856686900224,None,136.08382805800284,None,1,0.8188536279994878,136.08382805800284,None,4,136.91892062600164,None,133,B,1,2021_May_28_1754,GazeFlow,2020.1.2,59.85569868441462,
1,Block809.xls,B,9,3,117,21,None,incongruent,Left,Right,Left,39,38,1,yellow,2,5,/home/docky/apps/exp/images/39Yi.jpeg,/home/docky/apps/exp/images/38Y.jpeg,0,0,0,0,0,2,2,2,137.92086168000242,None,137.92086168000242,None,1,4.759944378001819,137.92086168000242,None,142.7141453510012,None,142.7141453510012,None,145.21904435800025,None,145.21904435800025,None,0.18250243000147748,147.02023462500074,None,147.02023462500074,None,5,1,6.016670265998982,147.20075185800306,None,147.20075185800306,None,147.20075185800306,None,153.23389996600235,None,1,1.0693873829986842,153.23389996600235,None,6,154.3191448840007,None,133,B,1,2021_May_28_1754,GazeFlow,2020.1.2,59.85569868441462,
1,Block809.xls,B,9,4,94,94,None,congruent,Right,Right,Left,80,79,1,yellow,2,5,/home/docky/apps/exp/images/80Y.jpeg,/home/docky/apps/exp/images/79Yi.jpeg,0,0,0,0,0,3,3,3,155.32144453,None,155.32144453,None,1,4.909646439002245,155.32144453,None,160.26490072700108,None,160.26490072700108,None,162.76830728900313,None,162.76830728900313,None,1.1502543639981013,164.56680081700324,None,164.56680081700324,None,5,1,1.687028663000092,165.70831192200058,None,165.70831192200058,None,165.70831192200058,None,167.41153242099972,None,1,0.8845910170020943,167.41153242099972,None,8,168.3126907500009,None,133,B,1,2021_May_28_1754,GazeFlow,2020.1.2,59.85569868441462,
1,Block809.xls,B,9,5,41,41,None,congruent,Right,Right,Left,79,76,3,blue,2,5,/home/docky/apps/exp/images/79Bi.jpeg,/home/docky/apps/exp/images/76B.jpeg,0,0,0,0,0,4,4,4,169.3149547130015,None,169.3149547130015,None,1,4.776819211998372,169.3149547130015,None,174.12522903500212,None,174.12522903500212,None,176.62849039600042,None,176.62849039600042,None,1.1340738239996426,178.42626472100164,None,178.42626472100164,None,6,0,3.372682806002558,179.55206830600218,None,179.55206830600218,None,179.55206830600218,None,182.94107896200148,None,1,0.7192143729989766,182.94107896200148,None,6,183.67630921900127,None,133,B,1,2021_May_28_1754,GazeFlow,2020.1.2,59.85569868441462,
1,Block809.xls,B,9,6,36,36,None,congruent,Right,Right,Left,79,73,6,blue,2,5,/home/docky/apps/exp/images/79Bi.jpeg,/home/docky/apps/exp/images/73B.jpeg,0,0,0,0,0,5,5,5,184.67809794700224,None,184.67809794700224,None,1,3.9414716589999443,184.67809794700224,None,188.6517033150012,None,188.6517033150012,None,191.1583321370017,None,191.1583321370017,None,1.8853852120009833,192.9601509580025,None,192.9601509580025,None,5,1,1.7026978310022969,194.83171350200064,None,194.83171350200064,None,194.83171350200064,None,196.55093547700017,None,1,0.8190804929981823,196.55093547700017,None,8,197.38614104500084,None,133,B,1,2021_May_28_1754,GazeFlow,2020.1.2,59.85569868441462,
1,Block809.xls,B,9,7,78,78,None,congruent,Right,Right,Left,39,38,1,yellow,2,5,/home/docky/apps/exp/images/39Yi.jpeg,/home/docky/apps/exp/images/38Y.jpeg,0,0,0,0,0,6,6,6,198.38835546300106,None,198.38835546300106,None,1,5.494434216998343,198.38835546300106,None,203.9199358270016,None,203.9199358270016,None,206.41927641200164,None,206.41927641200164,None,2.26941553800134,208.22457410900097,None,208.22457410900097,None,5,1,1.6364185249985894,210.47839966200263,None,210.47839966200263,None,210.47839966200263,None,212.1311598350003,None,1,0.7017680419994576,212.1311598350003,None,10,212.84967250400223,None,133,B,1,2021_May_28_1754,GazeFlow,2020.1.2,59.85569868441462,
1,Block809.xls,B,9,8,29,29,None,congruent,Right,Right,Left,38,35,3,blue,2,5,/home/docky/apps/exp/images/38B.jpeg,/home/docky/apps/exp/images/35Bi.jpeg,0,0,0,0,0,7,7,7,213.85147828200206,None,213.85147828200206,None,1,4.793566083997575,213.85147828200206,None,218.67870500100253,None,218.67870500100253,None,221.18180945700078,None,221.18180945700078,None,2.454284833998827,222.96996939400196,None,222.96996939400196,None,5,1,1.7855053769999358,225.44151223399967,None,225.44151223399967,None,225.44151223399967,None,227.24409900600222,None,1,0.7686142060010752,227.24409900600222,None,12,228.0292386300025,None,133,B,1,2021_May_28_1754,GazeFlow,2020.1.2,59.85569868441462,
1,Block809.xls,B,,,,,,,,,,,,,,,,,,0,0,0,0,,,,,,,,,,,,,,,,,,,,,,,,,,,,,,,,,,,,,,,,,,,,133,B,1,2021_May_28_1754,GazeFlow,2020.1.2,59.85569868441462,
2,Block805.xls,B,5,1,16,16,None,congruent,Left,Left,Right,73,76,3,blue,2,6,/home/docky/apps/exp/images/73B.jpeg,/home/docky/apps/exp/images/76Bi.jpeg,0,1,1,1,0,0,0,0,250.29054243000064,None,250.29054243000064,None,1,5.481280341999081,250.29054243000064,None,255.80518069600294,None,255.80518069600294,None,258.32215298899973,None,258.32215298899973,None,2.034809518001566,260.1257404150019,None,260.1257404150019,None,6,1,1.519232948001445,262.145557672,None,262.145557672,None,262.145557672,None,263.68143663500086,None,1,0.7515407549981319,263.68143663500086,None,14,264.4499394100021,None,133,B,1,2021_May_28_1754,GazeFlow,2020.1.2,59.85569868441462,
2,Block805.xls,B,5,2,2,2,None,congruent,Left,Left,Right,16,19,3,blue,2,6,/home/docky/apps/exp/images/16B.jpeg,/home/docky/apps/exp/images/19Bi.jpeg,0,1,1,1,0,1,1,1,265.45190958400053,None,265.45190958400053,None,1,4.308978371998819,265.45190958400053,None,269.79431011400084,None,269.79431011400084,None,272.29726330999983,None,272.29726330999983,None,2.3025195189984515,274.10082333000173,None,274.10082333000173,None,6,1,1.4857884890006972,276.3899941840027,None,276.3899941840027,None,276.3899941840027,None,277.8925071170015,None,1,0.8181682020003791,277.8925071170015,None,16,278.7275009090008,None,133,B,1,2021_May_28_1754,GazeFlow,2020.1.2,59.85569868441462,
2,Block805.xls,B,5,3,64,64,None,congruent,Left,Left,Right,69,76,7,yellow,2,6,/home/docky/apps/exp/images/69Y.jpeg,/home/docky/apps/exp/images/76Yi.jpeg,0,1,1,1,0,2,2,2,279.7297031449998,None,279.7297031449998,None,1,3.3733912969983066,279.7297031449998,None,283.1364806900019,None,283.1364806900019,None,285.63991497400275,None,285.63991497400275,None,3.0713007410013233,287.4373889140006,None,287.4373889140006,None,5,0,2.338275887999771,290.5166070100022,None,290.5166070100022,None,290.5166070100022,None,292.8720266670025,None,1,0.7018881410003814,292.8720266670025,None,14,293.58987494900066,None,133,B,1,2021_May_28_1754,GazeFlow,2020.1.2,59.85569868441462,
2,Block805.xls,B,5,4,61,61,None,congruent,Left,Left,Right,38,39,1,yellow,2,6,/home/docky/apps/exp/images/38Yi.jpeg,/home/docky/apps/exp/images/39Y.jpeg,0,1,1,1,0,3,3,3,294.591884843001,None,294.591884843001,None,1,4.375379034998332,294.591884843001,None,299.00242327300293,None,299.00242327300293,None,301.50443750400154,None,301.50443750400154,None,11.55429999199987,303.30730435400255,None,303.30730435400255,None,6,1,0.3496536250022473,314.86621501000263,None,314.86621501000263,None,314.86621501000263,None,315.23111604600126,None,1,1.8371144359989557,315.23111604600126,None,16,317.0849158689998,None,133,B,1,2021_May_28_1754,GazeFlow,2020.1.2,59.85569868441462,
2,Block805.xls,B,5,5,23,23,None,congruent,Left,Left,Right,80,83,3,blue,2,6,/home/docky/apps/exp/images/80B.jpeg,/home/docky/apps/exp/images/83Bi.jpeg,0,1,1,1,0,4,4,4,318.0875050400027,None,318.0875050400027,None,1,4.842906525002036,318.0875050400027,None,322.965879247,None,322.965879247,None,325.46734147900133,None,325.46734147900133,None,10.66919831099949,327.2724779110031,None,327.2724779110031,None,6,1,2.588186149001558,337.94352929100205,None,337.94352929100205,None,337.94352929100205,None,340.54772309700274,None,1,1.5031798959971638,340.54772309700274,None,18,342.06709424800283,None,133,B,1,2021_May_28_1754,GazeFlow,2020.1.2,59.85569868441462,
2,Block805.xls,B,5,6,87,87,None,congruent,Right,Right,Left,76,69,7,yellow,2,5,/home/docky/apps/exp/images/76Yi.jpeg,/home/docky/apps/exp/images/69Y.jpeg,0,1,1,1,0,5,5,5,343.0692434110024,None,343.0692434110024,None,1,5.594462699002179,343.0692434110024,None,348.6976103050001,None,348.6976103050001,None,351.20234729799995,None,351.20234729799995,None,3.0049429869977757,353.0036188410013,None,353.0036188410013,None,5,1,3.341121485998883,356.0100949150001,None,356.0100949150001,None,356.0100949150001,None,359.36763445900215,None,1,1.5034465479984647,359.36763445900215,None,20,360.88732954400257,None,133,B,1,2021_May_28_1754,GazeFlow,2020.1.2,59.85569868441462,
2,Block805.xls,B,5,7,4,4,None,congruent,Left,Left,Right,35,38,3,blue,2,6,/home/docky/apps/exp/images/35B.jpeg,/home/docky/apps/exp/images/38Bi.jpeg,0,1,1,1,0,6,6,6,361.8892292570017,None,361.8892292570017,None,1,4.058314191999671,361.8892292570017,None,365.985203147,None,365.985203147,None,368.488142688002,None,368.488142688002,None,3.705991658996936,370.2878000359997,None,370.2878000359997,None,6,1,1.8872845669975504,373.99532472400097,None,373.99532472400097,None,373.99532472400097,None,375.8992587770008,None,1,1.0531848079990596,375.8992587770008,None,22,376.96844483800305,None,133,B,1,2021_May_28_1754,GazeFlow,2020.1.2,59.85569868441462,
2,Block805.xls,B,5,8,114,18,None,incongruent,Right,Left,Right,79,82,3,yellow,2,6,/home/docky/apps/exp/images/79Y.jpeg,/home/docky/apps/exp/images/80Yi.jpeg,0,1,1,1,0,7,7,7,377.9704740690031,None,377.9704740690031,None,1,4.475594031999208,377.9704740690031,None,382.47982929000136,None,382.47982929000136,None,384.98316801200053,None,384.98316801200053,None,3.622398019000684,386.7882091490028,None,386.7882091490028,None,6,1,2.822020600997348,390.41194492900104,None,390.41194492900104,None,390.41194492900104,None,393.2500516470027,None,1,0.8018256249997648,393.2500516470027,None,24,394.06837816100233,None,133,B,1,2021_May_28_1754,GazeFlow,2020.1.2,59.85569868441462,
2,Block805.xls,B,,,,,,,,,,,,,,,,,,0,1,1,1,,,,,,,,,,,,,,,,,,,,,,,,,,,,,,,,,,,,,,,,,,,,133,B,1,2021_May_28_1754,GazeFlow,2020.1.2,59.85569868441462,
3,Block804.xls,B,4,1,95,95,None,congruent,Right,Right,Left,80,79,1,yellow,2,5,/home/docky/apps/exp/images/80Yi.jpeg,/home/docky/apps/exp/images/79Y.jpeg,0,2,2,2,0,0,0,0,424.8638034830001,None,424.8638034830001,None,1,14.30175178799982,424.8638034830001,None,439.19369113799985,None,439.19369113799985,None,441.7103155390032,None,441.7103155390032,None,2.6867090750019997,443.5084856520007,None,443.5084856520007,None,6,0,2.3547285460008425,446.2034288470022,None,446.2034288470022,None,446.2034288470022,None,448.57421960099964,None,1,0.9185875610019139,448.57421960099964,None,22,449.5093563139999,None,133,B,1,2021_May_28_1754,GazeFlow,2020.1.2,59.85569868441462,
3,Block804.xls,B,4,2,107,11,None,incongruent,Left,Right,Left,83,80,3,blue,2,5,/home/docky/apps/exp/images/83Bi.jpeg,/home/docky/apps/exp/images/80B.jpeg,0,2,2,2,0,1,1,1,450.5113609070031,None,450.5113609070031,None,1,3.67401265800072,450.5113609070031,None,454.2191587260022,None,454.2191587260022,None,456.72407231500256,None,456.72407231500256,None,4.307105461000901,458.5214339840022,None,458.5214339840022,None,6,0,1.6356477909976093,462.8357074380001,None,462.8357074380001,None,462.8357074380001,None,464.4881596970008,None,1,1.336394456000562,464.4881596970008,None,20,465.841086694003,None,133,B,1,2021_May_28_1754,GazeFlow,2020.1.2,59.85569868441462,
3,Block804.xls,B,4,3,27,27,None,congruent,Right,Right,Left,19,16,3,blue,2,5,/home/docky/apps/exp/images/19Bi.jpeg,/home/docky/apps/exp/images/16B.jpeg,0,2,2,2,0,2,2,2,466.84322829899975,None,466.84322829899975,None,1,4.158152034000523,466.84322829899975,None,471.035325416,None,471.035325416,None,473.5382479930013,None,473.5382479930013,None,2.202431114998035,475.3418743720031,None,475.3418743720031,None,5,1,1.268645744999958,477.53064574900054,None,477.53064574900054,None,477.53064574900054,None,478.815782990001,None,1,1.0694243389989424,478.815782990001,None,22,479.9016731789998,None,133,B,1,2021_May_28_1754,GazeFlow,2020.1.2,59.85569868441462,
3,Block804.xls,B,4,4,101,5,None,incongruent,Right,Left,Right,76,79,3,blue,2,6,/home/docky/apps/exp/images/76B.jpeg,/home/docky/apps/exp/images/79Bi.jpeg,0,2,2,2,0,3,3,3,480.9035178930026,None,480.9035178930026,None,1,3.323497301997122,480.9035178930026,None,484.2607598499999,None,484.2607598499999,None,486.7635337660031,None,486.7635337660031,None,2.420163169997977,488.5620307870013,None,488.5620307870013,None,5,0,1.2848133229999803,490.9905700550007,None,490.9905700550007,None,490.9905700550007,None,492.29201070800264,None,1,0.6516311310006131,492.29201070800264,None,20,492.9600990700019,None,133,B,1,2021_May_28_1754,GazeFlow,2020.1.2,59.85569868441462,
3,Block804.xls,B,4,5,47,47,None,congruent,Right,Right,Left,39,38,1,blue,2,5,/home/docky/apps/exp/images/39Bi.jpeg,/home/docky/apps/exp/images/38B.jpeg,0,2,2,2,0,4,4,4,493.96239396900273,None,493.96239396900273,None,1,4.108734948000347,493.96239396900273,None,498.10439482900256,None,498.10439482900256,None,500.613881037003,None,500.613881037003,None,2.6705448100001377,502.4055645560002,None,502.4055645560002,None,5,1,1.2848468950032839,505.08472144500047,None,505.08472144500047,None,505.08472144500047,None,506.38608733100045,None,1,0.6682832730002701,506.38608733100045,None,22,507.0704665640005,None,133,B,1,2021_May_28_1754,GazeFlow,2020.1.2,59.85569868441462,
3,Block804.xls,B,4,6,90,90,None,congruent,Right,Right,Left,77,72,5,yellow,2,5,/home/docky/apps/exp/images/77Yi.jpeg,/home/docky/apps/exp/images/72Y.jpeg,0,2,2,2,0,5,5,5,508.07313187399996,None,508.07313187399996,None,1,4.759754533999512,508.07313187399996,None,512.8663146460021,None,512.8663146460021,None,515.3695626770022,None,515.3695626770022,None,2.051966066002933,517.1741974190008,None,517.1741974190008,None,5,1,1.252487576999556,519.2114026600029,None,519.2114026600029,None,519.2114026600029,None,520.4799837680002,None,1,0.634759797998413,520.4799837680002,None,24,521.1315487060019,None,133,B,1,2021_May_28_1754,GazeFlow,2020.1.2,59.85569868441462,
3,Block804.xls,B,4,7,12,12,None,congruent,Left,Left,Right,38,39,1,blue,2,6,/home/docky/apps/exp/images/38B.jpeg,/home/docky/apps/exp/images/39Bi.jpeg,0,2,2,2,0,6,6,6,522.1339223800023,None,522.1339223800023,None,1,4.075101500999153,522.1339223800023,None,526.2422225830014,None,526.2422225830014,None,528.7470724270024,None,528.7470724270024,None,2.60394427799838,530.5441914809999,None,530.5441914809999,None,6,1,1.2510045950002677,533.1560653630004,None,533.1560653630004,None,533.1560653630004,None,534.4240712360006,None,1,0.6847064280009363,534.4240712360006,None,26,535.1252977010008,None,133,B,1,2021_May_28_1754,GazeFlow,2020.1.2,59.85569868441462,
3,Block804.xls,B,4,8,20,20,None,congruent,Left,Left,Right,76,79,3,blue,2,6,/home/docky/apps/exp/images/76Bi.jpeg,/home/docky/apps/exp/images/79B.jpeg,0,2,2,2,0,7,7,7,536.1276311680012,None,536.1276311680012,None,1,3.340079533998505,536.1276311680012,None,539.5024948770006,None,539.5024948770006,None,542.0064925040024,None,542.0064925040024,None,2.419995206997555,543.8084046820004,None,543.8084046820004,None,6,1,1.5187686249992112,546.2146017900013,None,546.2146017900013,None,546.2146017900013,None,547.749752871001,None,1,0.784910915997898,547.749752871001,None,28,548.5518943429997,None,133,B,1,2021_May_28_1754,GazeFlow,2020.1.2,59.85569868441462,
3,Block804.xls,B,,,,,,,,,,,,,,,,,,0,2,2,2,,,,,,,,,,,,,,,,,,,,,,,,,,,,,,,,,,,,,,,,,,,,133,B,1,2021_May_28_1754,GazeFlow,2020.1.2,59.85569868441462,
4,Block814.xls,B,14,1,99,3,None,incongruent,Right,Left,Right,65,66,1,blue,2,6,/home/docky/apps/exp/images/35Yi.jpeg,/home/docky/apps/exp/images/66B.jpeg,0,3,3,3,0,0,0,0,567.6569227120017,None,567.6569227120017,None,1,6.634215633999702,567.6569227120017,None,574.3209654090024,None,574.3209654090024,None,576.840688389002,None,576.840688389002,None,2.569680762000644,578.644224341002,None,578.644224341002,None,6,1,1.6519062540028244,581.2160410780016,None,581.2160410780016,None,581.2160410780016,None,582.8845030500015,None,1,0.7860148130021116,582.8845030500015,None,30,583.6865778970023,None,133,B,1,2021_May_28_1754,GazeFlow,2020.1.2,59.85569868441462,
4,Block814.xls,B,14,2,34,34,None,congruent,Right,Right,Left,66,65,1,blue,2,5,/home/docky/apps/exp/images/66B.jpeg,/home/docky/apps/exp/images/35Yi.jpeg,0,3,3,3,0,1,1,1,584.6886732230014,None,584.6886732230014,None,1,3.55702462300178,584.6886732230014,None,588.2794533300003,None,588.2794533300003,None,590.7840767200032,None,590.7840767200032,None,1.7182839199995215,592.5837394190021,None,592.5837394190021,None,5,1,1.0522019199997885,594.2908838040021,None,594.2908838040021,None,594.2908838040021,None,595.3592800930019,None,1,0.9013031319991569,595.3592800930019,None,32,596.2774640470016,None,133,B,1,2021_May_28_1754,GazeFlow,2020.1.2,59.85569868441462,
4,Block814.xls,B,14,3,91,91,None,congruent,Right,Right,Left,77,72,5,yellow,2,5,/home/docky/apps/exp/images/77Yi.jpeg,/home/docky/apps/exp/images/72Y.jpeg,0,3,3,3,0,2,2,2,597.2797977910013,None,597.2797977910013,None,1,2.7889772309972614,597.2797977910013,None,600.102503975002,None,600.102503975002,None,602.6071763200016,None,602.6071763200016,None,2.537005975998909,604.4035085739997,None,604.4035085739997,None,5,1,1.2532694410001568,606.947162454002,None,606.947162454002,None,606.947162454002,None,608.2173562580028,None,1,0.5850715020023927,608.2173562580028,None,34,608.8189054840004,None,133,B,1,2021_May_28_1754,GazeFlow,2020.1.2,59.85569868441462,
4,Block814.xls,B,14,4,68,68,None,congruent,Left,Left,Right,72,77,5,yellow,2,6,/home/docky/apps/exp/images/72Yi.jpeg,/home/docky/apps/exp/images/77Y.jpeg,0,3,3,3,0,3,3,3,609.8208074790018,None,609.8208074790018,None,1,3.0729237659979844,609.8208074790018,None,612.9275400879997,None,612.9275400879997,None,615.4302552110021,None,615.4302552110021,None,2.7708471630030544,617.2333812940014,None,617.2333812940014,None,6,1,1.167872621997958,620.0079570570015,None,620.0079570570015,None,620.0079570570015,None,621.1924186450015,None,1,0.8854921599995578,621.1924186450015,None,36,622.0943444660006,None,133,B,1,2021_May_28_1754,GazeFlow,2020.1.2,59.85569868441462,
4,Block814.xls,B,14,5,66,66,None,congruent,Left,Left,Right,69,76,7,yellow,2,6,/home/docky/apps/exp/images/69Yi.jpeg,/home/docky/apps/exp/images/76Y.jpeg,0,3,3,3,0,4,4,4,623.0964838430009,None,623.0964838430009,None,1,2.571961937999731,623.0964838430009,None,625.7023520220027,None,625.7023520220027,None,628.2051180240014,None,628.2051180240014,None,2.921088144998066,630.0083905000029,None,630.0083905000029,None,6,1,1.4683880760021566,632.9334819310025,None,632.9334819310025,None,632.9334819310025,None,634.4179683710026,None,1,0.6682825860007142,634.4179683710026,None,38,635.1030271050004,None,133,B,1,2021_May_28_1754,GazeFlow,2020.1.2,59.85569868441462,
4,Block814.xls,B,14,6,115,19,None,incongruent,Left,Right,Left,80,79,1,yellow,2,5,/home/docky/apps/exp/images/80Yi.jpeg,/home/docky/apps/exp/images/79Y.jpeg,0,3,3,3,0,5,5,5,636.1051702950026,None,636.1051702950026,None,1,2.9058398039996973,636.1051702950026,None,639.0471316190014,None,639.0471316190014,None,641.548371562003,None,641.548371562003,None,2.4700133460028155,643.3517727550025,None,643.3517727550025,None,5,1,1.8189308170003642,645.8082889430007,None,645.8082889430007,None,645.8082889430007,None,647.6440211570007,None,1,0.6350013689989282,647.6440211570007,None,40,648.2955402460029,None,133,B,1,2021_May_28_1754,GazeFlow,2020.1.2,59.85569868441462,
4,Block814.xls,B,14,7,9,9,None,congruent,Left,Left,Right,65,66,1,blue,2,6,/home/docky/apps/exp/images/35Yi.jpeg,/home/docky/apps/exp/images/66B.jpeg,0,3,3,3,0,6,6,6,649.2975245990019,None,649.2975245990019,None,1,3.957828121001512,649.2975245990019,None,653.2890986800012,None,653.2890986800012,None,655.7924966160026,None,655.7924966160026,None,2.3693533219993697,657.5936554450018,None,657.5936554450018,None,6,1,1.152043253001466,659.9515172669999,None,659.9515172669999,None,659.9515172669999,None,661.1198213690004,None,1,0.7353937180014327,661.1198213690004,None,42,661.871752367002,None,133,B,1,2021_May_28_1754,GazeFlow,2020.1.2,59.85569868441462,
4,Block814.xls,B,14,8,14,14,None,congruent,Left,Left,Right,38,39,1,blue,2,6,/home/docky/apps/exp/images/38Bi.jpeg,/home/docky/apps/exp/images/39B.jpeg,0,3,3,3,0,7,7,7,662.8737650370022,None,662.8737650370022,None,1,12.040940408998722,662.8737650370022,None,674.9479836490027,None,674.9479836490027,None,677.4511398130016,None,677.4511398130016,None,2.2689590490008413,679.2548364710019,None,679.2548364710019,None,5,0,3.4564835539968044,681.510218434003,None,681.510218434003,None,681.510218434003,None,684.983417626001,None,1,0.6684443849990203,684.983417626001,None,40,685.6680404159997,None,133,B,1,2021_May_28_1754,GazeFlow,2020.1.2,59.85569868441462,
4,Block814.xls,B,,,,,,,,,,,,,,,,,,0,3,3,3,,,,,,,,,,,,,,,,,,,,,,,,,,,,,,,,,,,,,,,,,,,,133,B,1,2021_May_28_1754,GazeFlow,2020.1.2,59.85569868441462,
5,Block812.xls,B,12,1,18,18,None,congruent,Left,Left,Right,73,76,3,blue,2,6,/home/docky/apps/exp/images/73B.jpeg,/home/docky/apps/exp/images/76Bi.jpeg,0,4,4,4,0,0,0,0,708.6482000970027,None,708.6482000970027,None,1,3.9135696809971705,708.6482000970027,None,712.582249795003,None,712.582249795003,None,715.1134926280029,None,715.1134926280029,None,2.051507180000044,716.9129990580004,None,716.9129990580004,None,5,0,1.4022563889993762,718.9495915260013,None,718.9495915260013,None,718.9495915260013,None,720.3684080190033,None,1,0.7016795890012872,720.3684080190033,None,38,721.0866025290015,None,133,B,1,2021_May_28_1754,GazeFlow,2020.1.2,59.85569868441462,
5,Block812.xls,B,12,2,3,3,None,congruent,Left,Left,Right,16,19,3,blue,2,6,/home/docky/apps/exp/images/16Bi.jpeg,/home/docky/apps/exp/images/19B.jpeg,0,4,4,4,0,1,1,1,722.0887916510001,None,722.0887916510001,None,1,3.9579911930013623,722.0887916510001,None,726.0805657440033,None,726.0805657440033,None,728.5877289820019,None,728.5877289820019,None,2.219258635999722,730.3820199690017,None,730.3820199690017,None,6,1,1.4355937729997095,732.5926142820026,None,732.5926142820026,None,732.5926142820026,None,734.0451012150006,None,1,0.8682561690002331,734.0451012150006,None,40,734.9298283950011,None,133,B,1,2021_May_28_1754,GazeFlow,2020.1.2,59.85569868441462,
5,Block812.xls,B,12,3,56,56,None,congruent,Left,Left,Right,62,65,3,yellow,2,6,/home/docky/apps/exp/images/38Bi.jpeg,/home/docky/apps/exp/images/35B.jpeg,0,4,4,4,0,2,2,2,735.9323195409997,None,735.9323195409997,None,1,2.572315964000154,735.9323195409997,None,738.5398876800027,None,738.5398876800027,None,741.0414569690001,None,741.0414569690001,None,2.971258145997126,742.844249283,None,742.844249283,None,6,1,1.8692607199991471,745.8187593510011,None,745.8187593510011,None,745.8187593510011,None,747.7048838430019,None,1,0.8021555820014328,747.7048838430019,None,42,748.5234221360006,None,133,B,1,2021_May_28_1754,GazeFlow,2020.1.2,59.85569868441462,
5,Block812.xls,B,12,4,11,11,None,congruent,Left,Left,Right,38,39,1,blue,2,6,/home/docky/apps/exp/images/38B.jpeg,/home/docky/apps/exp/images/39Bi.jpeg,0,4,4,4,0,3,3,3,749.5254486230006,None,749.5254486230006,None,1,2.2048810590022185,749.5254486230006,None,751.7638463520016,None,751.7638463520016,None,754.268708237003,None,754.268708237003,None,3.6890737020003144,756.0715636810019,None,756.0715636810019,None,6,1,3.7898223109987157,759.7630411080027,None,759.7630411080027,None,759.7630411080027,None,763.5692005620003,None,1,0.7188430479982344,763.5692005620003,None,44,764.3040784760015,None,133,B,1,2021_May_28_1754,GazeFlow,2020.1.2,59.85569868441462,
5,Block812.xls,B,12,5,116,20,None,incongruent,Left,Right,Left,35,33,2,yellow,2,5,/home/docky/apps/exp/images/35Yi.jpeg,/home/docky/apps/exp/images/33Y.jpeg,0,4,4,4,0,4,4,4,765.3060376840003,None,765.3060376840003,None,1,3.3402129860005516,765.3060376840003,None,768.6783668000026,None,768.6783668000026,None,771.1843255140011,None,771.1843255140011,None,2.7373233800026355,772.9883220060001,None,772.9883220060001,None,5,1,1.3682891249991371,775.7270294450027,None,775.7270294450027,None,775.7270294450027,None,777.1120532130008,None,1,0.5013264759982121,777.1120532130008,None,46,777.6295519390005,None,133,B,1,2021_May_28_1754,GazeFlow,2020.1.2,59.85569868441462,
5,Block812.xls,B,12,6,40,40,None,congruent,Right,Right,Left,79,76,3,blue,2,5,/home/docky/apps/exp/images/79Bi.jpeg,/home/docky/apps/exp/images/76B.jpeg,0,4,4,4,0,5,5,5,778.6319893060027,None,778.6319893060027,None,1,4.19166912700166,778.6319893060027,None,782.857600874002,None,782.857600874002,None,785.3623405200015,None,785.3623405200015,None,2.4700489710012334,787.165513056003,None,787.165513056003,None,5,1,1.4181345849974605,789.6206634750015,None,789.6206634750015,None,789.6206634750015,None,791.0555066000015,None,1,0.4341485400000238,791.0555066000015,None,48,791.5068090109999,None,133,B,1,2021_May_28_1754,GazeFlow,2020.1.2,59.85569868441462,
5,Block812.xls,B,12,7,76,76,None,congruent,Right,Right,Left,39,38,1,yellow,2,5,/home/docky/apps/exp/images/39Yi.jpeg,/home/docky/apps/exp/images/38Y.jpeg,0,4,4,4,0,6,6,6,792.5090019380004,None,792.5090019380004,None,1,3.122750165999605,792.5090019380004,None,795.6656027660028,None,795.6656027660028,None,798.1689612549999,None,798.1689612549999,None,2.6537983720008924,799.9723853230025,None,799.9723853230025,None,5,1,3.876097052998375,802.6269795770022,None,802.6269795770022,None,802.6269795770022,None,806.5195272810015,None,1,0.48446770499867853,806.5195272810015,None,50,807.0204592770024,None,133,B,1,2021_May_28_1754,GazeFlow,2020.1.2,59.85569868441462,
5,Block812.xls,B,12,8,77,77,None,congruent,Right,Right,Left,39,38,1,yellow,2,5,/home/docky/apps/exp/images/39Y.jpeg,/home/docky/apps/exp/images/38Yi.jpeg,0,4,4,4,0,7,7,7,808.0225472500024,None,808.0225472500024,None,1,4.876269817999855,808.0225472500024,None,812.9326799800001,None,812.9326799800001,None,815.436172544003,None,815.436172544003,None,2.737318976000097,817.2396213860011,None,817.2396213860011,None,6,0,3.2076350370007276,819.9778502870031,None,819.9778502870031,None,819.9778502870031,None,823.2017731030028,None,1,0.5012965180030733,823.2017731030028,None,48,823.7194880940006,None,133,B,1,2021_May_28_1754,GazeFlow,2020.1.2,59.85569868441462,
5,Block812.xls,B,,,,,,,,,,,,,,,,,,0,4,4,4,,,,,,,,,,,,,,,,,,,,,,,,,,,,,,,,,,,,,,,,,,,,133,B,1,2021_May_28_1754,GazeFlow,2020.1.2,59.85569868441462,
6,Block803.xls,B,3,1,84,84,None,congruent,Right,Right,Left,75,69,6,yellow,2,5,/home/docky/apps/exp/images/76Yi.jpeg,/home/docky/apps/exp/images/69Y.jpeg,0,5,5,5,0,0,0,0,842.6941982040007,None,842.6941982040007,None,1,3.9758855250001943,842.6941982040007,None,846.7023544420008,None,846.7023544420008,None,849.2195234550018,None,849.2195234550018,None,2.0519739970004593,851.0217356860012,None,851.0217356860012,None,5,1,1.235594055000547,853.0600827260023,None,853.0600827260023,None,853.0600827260023,None,854.3117435230015,None,1,0.5516624420015432,854.3117435230015,None,50,854.8798379660002,None,133,B,1,2021_May_28_1754,GazeFlow,2020.1.2,59.85569868441462,
6,Block803.xls,B,3,2,82,82,None,congruent,Right,Right,Left,66,65,1,yellow,2,5,/home/docky/apps/exp/images/66Y.jpeg,/home/docky/apps/exp/images/35Bi.jpeg,0,5,5,5,0,1,1,1,855.8820511370031,None,855.8820511370031,None,1,3.356992373999674,855.8820511370031,None,859.276481156001,None,859.276481156001,None,861.7756032710022,None,861.7756032710022,None,1.9186235489978571,863.5762704780027,None,863.5762704780027,None,5,1,1.3356209050034522,865.4841531430029,None,865.4841531430029,None,865.4841531430029,None,866.8359609780018,None,1,0.38462163600343047,866.8359609780018,None,52,867.2370279019997,None,133,B,1,2021_May_28_1754,GazeFlow,2020.1.2,59.85569868441462,
6,Block803.xls,B,3,3,80,80,None,congruent,Right,Right,Left,66,65,1,yellow,2,5,/home/docky/apps/exp/images/66Yi.jpeg,/home/docky/apps/exp/images/35B.jpeg,0,5,5,5,0,2,2,2,868.2394403270009,None,868.2394403270009,None,1,3.3071005470010277,868.2394403270009,None,871.5815884940021,None,871.5815884940021,None,874.0825832490009,None,874.0825832490009,None,2.7038558589993045,875.8860446180006,None,875.8860446180006,None,6,0,2.771734344998549,878.5935672850028,None,878.5935672850028,None,878.5935672850028,None,881.3815353090031,None,1,0.4511146530021506,881.3815353090031,None,50,881.8491475010014,None,133,B,1,2021_May_28_1754,GazeFlow,2020.1.2,59.85569868441462,
6,Block803.xls,B,3,4,79,79,None,congruent,Right,Right,Left,66,65,1,yellow,2,5,/home/docky/apps/exp/images/66Y.jpeg,/home/docky/apps/exp/images/35Bi.jpeg,0,5,5,5,0,3,3,3,882.8511375690032,None,882.8511375690032,None,1,2.9726014580010087,882.8511375690032,None,885.8576193160006,None,885.8576193160006,None,888.3604547600007,None,888.3604547600007,None,2.03549233800004,890.1639653010025,None,890.1639653010025,None,5,1,1.5862391789996764,892.1859621380027,None,892.1859621380027,None,892.1859621380027,None,893.7884977180001,None,1,0.5010517970004003,893.7884977180001,None,52,894.3064076730006,None,133,B,1,2021_May_28_1754,GazeFlow,2020.1.2,59.85569868441462,
6,Block803.xls,B,3,5,92,92,None,congruent,Right,Right,Left,77,72,5,yellow,2,5,/home/docky/apps/exp/images/77Y.jpeg,/home/docky/apps/exp/images/72Yi.jpeg,0,5,5,5,0,4,4,4,895.3086651830017,None,895.3086651830017,None,1,3.524021969999012,895.3086651830017,None,898.8662181450018,None,898.8662181450018,None,901.369453653002,None,901.369453653002,None,1.9352125080004043,903.172226734001,None,903.172226734001,None,5,1,1.4024644490018545,905.0944976440005,None,905.0944976440005,None,905.0944976440005,None,906.513385991002,None,1,0.43409608399815625,906.513385991002,None,54,906.9640575129997,None,133,B,1,2021_May_28_1754,GazeFlow,2020.1.2,59.85569868441462,
6,Block803.xls,B,3,6,106,10,None,incongruent,Left,Right,Left,79,76,3,blue,2,5,/home/docky/apps/exp/images/79Bi.jpeg,/home/docky/apps/exp/images/76B.jpeg,0,5,5,5,0,5,5,5,907.9667045170027,None,907.9667045170027,None,1,3.4240099099988583,907.9667045170027,None,911.4238220680018,None,911.4238220680018,None,913.9287739580031,None,913.9287739580031,None,2.4367005179992702,915.7297700970012,None,915.7297700970012,None,6,0,1.702668898000411,918.1537743100016,None,918.1537743100016,None,918.1537743100016,None,919.8726538080009,None,1,0.6182508940000844,919.8726538080009,None,52,920.5073815160031,None,133,B,1,2021_May_28_1754,GazeFlow,2020.1.2,59.85569868441462,
6,Block803.xls,B,3,7,25,25,None,congruent,Right,Right,Left,19,16,3,blue,2,5,/home/docky/apps/exp/images/19Bi.jpeg,/home/docky/apps/exp/images/16B.jpeg,0,5,5,5,0,6,6,6,921.5095544070027,None,921.5095544070027,None,1,2.589067230997898,921.5095544070027,None,924.1319800790006,None,924.1319800790006,None,926.6367097180009,None,926.6367097180009,None,1.601075642000069,928.4339705040002,None,928.4339705040002,None,5,1,1.5693389240004763,930.0261318400007,None,930.0261318400007,None,930.0261318400007,None,931.6120729890026,None,1,0.5510299880006642,931.6120729890026,None,54,932.1798604720025,None,133,B,1,2021_May_28_1754,GazeFlow,2020.1.2,59.85569868441462,
6,Block803.xls,B,3,8,46,46,None,congruent,Right,Right,Left,39,38,1,blue,2,5,/home/docky/apps/exp/images/39B.jpeg,/home/docky/apps/exp/images/38Bi.jpeg,0,5,5,5,0,7,7,7,933.1821528600012,None,933.1821528600012,None,1,5.728550350002479,933.1821528600012,None,938.9438544510012,None,938.9438544510012,None,941.4471470890021,None,941.4471470890021,None,2.6539295030015637,943.2494416640002,None,943.2494416640002,None,5,1,1.60224409500006,945.9072785450007,None,945.9072785450007,None,945.9072785450007,None,947.5262377569998,None,1,0.40091287099858164,947.5262377569998,None,56,947.9442540500022,None,133,B,1,2021_May_28_1754,GazeFlow,2020.1.2,59.85569868441462,
6,Block803.xls,B,,,,,,,,,,,,,,,,,,0,5,5,5,,,,,,,,,,,,,,,,,,,,,,,,,,,,,,,,,,,,,,,,,,,,133,B,1,2021_May_28_1754,GazeFlow,2020.1.2,59.85569868441462,
7,Block810.xls,B,10,1,119,23,None,incongruent,Left,Right,Left,76,69,7,yellow,2,5,/home/docky/apps/exp/images/76Yi.jpeg,/home/docky/apps/exp/images/69Y.jpeg,0,6,6,6,0,0,0,0,970.1889549560001,None,970.1889549560001,None,1,3.3976576999993995,970.1889549560001,None,973.612578471002,None,973.612578471002,None,976.1329596550022,None,976.1329596550022,None,2.6866206859995145,977.9364818310023,None,977.9364818310023,None,5,1,1.618927491002978,980.6250271680001,None,980.6250271680001,None,980.6250271680001,None,982.2603349620003,None,1,0.40129299399995944,982.2603349620003,None,58,982.6776995370019,None,133,B,1,2021_May_28_1754,GazeFlow,2020.1.2,59.85569868441462,
7,Block810.xls,B,10,2,43,43,None,congruent,Right,Right,Left,83,80,3,blue,2,5,/home/docky/apps/exp/images/83B.jpeg,/home/docky/apps/exp/images/80Bi.jpeg,0,6,6,6,0,1,1,1,983.6798948340002,None,983.6798948340002,None,1,3.4075336230016546,983.6798948340002,None,987.1211604160017,None,987.1211604160017,None,989.6242402380012,None,989.6242402380012,None,1.852022063001641,991.4218134440016,None,991.4218134440016,None,5,1,0.8851357349994942,993.2657842139997,None,993.2657842139997,None,993.2657842139997,None,994.1671191100031,None,1,0.40055961399775697,994.1671191100031,None,60,994.5842323760007,None,133,B,1,2021_May_28_1754,GazeFlow,2020.1.2,59.85569868441462,
7,Block810.xls,B,10,3,53,53,None,congruent,Left,Left,Right,65,66,1,yellow,2,6,/home/docky/apps/exp/images/35Bi.jpeg,/home/docky/apps/exp/images/66Y.jpeg,0,6,6,6,0,2,2,2,995.5863904870021,None,995.5863904870021,None,1,4.09191834000012,995.5863904870021,None,999.7120700650012,None,999.7120700650012,None,1002.2153965290017,None,1002.2153965290017,None,3.104608981000638,1004.0202883950005,None,1004.0202883950005,None,6,1,1.8027547210003831,1007.1266084400013,None,1007.1266084400013,None,1007.1266084400013,None,1008.945457799,None,1,0.38424893200135557,1008.945457799,None,62,1009.346313299,None,133,B,1,2021_May_28_1754,GazeFlow,2020.1.2,59.85569868441462,
7,Block810.xls,B,10,4,74,74,None,congruent,Right,Right,Left,35,33,2,yellow,2,5,/home/docky/apps/exp/images/35Y.jpeg,/home/docky/apps/exp/images/33Yi.jpeg,0,6,6,6,0,3,3,3,1010.3489436320015,None,1010.3489436320015,None,1,3.657125597997947,1010.3489436320015,None,1014.0399420659996,None,1014.0399420659996,None,1016.5447716100025,None,1016.5447716100025,None,3.021259660999931,1018.3466347940011,None,1018.3466347940011,None,5,1,1.921070548996795,1021.3692640000008,None,1021.3692640000008,None,1021.3692640000008,None,1023.3067312870007,None,1,0.38489074899916886,1023.3067312870007,None,64,1023.7075948940001,None,133,B,1,2021_May_28_1754,GazeFlow,2020.1.2,59.85569868441462,
7,Block810.xls,B,10,5,21,21,None,congruent,Left,Left,Right,76,79,3,blue,2,6,/home/docky/apps/exp/images/76B.jpeg,/home/docky/apps/exp/images/79Bi.jpeg,0,6,6,6,0,4,4,4,1024.7099499210017,None,1024.7099499210017,None,1,3.423558733997197,1024.7099499210017,None,1028.1674064790022,None,1028.1674064790022,None,1030.6720018220003,None,1030.6720018220003,None,3.154896068001108,1032.4683637300004,None,1032.4683637300004,None,5,0,1.7356726519974472,1035.6320344570013,None,1035.6320344570013,None,1035.6320344570013,None,1037.384277717003,None,1,0.3849404049979057,1037.384277717003,None,62,1037.785370726,None,133,B,1,2021_May_28_1754,GazeFlow,2020.1.2,59.85569868441462,
7,Block810.xls,B,10,6,85,85,None,congruent,Right,Right,Left,75,69,6,yellow,2,5,/home/docky/apps/exp/images/76Y.jpeg,/home/docky/apps/exp/images/69Yi.jpeg,0,6,6,6,0,5,5,5,1038.7873388300031,None,1038.7873388300031,None,1,3.340543226997397,1038.7873388300031,None,1042.1626983820024,None,1042.1626983820024,None,1044.6645093050029,None,1044.6645093050029,None,2.0188942439999664,1046.4619808320022,None,1046.4619808320022,None,5,1,1.368571171999065,1048.4729915000025,None,1048.4729915000025,None,1048.4729915000025,None,1049.8581260520004,None,1,0.40155077899908065,1049.8581260520004,None,64,1050.275652039003,None,133,B,1,2021_May_28_1754,GazeFlow,2020.1.2,59.85569868441462,
7,Block810.xls,B,10,7,49,49,None,congruent,Left,Left,Right,33,35,2,yellow,2,6,/home/docky/apps/exp/images/33Yi.jpeg,/home/docky/apps/exp/images/35Y.jpeg,0,6,6,6,0,6,6,6,1051.2782416340015,None,1051.2782416340015,None,1,3.240872174999822,1051.2782416340015,None,1054.5519120770005,None,1054.5519120770005,None,1057.05484642,None,1057.05484642,None,2.2858599849969323,1058.8579260100014,None,1058.8579260100014,None,5,0,1.3852700730021752,1061.1310194230027,None,1061.1310194230027,None,1061.1310194230027,None,1062.5330398240003,None,1,0.36779278200265253,1062.5330398240003,None,62,1062.9170455950007,None,133,B,1,2021_May_28_1754,GazeFlow,2020.1.2,59.85569868441462,
7,Block810.xls,B,10,8,63,63,None,congruent,Left,Left,Right,38,39,1,yellow,2,6,/home/docky/apps/exp/images/38Y.jpeg,/home/docky/apps/exp/images/39Yi.jpeg,0,6,6,6,0,7,7,7,1063.9195573360012,None,1063.9195573360012,None,1,3.490770677999535,1063.9195573360012,None,1067.443559026,None,1067.443559026,None,1069.9480307250014,None,1069.9480307250014,None,2.3528724989992043,1071.7502099890007,None,1071.7502099890007,None,5,0,1.902882235001016,1074.0896549190002,None,1074.0896549190002,None,1074.0896549190002,None,1076.009147085002,None,1,0.4513138849979441,1076.009147085002,None,60,1076.4771104460015,None,133,B,1,2021_May_28_1754,GazeFlow,2020.1.2,59.85569868441462,
7,Block810.xls,B,,,,,,,,,,,,,,,,,,0,6,6,6,,,,,,,,,,,,,,,,,,,,,,,,,,,,,,,,,,,,,,,,,,,,133,B,1,2021_May_28_1754,GazeFlow,2020.1.2,59.85569868441462,
8,Block801.xls,B,1,1,1,1,None,congruent,Left,Left,Right,16,19,3,blue,2,6,/home/docky/apps/exp/images/16Bi.jpeg,/home/docky/apps/exp/images/19B.jpeg,0,7,7,7,0,0,0,0,1096.7685079290022,None,1096.7685079290022,None,1,3.443132971002342,1096.7685079290022,None,1100.2371143170021,None,1100.2371143170021,None,1102.7604994050016,None,1102.7604994050016,None,3.1041203280001355,1104.558727849002,None,1104.558727849002,None,6,1,1.686138432000007,1107.6719437810025,None,1107.6719437810025,None,1107.6719437810025,None,1109.374265362003,None,1,0.551424876000965,1109.374265362003,None,62,1109.9421110870026,None,133,B,1,2021_May_28_1754,GazeFlow,2020.1.2,59.85569868441462,
8,Block801.xls,B,1,2,105,9,None,incongruent,Left,Right,Left,79,73,6,blue,2,5,/home/docky/apps/exp/images/79B.jpeg,/home/docky/apps/exp/images/73Bi.jpeg,0,7,7,7,0,1,1,1,1110.9440597950015,None,1110.9440597950015,None,1,2.806196526998974,1110.9440597950015,None,1113.7836989940006,None,1113.7836989940006,None,1116.2885125350003,None,1116.2885125350003,None,1.751351375998638,1118.0903614119998,None,1118.0903614119998,None,5,1,1.3018081019981764,1119.8282750150029,None,1119.8282750150029,None,1119.8282750150029,None,1121.146788279002,None,1,0.4674767159995099,1121.146788279002,None,64,1121.6311029880017,None,133,B,1,2021_May_28_1754,GazeFlow,2020.1.2,59.85569868441462,
8,Block801.xls,B,1,3,62,62,None,congruent,Left,Left,Right,38,39,1,yellow,2,6,/home/docky/apps/exp/images/38Y.jpeg,/home/docky/apps/exp/images/39Yi.jpeg,0,7,7,7,0,2,2,2,1122.6330005620002,None,1122.6330005620002,None,1,3.6076995440016617,1122.6330005620002,None,1126.2731073260002,None,1126.2731073260002,None,1128.7794345430011,None,1128.7794345430011,None,2.285796248001134,1130.5788495530032,None,1130.5788495530032,None,6,1,0.8344094439999026,1132.8535163710003,None,1132.8535163710003,None,1132.8535163710003,None,1133.704388858001,None,1,0.4009388439990289,1133.704388858001,None,66,1134.121982374003,None,133,B,1,2021_May_28_1754,GazeFlow,2020.1.2,59.85569868441462,
8,Block801.xls,B,1,4,38,38,None,congruent,Right,Right,Left,79,73,6,blue,2,5,/home/docky/apps/exp/images/79B.jpeg,/home/docky/apps/exp/images/73Bi.jpeg,0,7,7,7,0,3,3,3,1135.1237272040016,None,1135.1237272040016,None,1,3.541533764997439,1135.1237272040016,None,1138.6972476480005,None,1138.6972476480005,None,1141.2036184240023,None,1141.2036184240023,None,2.0352621899983205,1143.0047983330005,None,1143.0047983330005,None,5,1,1.1852431490005984,1145.0271888150019,None,1145.0271888150019,None,1145.0271888150019,None,1146.228787737,None,1,0.45103720299812267,1146.228787737,None,68,1146.6965133840022,None,133,B,1,2021_May_28_1754,GazeFlow,2020.1.2,59.85569868441462,
8,Block801.xls,B,1,5,6,6,None,congruent,Left,Left,Right,35,38,3,blue,2,6,/home/docky/apps/exp/images/35Bi.jpeg,/home/docky/apps/exp/images/38B.jpeg,0,7,7,7,0,4,4,4,1147.6988342530021,None,1147.6988342530021,None,1,3.824779070000659,1147.6988342530021,None,1151.5569590680025,None,1151.5569590680025,None,1154.0597490810032,None,1154.0597490810032,None,3.071369818000676,1155.8633500970027,None,1155.8633500970027,None,6,1,1.7022459049985628,1158.9379979330006,None,1158.9379979330006,None,1158.9379979330006,None,1160.6572805230026,None,1,0.3842568539985223,1160.6572805230026,None,70,1161.0578994610005,None,133,B,1,2021_May_28_1754,GazeFlow,2020.1.2,59.85569868441462,
8,Block801.xls,B,1,6,51,51,None,congruent,Left,Left,Right,33,35,2,yellow,2,6,/home/docky/apps/exp/images/33Yi.jpeg,/home/docky/apps/exp/images/35Y.jpeg,0,7,7,7,0,5,5,5,1162.0600546830028,None,1162.0600546830028,None,1,3.9082285650001722,1162.0600546830028,None,1166.0016385840026,None,1166.0016385840026,None,1168.5050470120004,None,1168.5050470120004,None,2.987952209998184,1170.3079421170005,None,1170.3079421170005,None,5,0,2.773086017001333,1173.2975370170025,None,1173.2975370170025,None,1173.2975370170025,None,1176.0874163730005,None,1,0.46778626699961023,1176.0874163730005,None,68,1176.5714357180004,None,133,B,1,2021_May_28_1754,GazeFlow,2020.1.2,59.85569868441462,
8,Block801.xls,B,1,7,73,73,None,congruent,Right,Right,Left,35,33,2,yellow,2,5,/home/docky/apps/exp/images/35Yi.jpeg,/home/docky/apps/exp/images/33Y.jpeg,0,7,7,7,0,6,6,6,1177.5735223670017,None,1177.5735223670017,None,1,3.6071692059995257,1177.5735223670017,None,1181.2147563310027,None,1181.2147563310027,None,1183.719449223001,None,1183.719449223001,None,2.219353320000664,1185.5159931840026,None,1185.5159931840026,None,5,1,1.1519012159988051,1187.7266372720005,None,1187.7266372720005,None,1187.7266372720005,None,1188.8950439220025,None,1,0.36765837599887163,1188.8950439220025,None,70,1189.2794894710023,None,133,B,1,2021_May_28_1754,GazeFlow,2020.1.2,59.85569868441462,
8,Block801.xls,B,1,8,96,96,None,congruent,Right,Right,Left,80,79,1,yellow,2,5,/home/docky/apps/exp/images/80Yi.jpeg,/home/docky/apps/exp/images/79Y.jpeg,0,7,7,7,0,7,7,7,1190.281534001002,None,1190.281534001002,None,1,4.0085099110001465,1190.281534001002,None,1194.323903366003,None,1194.323903366003,None,1196.8262902860006,None,1196.8262902860006,None,2.085602759001631,1198.6301717650022,None,1198.6301717650022,None,5,1,0.8023017999985314,1200.7019305579997,None,1200.7019305579997,None,1200.7019305579997,None,1201.5199717820033,None,1,0.4170512439995946,1201.5199717820033,None,72,1201.9538735720016,None,133,B,1,2021_May_28_1754,GazeFlow,2020.1.2,59.85569868441462,
8,Block801.xls,B,,,,,,,,,,,,,,,,,,0,7,7,7,,,,,,,,,,,,,,,,,,,,,,,,,,,,,,,,,,,,,,,,,,,,133,B,1,2021_May_28_1754,GazeFlow,2020.1.2,59.85569868441462,
9,Block802.xls,B,2,1,30,30,None,congruent,Right,Right,Left,38,35,3,blue,2,5,/home/docky/apps/exp/images/38B.jpeg,/home/docky/apps/exp/images/35Bi.jpeg,0,8,8,8,0,0,0,0,1223.6478854100023,None,1223.6478854100023,None,1,3.613705469000706,1223.6478854100023,None,1227.2837282850014,None,1227.2837282850014,None,1229.8092098600027,None,1229.8092098600027,None,2.0182227109980886,1231.610508490001,None,1231.610508490001,None,5,1,1.0679928899990045,1233.6159853400022,None,1233.6159853400022,None,1233.6159853400022,None,1234.700998239001,None,1,0.36697175600056653,1234.700998239001,None,74,1235.0847827690013,None,133,B,1,2021_May_28_1754,GazeFlow,2020.1.2,59.85569868441462,
9,Block802.xls,B,2,2,5,5,None,congruent,Left,Left,Right,35,38,3,blue,2,6,/home/docky/apps/exp/images/35B.jpeg,/home/docky/apps/exp/images/38Bi.jpeg,0,8,8,8,0,1,1,1,1236.0871746150005,None,1236.0871746150005,None,1,3.173052745998575,1236.0871746150005,None,1239.292648306,None,1239.292648306,None,1241.8015635650008,None,1241.8015635650008,None,1.6012499649987149,1243.600701866002,None,1243.600701866002,None,6,1,1.2528531130010379,1245.1883241510004,None,1245.1883241510004,None,1245.1883241510004,None,1246.4573331620013,None,1,0.400213562999852,1246.4573331620013,None,76,1246.874142779001,None,133,B,1,2021_May_28_1754,GazeFlow,2020.1.2,59.85569868441462,
9,Block802.xls,B,2,3,103,7,None,incongruent,Left,Right,Left,19,16,3,blue,2,5,/home/docky/apps/exp/images/19Bi.jpeg,/home/docky/apps/exp/images/16B.jpeg,0,8,8,8,0,2,2,2,1247.8763990780026,None,1247.8763990780026,None,1,3.424482304999401,1247.8763990780026,None,1251.3326610720032,None,1251.3326610720032,None,1253.8373378590004,None,1253.8373378590004,None,2.018901891002315,1255.6404708310001,None,1255.6404708310001,None,5,1,1.1516784510022262,1257.6459553540008,None,1257.6459553540008,None,1257.6459553540008,None,1258.8141341750015,None,1,0.4176761360031378,1258.8141341750015,None,78,1259.248503619001,None,133,B,1,2021_May_28_1754,GazeFlow,2020.1.2,59.85569868441462,
9,Block802.xls,B,2,4,35,35,None,congruent,Right,Right,Left,66,65,1,blue,2,5,/home/docky/apps/exp/images/66B.jpeg,/home/docky/apps/exp/images/35Yi.jpeg,0,8,8,8,0,3,3,3,1260.250637426001,None,1260.250637426001,None,1,3.223901000001206,1260.250637426001,None,1263.5082224240032,None,1263.5082224240032,None,1266.012101796001,None,1266.012101796001,None,2.2695267949966365,1267.8140440380012,None,1267.8140440380012,None,5,1,1.3353370760014514,1270.070062496001,None,1270.070062496001,None,1270.070062496001,None,1271.4219985480013,None,1,0.45093562200054293,1271.4219985480013,None,80,1271.889714156001,None,133,B,1,2021_May_28_1754,GazeFlow,2020.1.2,59.85569868441462,
9,Block802.xls,B,2,5,42,42,None,congruent,Right,Right,Left,83,80,3,blue,2,5,/home/docky/apps/exp/images/83Bi.jpeg,/home/docky/apps/exp/images/80B.jpeg,0,8,8,8,0,4,4,4,1272.8919941120002,None,1272.8919941120002,None,1,3.0228107910006656,1272.8919941120002,None,1275.948525171003,None,1275.948525171003,None,1278.4519476340029,None,1278.4519476340029,None,2.052417309998418,1280.2554038190028,None,1280.2554038190028,None,5,1,0.8014718029990036,1282.2938017060005,None,1282.2938017060005,None,1282.2938017060005,None,1283.1118152840027,None,1,0.38352950400076224,1283.1118152840027,None,82,1283.5123721420023,None,133,B,1,2021_May_28_1754,GazeFlow,2020.1.2,59.85569868441462,
9,Block802.xls,B,2,6,104,8,None,incongruent,Left,Right,Left,38,35,3,blue,2,5,/home/docky/apps/exp/images/38B.jpeg,/home/docky/apps/exp/images/35Bi.jpeg,0,8,8,8,0,5,5,5,1284.5138858400023,None,1284.5138858400023,None,1,3.3078683910025575,1284.5138858400023,None,1287.8551583710032,None,1287.8551583710032,None,1290.359925128003,None,1290.359925128003,None,3.4385047420000774,1292.161051195002,None,1292.161051195002,None,6,0,5.98012278600072,1295.6015450220002,None,1295.6015450220002,None,1295.6015450220002,None,1301.5977727820027,None,1,0.5345881180001015,1301.5977727820027,None,80,1302.148822823001,None,133,B,1,2021_May_28_1754,GazeFlow,2020.1.2,59.85569868441462,
9,Block802.xls,B,2,7,22,22,None,congruent,Left,Left,Right,80,83,3,blue,2,6,/home/docky/apps/exp/images/80Bi.jpeg,/home/docky/apps/exp/images/83B.jpeg,0,8,8,8,0,6,6,6,1303.1508359840009,None,1303.1508359840009,None,1,3.106723871998838,1303.1508359840009,None,1306.2908466020017,None,1306.2908466020017,None,1308.794278589001,None,1308.794278589001,None,1.985475180001231,1310.5992525220026,None,1310.5992525220026,None,6,1,1.3187317119991349,1312.5692727640017,None,1312.5692727640017,None,1312.5692727640017,None,1313.9044609379998,None,1,0.9859405530005461,1313.9044609379998,None,82,1314.906559533003,None,133,B,1,2021_May_28_1754,GazeFlow,2020.1.2,59.85569868441462,
9,Block802.xls,B,2,8,54,54,None,congruent,Left,Left,Right,65,66,1,yellow,2,6,/home/docky/apps/exp/images/35Bi.jpeg,/home/docky/apps/exp/images/66Y.jpeg,0,8,8,8,0,7,7,7,1315.908910405,None,1315.908910405,None,1,3.975142801999027,1315.908910405,None,1319.917504156001,None,1319.917504156001,None,1322.4206221090026,None,1322.4206221090026,None,2.252463840999553,1324.2239567409997,None,1324.2239567409997,None,6,1,1.7027146750006068,1326.4629649800008,None,1326.4629649800008,None,1326.4629649800008,None,1328.1825566630032,None,1,0.4508600449989899,1328.1825566630032,None,84,1328.6498714090012,None,133,B,1,2021_May_28_1754,GazeFlow,2020.1.2,59.85569868441462,
9,Block802.xls,B,,,,,,,,,,,,,,,,,,0,8,8,8,,,,,,,,,,,,,,,,,,,,,,,,,,,,,,,,,,,,,,,,,,,,133,B,1,2021_May_28_1754,GazeFlow,2020.1.2,59.85569868441462,
10,Block813.xls,B,13,1,70,70,None,congruent,Left,Left,Right,79,82,3,yellow,2,6,/home/docky/apps/exp/images/79Yi.jpeg,/home/docky/apps/exp/images/80Y.jpeg,0,9,9,9,0,0,0,0,1349.3284633440016,None,1349.3284633440016,None,1,2.9262872250001237,1349.3284633440016,None,1352.2812114240005,None,1352.2812114240005,None,1354.801679712,None,1354.801679712,None,1.8512056050021783,1356.6053235649997,None,1356.6053235649997,None,6,1,1.4859022450000339,1358.441839995001,None,1358.441839995001,None,1358.441839995001,None,1359.9440120780018,None,1,0.5011791959987022,1359.9440120780018,None,86,1360.4618959580002,None,133,B,1,2021_May_28_1754,GazeFlow,2020.1.2,59.85569868441462,
10,Block813.xls,B,13,2,60,60,None,congruent,Left,Left,Right,38,39,1,yellow,2,6,/home/docky/apps/exp/images/38Yi.jpeg,/home/docky/apps/exp/images/39Y.jpeg,0,9,9,9,0,1,1,1,1361.4640636479999,None,1361.4640636479999,None,1,3.5238091409992194,1361.4640636479999,None,1365.021529157002,None,1365.021529157002,None,1367.5245227860032,None,1367.5245227860032,None,3.5233609579991025,1369.3129668680012,None,1369.3129668680012,None,5,0,3.6897446129987657,1372.853704817,None,1372.853704817,None,1372.853704817,None,1376.5600000699997,None,1,0.46834603500246885,1376.5600000699997,None,84,1377.044246698002,None,133,B,1,2021_May_28_1754,GazeFlow,2020.1.2,59.85569868441462,
10,Block813.xls,B,13,3,81,81,None,congruent,Right,Right,Left,66,65,1,yellow,2,5,/home/docky/apps/exp/images/66Y.jpeg,/home/docky/apps/exp/images/35Bi.jpeg,0,9,9,9,0,2,2,2,1378.046311707003,None,1378.046311707003,None,1,3.239855620999151,1378.046311707003,None,1381.3200585640006,None,1381.3200585640006,None,1383.8248696750015,None,1383.8248696750015,None,1.93541520099825,1385.6282199380003,None,1385.6282199380003,None,5,1,2.170488971998566,1387.5482185399997,None,1387.5482185399997,None,1387.5482185399997,None,1389.7352744880009,None,1,0.6183827739987464,1389.7352744880009,None,86,1390.3701507639998,None,133,B,1,2021_May_28_1754,GazeFlow,2020.1.2,59.85569868441462,
10,Block813.xls,B,13,4,110,14,None,incongruent,Right,Left,Right,65,66,1,yellow,2,6,/home/docky/apps/exp/images/35B.jpeg,/home/docky/apps/exp/images/66Yi.jpeg,0,9,9,9,0,3,3,3,1391.3721388070007,None,1391.3721388070007,None,1,2.989364180000848,1391.3721388070007,None,1394.3952506770001,None,1394.3952506770001,None,1396.898489721003,None,1396.898489721003,None,3.5723037860007025,1398.7012905530028,None,1398.7012905530028,None,6,1,1.8040731589971983,1402.2758029409997,None,1402.2758029409997,None,1402.2758029409997,None,1404.0963291820008,None,1,0.36781362400142825,1404.0963291820008,None,88,1404.480826320003,None,133,B,1,2021_May_28_1754,GazeFlow,2020.1.2,59.85569868441462,
10,Block813.xls,B,13,5,17,17,None,congruent,Left,Left,Right,73,76,3,blue,2,6,/home/docky/apps/exp/images/73Bi.jpeg,/home/docky/apps/exp/images/76B.jpeg,0,9,9,9,0,4,4,4,1405.482930784001,None,1405.482930784001,None,1,3.9412177720005275,1405.482930784001,None,1409.4577706279997,None,1409.4577706279997,None,1411.962790122001,None,1411.962790122001,None,1.7849982429979718,1413.764629004003,None,1413.764629004003,None,6,1,2.037151864999032,1415.5357646500015,None,1415.5357646500015,None,1415.5357646500015,None,1417.5892437130024,None,1,0.43437748799988185,1417.5892437130024,None,90,1418.0401851150018,None,133,B,1,2021_May_28_1754,GazeFlow,2020.1.2,59.85569868441462,
10,Block813.xls,B,13,6,111,15,None,incongruent,Right,Left,Right,62,65,3,yellow,2,6,/home/docky/apps/exp/images/38B.jpeg,/home/docky/apps/exp/images/35Bi.jpeg,0,9,9,9,0,5,5,5,1419.0426463080003,None,1419.0426463080003,None,1,3.7076818970017484,1419.0426463080003,None,1422.783853543002,None,1422.783853543002,None,1425.2869905510015,None,1425.2869905510015,None,1.9353705159992387,1427.0899375770023,None,1427.0899375770023,None,5,0,1.8201388369998313,1429.012042915001,None,1429.012042915001,None,1429.012042915001,None,1430.8484871100009,None,1,0.4173586549986794,1430.8484871100009,None,88,1431.2824295520004,None,133,B,1,2021_May_28_1754,GazeFlow,2020.1.2,59.85569868441462,
10,Block813.xls,B,13,7,55,55,None,congruent,Left,Left,Right,65,66,1,yellow,2,6,/home/docky/apps/exp/images/35B.jpeg,/home/docky/apps/exp/images/66Yi.jpeg,0,9,9,9,0,6,6,6,1432.2851094010002,None,1432.2851094010002,None,1,3.6405964290024713,1432.2851094010002,None,1435.9594691010025,None,1435.9594691010025,None,1438.4628583250014,None,1438.4628583250014,None,4.056627318001119,1440.266085968,None,1440.266085968,None,5,0,2.004866684001172,1444.3238778420018,None,1444.3238778420018,None,1444.3238778420018,None,1446.3454427899997,None,1,0.35073186099907616,1446.3454427899997,None,86,1446.712915037002,None,133,B,1,2021_May_28_1754,GazeFlow,2020.1.2,59.85569868441462,
10,Block813.xls,B,13,8,26,26,None,congruent,Right,Right,Left,19,16,3,blue,2,5,/home/docky/apps/exp/images/19B.jpeg,/home/docky/apps/exp/images/16Bi.jpeg,0,9,9,9,0,7,7,7,1447.714926470002,None,1447.714926470002,None,1,3.941307400000369,1447.714926470002,None,1451.6900080030027,None,1451.6900080030027,None,1454.1926837820029,None,1454.1926837820029,None,1.167463908001082,1455.9962944810031,None,1455.9962944810031,None,5,1,1.1186631170021428,1457.1501458270031,None,1457.1501458270031,None,1457.1501458270031,None,1458.2854243560032,None,1,0.38434780500028864,1458.2854243560032,None,88,1458.6860331999997,None,133,B,1,2021_May_28_1754,GazeFlow,2020.1.2,59.85569868441462,
10,Block813.xls,B,,,,,,,,,,,,,,,,,,0,9,9,9,,,,,,,,,,,,,,,,,,,,,,,,,,,,,,,,,,,,,,,,,,,,133,B,1,2021_May_28_1754,GazeFlow,2020.1.2,59.85569868441462,
11,Block806.xls,B,6,1,10,10,None,congruent,Left,Left,Right,65,66,1,blue,2,6,/home/docky/apps/exp/images/35Y.jpeg,/home/docky/apps/exp/images/66Bi.jpeg,0,10,10,10,0,0,0,0,1479.9130871580019,None,1479.9130871580019,None,1,3.762049537999701,1479.9130871580019,None,1483.700735436003,None,1483.700735436003,None,1486.2236577360018,None,1486.2236577360018,None,2.519393852999201,1488.0272556609998,None,1488.0272556609998,None,5,0,1.3850894140014134,1490.5487056250022,None,1490.5487056250022,None,1490.5487056250022,None,1491.950699006,None,1,0.4172042239988514,1491.950699006,None,86,1492.3845794780027,None,133,B,1,2021_May_28_1754,GazeFlow,2020.1.2,59.85569868441462,
11,Block806.xls,B,6,2,89,89,None,congruent,Right,Right,Left,76,69,7,yellow,2,5,/home/docky/apps/exp/images/76Yi.jpeg,/home/docky/apps/exp/images/69Y.jpeg,0,10,10,10,0,1,1,1,1493.3870188399997,None,1493.3870188399997,None,1,3.857679034998,1493.3870188399997,None,1497.278597902001,None,1497.278597902001,None,1499.7811757830023,None,1499.7811757830023,None,1.9852673360001063,1501.5838257490032,None,1501.5838257490032,None,5,1,1.703098404002958,1503.5568227700023,None,1503.5568227700023,None,1503.5568227700023,None,1505.2761626200008,None,1,1.8713511969981482,1505.2761626200008,None,88,1507.1639149820003,None,133,B,1,2021_May_28_1754,GazeFlow,2020.1.2,59.85569868441462,
11,Block806.xls,B,6,3,88,88,None,congruent,Right,Right,Left,76,69,7,yellow,2,5,/home/docky/apps/exp/images/76Y.jpeg,/home/docky/apps/exp/images/69Yi.jpeg,0,10,10,10,0,2,2,2,1508.1659426680017,None,1508.1659426680017,None,1,3.6241952029995446,1508.1659426680017,None,1511.8289338730028,None,1511.8289338730028,None,1514.3268177280006,None,1514.3268177280006,None,1.7849914209982671,1516.1300118370018,None,1516.1300118370018,None,5,1,1.335798911000893,1517.9013415790032,None,1517.9013415790032,None,1517.9013415790032,None,1519.2534552710022,None,1,0.48440852600106155,1519.2534552710022,None,90,1519.7544494380018,None,133,B,1,2021_May_28_1754,GazeFlow,2020.1.2,59.85569868441462,
11,Block806.xls,B,6,4,109,13,None,incongruent,Right,Left,Right,33,35,2,yellow,2,6,/home/docky/apps/exp/images/33Yi.jpeg,/home/docky/apps/exp/images/35Y.jpeg,0,10,10,10,0,3,3,3,1520.756887251002,None,1520.756887251002,None,1,4.342458503997477,1520.756887251002,None,1525.1323228110014,None,1525.1323228110014,None,1527.6354668530003,None,1527.6354668530003,None,1.8019739730007132,1529.433547818,None,1529.433547818,None,5,0,1.5859089090008638,1531.22748021,None,1531.22748021,None,1531.22748021,None,1532.8299273949997,None,1,0.4674693919987476,1532.8299273949997,None,88,1533.314055255003,None,133,B,1,2021_May_28_1754,GazeFlow,2020.1.2,59.85569868441462,
11,Block806.xls,B,6,5,37,37,None,congruent,Right,Right,Left,79,73,6,blue,2,5,/home/docky/apps/exp/images/79Bi.jpeg,/home/docky/apps/exp/images/73B.jpeg,0,10,10,10,0,4,4,4,1534.316565805002,None,1534.316565805002,None,1,3.807635234999907,1534.316565805002,None,1538.1563446920009,None,1538.1563446920009,None,1540.6611910490028,None,1540.6611910490028,None,1.534473187999538,1542.4590238420024,None,1542.4590238420024,None,5,1,1.1021602760010865,1543.9854206890013,None,1543.9854206890013,None,1543.9854206890013,None,1545.1035937170018,None,1,0.3676355110001168,1545.1035937170018,None,90,1545.4878785809997,None,133,B,1,2021_May_28_1754,GazeFlow,2020.1.2,59.85569868441462,
11,Block806.xls,B,6,6,108,12,None,incongruent,Left,Right,Left,39,38,1,blue,2,5,/home/docky/apps/exp/images/39Bi.jpeg,/home/docky/apps/exp/images/38B.jpeg,0,10,10,10,0,5,5,5,1546.4902263540025,None,1546.4902263540025,None,1,3.607334930999059,1546.4902263540025,None,1550.131746885003,None,1550.131746885003,None,1552.6407963420024,None,1552.6407963420024,None,3.15486126900214,1554.4336912670005,None,1554.4336912670005,None,5,1,1.7190561649986194,1557.595877312,None,1557.595877312,None,1557.595877312,None,1559.3312428440004,None,1,0.4515340610014391,1559.3312428440004,None,92,1559.7995145370005,None,133,B,1,2021_May_28_1754,GazeFlow,2020.1.2,59.85569868441462,
11,Block806.xls,B,6,7,52,52,None,congruent,Left,Left,Right,65,66,1,yellow,2,6,/home/docky/apps/exp/images/35B.jpeg,/home/docky/apps/exp/images/66Yi.jpeg,0,10,10,10,0,6,6,6,1560.801428633,None,1560.801428633,None,1,3.1230002570009674,1560.801428633,None,1563.958130981002,None,1563.958130981002,None,1566.4605849910004,None,1566.4605849910004,None,2.653976450998016,1568.2636392090026,None,1568.2636392090026,None,5,0,3.174638109998341,1570.9193327770008,None,1570.9193327770008,None,1570.9193327770008,None,1574.110199591003,None,1,0.5348755639970477,1574.110199591003,None,90,1574.6615603050013,None,133,B,1,2021_May_28_1754,GazeFlow,2020.1.2,59.85569868441462,
11,Block806.xls,B,6,8,75,75,None,congruent,Right,Right,Left,35,33,2,yellow,2,5,/home/docky/apps/exp/images/35Yi.jpeg,/home/docky/apps/exp/images/33Y.jpeg,0,10,10,10,0,7,7,7,1575.663428523003,None,1575.663428523003,None,1,5.310893447000126,1575.663428523003,None,1581.0079500490028,None,1581.0079500490028,None,1583.510347708001,None,1583.510347708001,None,1.6344596130002174,1585.314285452001,None,1585.314285452001,None,5,1,1.1691472440033976,1586.9356373200026,None,1586.9356373200026,None,1586.9356373200026,None,1588.1210346120024,None,1,0.41699060700193513,1588.1210346120024,None,92,1588.554753356002,None,133,B,1,2021_May_28_1754,GazeFlow,2020.1.2,59.85569868441462,
11,Block806.xls,B,,,,,,,,,,,,,,,,,,0,10,10,10,,,,,,,,,,,,,,,,,,,,,,,,,,,,,,,,,,,,,,,,,,,,133,B,1,2021_May_28_1754,GazeFlow,2020.1.2,59.85569868441462,
12,Block811.xls,B,11,1,86,86,None,congruent,Right,Right,Left,75,69,6,yellow,2,5,/home/docky/apps/exp/images/76Y.jpeg,/home/docky/apps/exp/images/69Yi.jpeg,0,11,11,11,0,0,0,0,1610.9349326050033,None,1610.9349326050033,None,1,4.462964554000791,1610.9349326050033,None,1615.428492127001,None,1615.428492127001,None,1617.9462426540013,None,1617.9462426540013,None,1.4003733319987077,1619.7498043010019,None,1619.7498043010019,None,5,1,1.2190611389996775,1621.135332820002,None,1621.135332820002,None,1621.135332820002,None,1622.3708175700012,None,1,0.8182664790001581,1622.3708175700012,None,94,1623.205392082,None,133,B,1,2021_May_28_1754,GazeFlow,2020.1.2,59.85569868441462,
12,Block811.xls,B,11,2,83,83,None,congruent,Right,Right,Left,75,69,6,yellow,2,5,/home/docky/apps/exp/images/76Yi.jpeg,/home/docky/apps/exp/images/69Y.jpeg,0,11,11,11,0,1,1,1,1624.2077262600033,None,1624.2077262600033,None,1,3.2565303399969707,1624.2077262600033,None,1627.496581921001,None,1627.496581921001,None,1630.0005362820011,None,1630.0005362820011,None,2.0521384090025094,1631.8042945920024,None,1631.8042945920024,None,5,1,0.7851803740013565,1633.8434210360028,None,1633.8434210360028,None,1633.8434210360028,None,1634.6447361270002,None,1,0.584038414999668,1634.6447361270002,None,96,1635.245503459002,None,133,B,1,2021_May_28_1754,GazeFlow,2020.1.2,59.85569868441462,
12,Block811.xls,B,11,3,28,28,None,congruent,Right,Right,Left,38,35,3,blue,2,5,/home/docky/apps/exp/images/38Bi.jpeg,/home/docky/apps/exp/images/35B.jpeg,0,11,11,11,0,2,2,2,1636.247803483002,None,1636.247803483002,None,1,3.3735488489983254,1636.247803483002,None,1639.655322300001,None,1639.655322300001,None,1642.163296736002,None,1642.163296736002,None,1.8516025379976782,1643.9618675380007,None,1643.9618675380007,None,5,1,0.718364622000081,1645.7999916059998,None,1645.7999916059998,None,1645.7999916059998,None,1646.5341398930032,None,1,0.36726064100002986,1646.5341398930032,None,98,1646.9182787380014,None,133,B,1,2021_May_28_1754,GazeFlow,2020.1.2,59.85569868441462,
12,Block811.xls,B,11,4,58,58,None,congruent,Left,Left,Right,62,65,3,yellow,2,6,/home/docky/apps/exp/images/38B.jpeg,/home/docky/apps/exp/images/35Bi.jpeg,0,11,11,11,0,3,3,3,1647.919999214002,None,1647.919999214002,None,1,3.3907662499987055,1647.919999214002,None,1651.3445185960009,None,1651.3445185960009,None,1653.8474419770027,None,1653.8474419770027,None,3.1879976210002496,1655.650134304,None,1655.650134304,None,6,1,2.841129322001507,1658.8399932770008,None,1658.8399932770008,None,1658.8399932770008,None,1661.69727135,None,1,0.41771322800195776,1661.69727135,None,100,1662.1313860670016,None,133,B,1,2021_May_28_1754,GazeFlow,2020.1.2,59.85569868441462,
12,Block811.xls,B,11,5,32,32,None,congruent,Right,Right,Left,66,65,1,blue,2,5,/home/docky/apps/exp/images/66Bi.jpeg,/home/docky/apps/exp/images/35Y.jpeg,0,11,11,11,0,4,4,4,1663.1335267400027,None,1663.1335267400027,None,1,3.556804577001458,1663.1335267400027,None,1666.7243683330016,None,1666.7243683330016,None,1669.227436346002,None,1669.227436346002,None,3.856326615001308,1671.030238393003,None,1671.030238393003,None,5,1,1.7876413010017131,1674.8884879210018,None,1674.8884879210018,None,1674.8884879210018,None,1676.6925860770025,None,1,0.3673177909986407,1676.6925860770025,None,102,1677.0767641650018,None,133,B,1,2021_May_28_1754,GazeFlow,2020.1.2,59.85569868441462,
12,Block811.xls,B,11,6,67,67,None,congruent,Left,Left,Right,72,77,5,yellow,2,6,/home/docky/apps/exp/images/72Y.jpeg,/home/docky/apps/exp/images/77Yi.jpeg,0,11,11,11,0,5,5,5,1678.0791141790032,None,1678.0791141790032,None,1,3.2570271139993565,1678.0791141790032,None,1681.3708521970002,None,1681.3708521970002,None,1683.8744360890014,None,1683.8744360890014,None,1.7516254230031336,1685.677726926002,None,1685.677726926002,None,6,1,2.0029568749996542,1687.414271544003,None,1687.414271544003,None,1687.414271544003,None,1689.434213020002,None,1,0.41749451299983775,1689.434213020002,None,104,1689.8681722460024,None,133,B,1,2021_May_28_1754,GazeFlow,2020.1.2,59.85569868441462,
12,Block811.xls,B,11,7,120,24,None,incongruent,Left,Right,Left,77,72,5,yellow,2,5,/home/docky/apps/exp/images/77Y.jpeg,/home/docky/apps/exp/images/72Yi.jpeg,0,11,11,11,0,6,6,6,1690.8706633520014,None,1690.8706633520014,None,1,4.124692904999392,1690.8706633520014,None,1695.029472342001,None,1695.029472342001,None,1697.5328607310003,None,1697.5328607310003,None,3.2552030270016985,1699.3353514340015,None,1699.3353514340015,None,5,1,1.1698741960026382,1702.5921837349997,None,1702.5921837349997,None,1702.5921837349997,None,1703.778619478002,None,1,0.36785613000029116,1703.778619478002,None,106,1704.1626697790016,None,133,B,1,2021_May_28_1754,GazeFlow,2020.1.2,59.85569868441462,
12,Block811.xls,B,11,8,57,57,None,congruent,Left,Left,Right,62,65,3,yellow,2,6,/home/docky/apps/exp/images/38Bi.jpeg,/home/docky/apps/exp/images/35B.jpeg,0,11,11,11,0,7,7,7,1705.1650633050012,None,1705.1650633050012,None,1,2.9731680730001244,1705.1650633050012,None,1708.1776149640027,None,1708.1776149640027,None,1710.6741268200021,None,1710.6741268200021,None,1.3675134259974584,1712.472366568003,None,1712.472366568003,None,6,1,1.3194328239987954,1713.8318042320025,None,1713.8318042320025,None,1713.8318042320025,None,1715.1678656889999,None,1,0.43389613700128393,1715.1678656889999,None,108,1715.6180164550024,None,133,B,1,2021_May_28_1754,GazeFlow,2020.1.2,59.85569868441462,
12,Block811.xls,B,,,,,,,,,,,,,,,,,,0,11,11,11,,,,,,,,,,,,,,,,,,,,,,,,,,,,,,,,,,,,,,,,,,,,133,B,1,2021_May_28_1754,GazeFlow,2020.1.2,59.85569868441462,
13,Block808.xls,B,8,1,118,22,None,incongruent,Left,Right,Left,75,69,6,yellow,2,5,/home/docky/apps/exp/images/76Y.jpeg,/home/docky/apps/exp/images/69Yi.jpeg,0,12,12,12,0,0,0,0,1741.6879096400007,None,1741.6879096400007,None,1,3.5785592240026745,1741.6879096400007,None,1745.3018218100005,None,1745.3018218100005,None,1747.8134485310002,None,1747.8134485310002,None,1.4838240230019437,1749.6167954200027,None,1749.6167954200027,None,5,1,1.0522978490007517,1751.0875381330006,None,1751.0875381330006,None,1751.0875381330006,None,1752.1562441890019,None,1,0.38445196600150666,1752.1562441890019,None,110,1752.5567531110028,None,133,B,1,2021_May_28_1754,GazeFlow,2020.1.2,59.85569868441462,
13,Block808.xls,B,8,2,7,7,None,congruent,Left,Left,Right,65,66,1,blue,2,6,/home/docky/apps/exp/images/35Yi.jpeg,/home/docky/apps/exp/images/66B.jpeg,0,12,12,12,0,1,1,1,1753.558878212003,None,1753.558878212003,None,1,3.5745294309999736,1753.558878212003,None,1757.166674070002,None,1757.166674070002,None,1759.669662745,None,1759.669662745,None,1.3671649809984956,1761.467582258003,None,1761.467582258003,None,6,1,1.4194675760008977,1762.8272889140026,None,1762.8272889140026,None,1762.8272889140026,None,1764.2631582760005,None,1,0.4003117870015558,1764.2631582760005,None,112,1764.6802376430023,None,133,B,1,2021_May_28_1754,GazeFlow,2020.1.2,59.85569868441462,
13,Block808.xls,B,8,3,112,16,None,incongruent,Right,Left,Right,69,76,7,yellow,2,6,/home/docky/apps/exp/images/69Yi.jpeg,/home/docky/apps/exp/images/76Y.jpeg,0,12,12,12,0,2,2,2,1765.6822392100003,None,1765.6822392100003,None,1,3.9921660859981785,1765.6822392100003,None,1769.7098995380002,None,1769.7098995380002,None,1772.2105337579997,None,1772.2105337579997,None,1.918563023002207,1774.0139159360006,None,1774.0139159360006,None,6,1,1.4357930730002408,1775.919075310001,None,1775.919075310001,None,1775.919075310001,None,1777.3715554139999,None,1,0.33414580799944815,1777.3715554139999,None,114,1777.7223593690032,None,133,B,1,2021_May_28_1754,GazeFlow,2020.1.2,59.85569868441462,
13,Block808.xls,B,8,4,97,1,None,incongruent,Right,Left,Right,16,19,3,blue,2,6,/home/docky/apps/exp/images/16Bi.jpeg,/home/docky/apps/exp/images/19B.jpeg,0,12,12,12,0,3,3,3,1778.7245756090015,None,1778.7245756090015,None,1,3.3234168620001583,1778.7245756090015,None,1782.0853715600024,None,1782.0853715600024,None,1784.5863325490027,None,1784.5863325490027,None,1.7351823349999904,1786.383062660003,None,1786.383062660003,None,6,1,1.21855194499949,1788.1096340710028,None,1788.1096340710028,None,1788.1096340710028,None,1789.344755815,None,1,0.38425604499934707,1789.344755815,None,116,1789.7456693200002,None,133,B,1,2021_May_28_1754,GazeFlow,2020.1.2,59.85569868441462,
13,Block808.xls,B,8,5,24,24,None,congruent,Left,Left,Right,80,83,3,blue,2,6,/home/docky/apps/exp/images/80Bi.jpeg,/home/docky/apps/exp/images/83B.jpeg,0,12,12,12,0,4,4,4,1790.7474175509997,None,1790.7474175509997,None,1,4.058809909998672,1790.7474175509997,None,1794.8398519580005,None,1794.8398519580005,None,1797.3432793780012,None,1797.3432793780012,None,1.4510643019966665,1799.1458657870025,None,1799.1458657870025,None,6,1,1.0525251069993828,1800.583855285,None,1800.583855285,None,1800.583855285,None,1801.652421537001,None,1,0.3340694059988891,1801.652421537001,None,118,1802.0031448830014,None,133,B,1,2021_May_28_1754,GazeFlow,2020.1.2,59.85569868441462,
13,Block808.xls,B,8,6,13,13,None,congruent,Left,Left,Right,38,39,1,blue,2,6,/home/docky/apps/exp/images/38Bi.jpeg,/home/docky/apps/exp/images/39B.jpeg,0,12,12,12,0,5,5,5,1803.004638919003,None,1803.004638919003,None,1,3.273844294999435,1803.004638919003,None,1806.3133800310025,None,1806.3133800310025,None,1808.8169758440017,None,1808.8169758440017,None,3.30514968100033,1810.6191497830005,None,1810.6191497830005,None,6,1,2.8054387789998145,1813.9268406070005,None,1813.9268406070005,None,1813.9268406070005,None,1816.7483511150022,None,1,0.35113148899836233,1816.7483511150022,None,120,1817.1159400610013,None,133,B,1,2021_May_28_1754,GazeFlow,2020.1.2,59.85569868441462,
13,Block808.xls,B,8,7,8,8,None,congruent,Left,Left,Right,65,66,1,blue,2,6,/home/docky/apps/exp/images/35Y.jpeg,/home/docky/apps/exp/images/66Bi.jpeg,0,12,12,12,0,6,6,6,1818.117850423001,None,1818.117850423001,None,1,4.258506522000971,1818.117850423001,None,1822.4100724400014,None,1822.4100724400014,None,1824.912681242,None,1824.912681242,None,3.472322838999389,1826.7168023490012,None,1826.7168023490012,None,5,0,1.7718864390008093,1830.189751986003,None,1830.189751986003,None,1830.189751986003,None,1831.9779854040025,None,1,0.3672127140016528,1831.9779854040025,None,118,1832.361851157002,None,133,B,1,2021_May_28_1754,GazeFlow,2020.1.2,59.85569868441462,
13,Block808.xls,B,8,8,31,31,None,congruent,Right,Right,Left,66,65,1,blue,2,5,/home/docky/apps/exp/images/66B.jpeg,/home/docky/apps/exp/images/35Yi.jpeg,0,12,12,12,0,7,7,7,1833.364004436,None,1833.364004436,None,1,6.296326911000506,1833.364004436,None,1839.693827377003,None,1839.693827377003,None,1842.1967949390018,None,1842.1967949390018,None,1.6347479739997652,1844.0000393430018,None,1844.0000393430018,None,5,1,1.6857606480007234,1845.6215292960005,None,1845.6215292960005,None,1845.6215292960005,None,1847.324240844002,None,1,0.3839939190002042,1847.324240844002,None,120,1847.7248844200003,None,133,B,1,2021_May_28_1754,GazeFlow,2020.1.2,59.85569868441462,
13,Block808.xls,B,,,,,,,,,,,,,,,,,,0,12,12,12,,,,,,,,,,,,,,,,,,,,,,,,,,,,,,,,,,,,,,,,,,,,133,B,1,2021_May_28_1754,GazeFlow,2020.1.2,59.85569868441462,
14,Block815.xls,B,15,1,65,65,None,congruent,Left,Left,Right,69,76,7,yellow,2,6,/home/docky/apps/exp/images/69Yi.jpeg,/home/docky/apps/exp/images/76Y.jpeg,0,13,13,13,0,0,0,0,1872.0062097590016,None,1872.0062097590016,None,1,4.096740857003169,1872.0062097590016,None,1876.137287364003,None,1876.137287364003,None,1878.6564687749997,None,1878.6564687749997,None,1.2666706550007802,1880.449714180002,None,1880.449714180002,None,6,1,1.4700272590016539,1881.708221529003,None,1881.708221529003,None,1881.708221529003,None,1883.194019966002,None,1,0.7012385890011501,1883.194019966002,None,122,1883.911894314002,None,133,B,1,2021_May_28_1754,GazeFlow,2020.1.2,59.85569868441462,
14,Block815.xls,B,15,2,102,6,None,incongruent,Right,Left,Right,80,83,3,blue,2,6,/home/docky/apps/exp/images/80B.jpeg,/home/docky/apps/exp/images/83Bi.jpeg,0,13,13,13,0,1,1,1,1884.9142302480032,None,1884.9142302480032,None,1,4.542904494999675,1884.9142302480032,None,1889.4904072750032,None,1889.4904072750032,None,1891.9937449470017,None,1891.9937449470017,None,1.9020051549996424,1893.7970968219997,None,1893.7970968219997,None,5,0,0.9516435199984699,1895.685234194003,None,1895.685234194003,None,1895.685234194003,None,1896.6532891700008,None,1,0.367761879999307,1896.6532891700008,None,120,1897.0374398250024,None,133,B,1,2021_May_28_1754,GazeFlow,2020.1.2,59.85569868441462,
14,Block815.xls,B,15,3,33,33,None,congruent,Right,Right,Left,66,65,1,blue,2,5,/home/docky/apps/exp/images/66Bi.jpeg,/home/docky/apps/exp/images/35Y.jpeg,0,13,13,13,0,2,2,2,1898.0396958020028,None,1898.0396958020028,None,1,4.543107498000609,1898.0396958020028,None,1902.6158382650028,None,1902.6158382650028,None,1905.120925465002,None,1905.120925465002,None,3.572336135999649,1906.922469688001,None,1906.922469688001,None,5,1,3.1724328480013355,1910.4978992270007,None,1910.4978992270007,None,1910.4978992270007,None,1913.6868032210004,None,1,0.5346504869994533,1913.6868032210004,None,122,1914.2378837739998,None,133,B,1,2021_May_28_1754,GazeFlow,2020.1.2,59.85569868441462,
14,Block815.xls,B,15,4,72,72,None,congruent,Left,Left,Right,79,82,3,yellow,2,6,/home/docky/apps/exp/images/79Yi.jpeg,/home/docky/apps/exp/images/80Y.jpeg,0,13,13,13,0,3,3,3,1915.2398823870026,None,1915.2398823870026,None,1,3.290542237999034,1915.2398823870026,None,1918.5637498230026,None,1918.5637498230026,None,1921.0666984320014,None,1921.0666984320014,None,2.5535802519989375,1922.8702089840008,None,1922.8702089840008,None,6,1,5.793772122000519,1925.4271337810023,None,1925.4271337810023,None,1925.4271337810023,None,1931.2375593570032,None,1,0.4845518939982867,1931.2375593570032,None,124,1931.7382766580013,None,133,B,1,2021_May_28_1754,GazeFlow,2020.1.2,59.85569868441462,
14,Block815.xls,B,15,5,100,4,None,incongruent,Right,Left,Right,73,76,3,blue,2,6,/home/docky/apps/exp/images/73B.jpeg,/home/docky/apps/exp/images/76Bi.jpeg,0,13,13,13,0,4,4,4,1932.740435926,None,1932.740435926,None,1,3.4241120139995473,1932.740435926,None,1936.197922770003,None,1936.197922770003,None,1938.701189968,None,1938.701189968,None,1.2674187340016942,1940.4986377640016,None,1940.4986377640016,None,5,0,1.9200422199974128,1941.7580227760009,None,1941.7580227760009,None,1941.7580227760009,None,1943.6943348400018,None,1,0.4676568089998909,1943.6943348400018,None,122,1944.178662401002,None,133,B,1,2021_May_28_1754,GazeFlow,2020.1.2,59.85569868441462,
14,Block815.xls,B,15,6,45,45,None,congruent,Right,Right,Left,39,38,1,blue,2,5,/home/docky/apps/exp/images/39B.jpeg,/home/docky/apps/exp/images/38Bi.jpeg,0,13,13,13,0,5,5,5,1945.1812865720021,None,1945.1812865720021,None,1,3.841058867998072,1945.1812865720021,None,1949.0562470080004,None,1949.0562470080004,None,1951.5588320970019,None,1951.5588320970019,None,1.7849273069987248,1953.361979270001,None,1953.361979270001,None,5,1,1.5357692990000942,1955.1341422040023,None,1955.1341422040023,None,1955.1341422040023,None,1956.686637578001,None,1,0.35049248099676333,1956.686637578001,None,124,1957.0536382570026,None,133,B,1,2021_May_28_1754,GazeFlow,2020.1.2,59.85569868441462,
14,Block815.xls,B,15,7,98,2,None,incongruent,Right,Left,Right,35,38,3,blue,2,6,/home/docky/apps/exp/images/35Bi.jpeg,/home/docky/apps/exp/images/38B.jpeg,0,13,13,13,0,6,6,6,1958.056327688002,None,1958.056327688002,None,1,3.6072409709995554,1958.056327688002,None,1961.696993032001,None,1961.696993032001,None,1964.2004651759999,None,1964.2004651759999,None,4.87510293699961,1966.0041077839996,None,1966.0041077839996,None,6,1,2.589699694999581,1970.880168546002,None,1970.880168546002,None,1970.880168546002,None,1973.4862680990009,None,1,0.3675442390012904,1973.4862680990009,None,126,1973.8703084070003,None,133,B,1,2021_May_28_1754,GazeFlow,2020.1.2,59.85569868441462,
14,Block815.xls,B,15,8,59,59,None,congruent,Left,Left,Right,38,39,1,yellow,2,6,/home/docky/apps/exp/images/38Yi.jpeg,/home/docky/apps/exp/images/39Y.jpeg,0,13,13,13,0,7,7,7,1974.8722790230022,None,1974.8722790230022,None,1,3.808199857998261,1974.8722790230022,None,1978.7140114920003,None,1978.7140114920003,None,1981.2167231700005,None,1981.2167231700005,None,3.1382388769998215,1983.0196641050024,None,1983.0196641050024,None,6,1,4.409982566998224,1986.1597954360004,None,1986.1597954360004,None,1986.1597954360004,None,1990.5861667690006,None,1,0.6017611889983527,1990.5861667690006,None,128,1991.2039233020005,None,133,B,1,2021_May_28_1754,GazeFlow,2020.1.2,59.85569868441462,
14,Block815.xls,B,,,,,,,,,,,,,,,,,,0,13,13,13,,,,,,,,,,,,,,,,,,,,,,,,,,,,,,,,,,,,,,,,,,,,133,B,1,2021_May_28_1754,GazeFlow,2020.1.2,59.85569868441462,
15,Block807.xls,B,7,1,71,71,None,congruent,Left,Left,Right,79,82,3,yellow,2,6,/home/docky/apps/exp/images/79Y.jpeg,/home/docky/apps/exp/images/80Yi.jpeg,0,14,14,14,0,0,0,0,2013.0310282440005,None,2013.0310282440005,None,1,2.9257568579996587,2013.0310282440005,None,2015.9874359860005,None,2015.9874359860005,None,2018.5078102010011,None,2018.5078102010011,None,2.803368180000689,2020.3089241529997,None,2020.3089241529997,None,5,0,2.9386575690004975,2023.1167044020003,None,2023.1167044020003,None,2023.1167044020003,None,2026.0717386409997,None,1,0.6018129510048311,2026.0717386409997,None,126,2026.6895811219983,None,133,B,1,2021_May_28_1754,GazeFlow,2020.1.2,59.85569868441462,
15,Block807.xls,B,7,2,44,44,None,congruent,Right,Right,Left,83,80,3,blue,2,5,/home/docky/apps/exp/images/83Bi.jpeg,/home/docky/apps/exp/images/80B.jpeg,0,14,14,14,0,1,1,1,2027.6916257790035,None,2027.6916257790035,None,1,4.408886796001752,2027.6916257790035,None,2032.134371283002,None,2032.134371283002,None,2034.638932486003,None,2034.638932486003,None,1.4343094670039136,2036.4351911209997,None,2036.4351911209997,None,5,1,1.4696027059981134,2037.861467756,None,2037.861467756,None,2037.861467756,None,2039.3476011030034,None,1,0.38387135400262196,2039.3476011030034,None,128,2039.7478922359987,None,133,B,1,2021_May_28_1754,GazeFlow,2020.1.2,59.85569868441462,
15,Block807.xls,B,7,3,48,48,None,congruent,Right,Right,Left,39,38,1,blue,2,5,/home/docky/apps/exp/images/39Bi.jpeg,/home/docky/apps/exp/images/38B.jpeg,0,14,14,14,0,2,2,2,2040.7500026460002,None,2040.7500026460002,None,1,3.473797166996519,2040.7500026460002,None,2044.2561414000047,None,2044.2561414000047,None,2046.7625144070007,None,2046.7625144070007,None,1.6182866399976774,2048.558812366002,None,2048.558812366002,None,5,1,1.068786544004979,2050.168629061005,None,2050.168629061005,None,2050.168629061005,None,2051.253998696,None,1,0.40051413499895716,2051.253998696,None,130,2051.671175561005,None,133,B,1,2021_May_28_1754,GazeFlow,2020.1.2,59.85569868441462,
15,Block807.xls,B,7,4,113,17,None,incongruent,Right,Left,Right,72,77,5,yellow,2,6,/home/docky/apps/exp/images/72Yi.jpeg,/home/docky/apps/exp/images/77Y.jpeg,0,14,14,14,0,3,3,3,2052.672987617003,None,2052.672987617003,None,1,2.9898905849986477,2052.672987617003,None,2055.6966014969985,None,2055.6966014969985,None,2058.199423977003,None,2058.199423977003,None,1.5173960009997245,2060.0027619409993,None,2060.0027619409993,None,6,1,1.1515363930011517,2061.507267625002,None,2061.507267625002,None,2061.507267625002,None,2062.675752076004,None,1,0.4009759640030097,2062.675752076004,None,132,2063.093289307999,None,133,B,1,2021_May_28_1754,GazeFlow,2020.1.2,59.85569868441462,
15,Block807.xls,B,7,5,69,69,None,congruent,Left,Left,Right,72,77,5,yellow,2,6,/home/docky/apps/exp/images/72Y.jpeg,/home/docky/apps/exp/images/77Yi.jpeg,0,14,14,14,0,4,4,4,2064.0954793210003,None,2064.0954793210003,None,1,3.374126416994841,2064.0954793210003,None,2067.5029069010016,None,2067.5029069010016,None,2070.007766933002,None,2070.007766933002,None,1.9187069869949482,2071.809088502003,None,2071.809088502003,None,6,1,2.003764439999941,2073.7144919870007,None,2073.7144919870007,None,2073.7144919870007,None,2075.7344333990004,None,1,0.350785287002509,2075.7344333990004,None,134,2076.101740838003,None,133,B,1,2021_May_28_1754,GazeFlow,2020.1.2,59.85569868441462,
15,Block807.xls,B,7,6,39,39,None,congruent,Right,Right,Left,79,76,3,blue,2,5,/home/docky/apps/exp/images/79B.jpeg,/home/docky/apps/exp/images/76Bi.jpeg,0,14,14,14,0,5,5,5,2077.104181595005,None,2077.104181595005,None,1,2.7722580390036455,2077.104181595005,None,2079.910025232002,None,2079.910025232002,None,2082.4128418670043,None,2082.4128418670043,None,1.5349809609979275,2084.2164012059984,None,2084.2164012059984,None,5,1,0.9688608599972213,2085.7379206160003,None,2085.7379206160003,None,2085.7379206160003,None,2086.7229138770017,None,1,0.3512606180011062,2086.7229138770017,None,136,2087.090372322,None,133,B,1,2021_May_28_1754,GazeFlow,2020.1.2,59.85569868441462,
15,Block807.xls,B,7,7,50,50,None,congruent,Left,Left,Right,33,35,2,yellow,2,6,/home/docky/apps/exp/images/33Y.jpeg,/home/docky/apps/exp/images/35Yi.jpeg,0,14,14,14,0,6,6,6,2088.0917293690036,None,2088.0917293690036,None,1,4.443266930997197,2088.0917293690036,None,2092.5684795939997,None,2092.5684795939997,None,2095.073024526999,None,2095.073024526999,None,2.319504715000221,2096.8763932449983,None,2096.8763932449983,None,6,1,1.5191749119985616,2099.180629890001,None,2099.180629890001,None,2099.180629890001,None,2100.7163947920017,None,1,0.3508118409954477,2100.7163947920017,None,138,2101.0838341279996,None,133,B,1,2021_May_28_1754,GazeFlow,2020.1.2,59.85569868441462,
15,Block807.xls,B,7,8,19,19,None,congruent,Left,Left,Right,76,79,3,blue,2,6,/home/docky/apps/exp/images/76B.jpeg,/home/docky/apps/exp/images/79Bi.jpeg,0,14,14,14,0,7,7,7,2102.086304690998,None,2102.086304690998,None,1,6.262170410002,2102.086304690998,None,2108.385081190001,None,2108.385081190001,None,2110.8847584139985,None,2110.8847584139985,None,1.9355189530033385,2112.6890090650013,None,2112.6890090650013,None,6,1,3.656482964994211,2114.610627031001,None,2114.610627031001,None,2114.610627031001,None,2118.2838723179993,None,1,0.5014961670021876,2118.2838723179993,None,140,2118.8018875870002,None,133,B,1,2021_May_28_1754,GazeFlow,2020.1.2,59.85569868441462,
15,Block807.xls,B,,,,,,,,,,,,,,,,,,0,14,14,14,,,,,,,,,,,,,,,,,,,,,,,,,,,,,,,,,,,,,,,,,,,,133,B,1,2021_May_28_1754,GazeFlow,2020.1.2,59.85569868441462,
