Nblock,condsFile,grouping,Block,TrialBlock,N,trialN,trialCond,gazeCon,gazedirR,corrBinR,corrBinP,valLBY,valRBY,diff,colorCube,feedbacktext,corrAns,imageL,imageR,SelBlocks.thisRepN,SelBlocks.thisTrialN,SelBlocks.thisN,SelBlocks.thisIndex,Trials.thisRepN,Trials.thisTrialN,Trials.thisN,Trials.thisIndex,waitCube.started,waitCube.stopped,text_3.started,text_3.stopped,StartKeyPress.keys,StartKeyPress.rt,StartKeyPress.started,StartKeyPress.stopped,StimL.started,StimL.stopped,StimR.started,StimR.stopped,imageStim2L.started,imageStim2L.stopped,imageStim2R.started,imageStim2R.stopped,RTkeyRelease,imageStim3L.started,imageStim3L.stopped,imageStim3R.started,imageStim3R.stopped,dropResp.keys,dropResp.corr,dropResp.rt,dropResp.started,dropResp.stopped,imageStim5L.started,imageStim5L.stopped,imageStim5R.started,imageStim5R.stopped,text_2.started,text_2.stopped,ReturnSpace.keys,ReturnSpace.rt,ReturnSpace.started,ReturnSpace.stopped,totalpoints,textFeedback.started,textFeedback.stopped,participant,group,session,date,expName,psychopyVersion,frameRate,
1,Block502.xls,A,2,1,93,33,22,incongruent,Left,Right,Left,38,35,3,blue,2,5,/home/docky/apps/exp/images/38B.jpeg,/home/docky/apps/exp/images/35Bi.jpeg,0,0,0,0,0,0,0,0,21.590625449985964,None,21.590625449985964,None,1,32.53668393101543,21.590625449985964,None,54.157602393010166,None,54.157602393010166,None,56.67671767700813,None,56.67671767700813,None,1.4001608849794138,58.48029500900884,None,58.48029500900884,None,5,1,1.0185237560071982,59.86363399401307,None,59.86363399401307,None,59.86363399401307,None,60.89886596199358,None,1,0.5838628119963687,60.89886596199358,None,2,61.499491602997296,None,134,A,1,2021_May_31_0935,GazeFlow,2020.1.2,59.88940726340828,
1,Block502.xls,A,2,2,42,42,12,congruent,Right,Right,Left,83,80,3,blue,2,5,/home/docky/apps/exp/images/83Bi.jpeg,/home/docky/apps/exp/images/80B.jpeg,0,0,0,0,0,1,1,1,62.501666816009674,None,62.501666816009674,None,1,4.542661660001613,62.501666816009674,None,67.07835044901003,None,67.07835044901003,None,69.58091054399847,None,69.58091054399847,None,2.002346413995838,71.38490337200346,None,71.38490337200346,None,5,1,1.0182910760049708,73.37308123800904,None,73.37308123800904,None,73.37308123800904,None,74.40775724098785,None,1,0.45102704799501225,74.40775724098785,None,4,74.87551879000966,None,134,A,1,2021_May_31_0935,GazeFlow,2020.1.2,59.88940726340828,
1,Block502.xls,A,2,3,9,9,11,congruent,Left,Left,Right,38,39,1,blue,2,6,/home/docky/apps/exp/images/38Bi.jpeg,/home/docky/apps/exp/images/39B.jpeg,0,0,0,0,0,2,2,2,75.87772760598455,None,75.87772760598455,None,1,3.407004221022362,75.87772760598455,None,79.31858980900142,None,79.31858980900142,None,81.82206834500539,None,81.82206834500539,None,1.2340932610095479,83.6247460420127,None,83.6247460420127,None,5,0,0.9679363319883123,84.8453900309978,None,84.8453900309978,None,84.8453900309978,None,85.82993959498708,None,1,0.5183129890065175,85.82993959498708,None,2,86.36492943199119,None,134,A,1,2021_May_31_0935,GazeFlow,2020.1.2,59.88940726340828,
1,Block502.xls,A,2,4,23,23,11,congruent,Left,Left,Right,38,39,1,yellow,2,6,/home/docky/apps/exp/images/38Yi.jpeg,/home/docky/apps/exp/images/39Y.jpeg,0,0,0,0,0,3,3,3,87.36662237800192,None,87.36662237800192,None,1,3.908477157994639,87.36662237800192,None,91.30837838098523,None,91.30837838098523,None,93.81172974398942,None,93.81172974398942,None,0.9498020960018039,95.61555779998889,None,95.61555779998889,None,5,0,1.2351538289804012,96.55149056599475,None,96.55149056599475,None,96.55149056599475,None,97.80345901299734,None,1,0.535303804994328,97.80345901299734,None,0,98.35468084699824,None,134,A,1,2021_May_31_0935,GazeFlow,2020.1.2,59.88940726340828,
1,Block502.xls,A,2,5,57,57,12,congruent,Right,Right,Left,77,72,5,yellow,2,5,/home/docky/apps/exp/images/77Y.jpeg,/home/docky/apps/exp/images/72Yi.jpeg,0,0,0,0,0,4,4,4,99.35635684701265,None,99.35635684701265,None,1,3.791821427003015,99.35635684701265,None,103.18171314298525,None,103.18171314298525,None,105.68657374600298,None,105.68657374600298,None,0.48242757699335925,107.48830928100506,None,107.48830928100506,None,5,1,1.3854387429892085,107.95706253498793,None,107.95706253498793,None,107.95706253498793,None,109.35919210800785,None,1,0.5173623239970766,109.35919210800785,None,2,109.89332469500368,None,134,A,1,2021_May_31_0935,GazeFlow,2020.1.2,59.88940726340828,
1,Block502.xls,A,2,6,118,58,22,incongruent,Left,Right,Left,80,79,1,yellow,2,5,/home/docky/apps/exp/images/80Yi.jpeg,/home/docky/apps/exp/images/79Y.jpeg,0,0,0,0,0,5,5,5,110.89535190199967,None,110.89535190199967,None,1,3.7745558560127392,110.89535190199967,None,114.70365021799807,None,114.70365021799807,None,117.20735390900518,None,117.20735390900518,None,1.0836462209990714,119.01085710499319,None,119.01085710499319,None,5,1,1.08486809200258,120.08055651999894,None,120.08055651999894,None,120.08055651999894,None,121.18215230299393,None,1,0.5174373539921362,121.18215230299393,None,4,121.71704278301331,None,134,A,1,2021_May_31_0935,GazeFlow,2020.1.2,59.88940726340828,
1,Block502.xls,A,2,7,101,41,22,incongruent,Left,Right,Left,83,80,3,blue,2,5,/home/docky/apps/exp/images/83Bi.jpeg,/home/docky/apps/exp/images/80B.jpeg,0,0,0,0,0,6,6,6,122.71834317100001,None,122.71834317100001,None,1,3.8914952960039955,122.71834317100001,None,126.64395756498561,None,126.64395756498561,None,129.14677289899555,None,129.14677289899555,None,1.5846240689861588,130.94986304501072,None,130.94986304501072,None,5,1,0.9520512759918347,132.52125684500788,None,132.52125684500788,None,132.52125684500788,None,133.4898026479932,None,1,0.5007627870072611,133.4898026479932,None,6,134.00696535798488,None,134,A,1,2021_May_31_0935,GazeFlow,2020.1.2,59.88940726340828,
1,Block502.xls,A,2,8,69,9,21,incongruent,Right,Left,Right,73,76,3,blue,2,6,/home/docky/apps/exp/images/73B.jpeg,/home/docky/apps/exp/images/76Bi.jpeg,0,0,0,0,0,7,7,7,135.00939311701222,None,135.00939311701222,None,1,4.826763526012655,135.00939311701222,None,139.8697927799949,None,139.8697927799949,None,142.37259574298514,None,142.37259574298514,None,1.2343231969862245,144.17591208900558,None,144.17591208900558,None,6,1,1.068657602998428,145.39643017799244,None,145.39643017799244,None,145.39643017799244,None,146.4817339250003,None,1,0.5346472689998336,146.4817339250003,None,8,147.03268578700954,None,134,A,1,2021_May_31_0935,GazeFlow,2020.1.2,59.88940726340828,
1,Block502.xls,A,,,,,,,,,,,,,,,,,,0,0,0,0,,,,,,,,,,,,,,,,,,,,,,,,,,,,,,,,,,,,,,,,,,,,134,A,1,2021_May_31_0935,GazeFlow,2020.1.2,59.88940726340828,
2,Block506.xls,A,6,1,120,60,22,incongruent,Left,Right,Left,80,79,1,yellow,2,5,/home/docky/apps/exp/images/80Yi.jpeg,/home/docky/apps/exp/images/79Y.jpeg,0,1,1,1,0,0,0,0,165.38493329798803,None,165.38493329798803,None,1,3.9819180319900624,165.38493329798803,None,169.3930541120062,None,169.3930541120062,None,171.9149675439985,None,171.9149675439985,None,0.9827070670144167,173.7127103219973,None,173.7127103219973,None,6,0,1.135237775015412,174.68681017198833,None,174.68681017198833,None,174.68681017198833,None,175.8382160209876,None,1,0.4690888529876247,175.8382160209876,None,6,176.32292792698718,None,134,A,1,2021_May_31_0935,GazeFlow,2020.1.2,59.88940726340828,
2,Block506.xls,A,6,2,51,51,12,congruent,Right,Right,Left,66,65,1,yellow,2,5,/home/docky/apps/exp/images/66Y.jpeg,/home/docky/apps/exp/images/35Bi.jpeg,0,1,1,1,0,1,1,1,177.3244613489951,None,177.3244613489951,None,1,3.4573614410182927,177.3244613489951,None,180.81580447999295,None,180.81580447999295,None,183.31900492598652,None,183.31900492598652,None,0.9335113450069912,185.12212674701004,None,185.12212674701004,None,5,1,1.0347001719928812,186.04220357901067,None,186.04220357901067,None,186.04220357901067,None,187.09314892499242,None,1,0.4681421060231514,187.09314892499242,None,8,187.57805468101287,None,134,A,1,2021_May_31_0935,GazeFlow,2020.1.2,59.88940726340828,
2,Block506.xls,A,6,3,119,59,22,incongruent,Left,Right,Left,80,79,1,yellow,2,5,/home/docky/apps/exp/images/80Y.jpeg,/home/docky/apps/exp/images/79Yi.jpeg,0,1,1,1,0,2,2,2,188.57996858100523,None,188.57996858100523,None,1,3.8246173270163126,188.57996858100523,None,192.43823836400406,None,192.43823836400406,None,194.94120374298654,None,194.94120374298654,None,1.1672783739923034,196.7396432569949,None,196.7396432569949,None,5,1,1.0514192389964592,197.8986880099983,None,197.8986880099983,None,197.8986880099983,None,198.9668246420042,None,1,0.48449807599536143,198.9668246420042,None,10,199.46783713798504,None,134,A,1,2021_May_31_0935,GazeFlow,2020.1.2,59.88940726340828,
2,Block506.xls,A,6,4,28,28,11,congruent,Left,Left,Right,72,77,5,yellow,2,6,/home/docky/apps/exp/images/72Y.jpeg,/home/docky/apps/exp/images/77Yi.jpeg,0,1,1,1,0,3,3,3,200.46936762798578,None,200.46936762798578,None,1,3.4575438019819558,200.46936762798578,None,203.9607760529907,None,203.9607760529907,None,206.465685305011,None,206.465685305011,None,0.9497586769866757,208.26686959399376,None,208.26686959399376,None,6,1,1.0348677030124236,209.2038873010024,None,209.2038873010024,None,209.2038873010024,None,210.2551471090119,None,1,0.4348669580067508,210.2551471090119,None,12,210.706473911996,None,134,A,1,2021_May_31_0935,GazeFlow,2020.1.2,59.88940726340828,
2,Block506.xls,A,6,5,85,25,21,incongruent,Right,Left,Right,69,75,6,yellow,2,6,/home/docky/apps/exp/images/69Y.jpeg,/home/docky/apps/exp/images/76Yi.jpeg,0,1,1,1,0,4,4,4,211.70812195100007,None,211.70812195100007,None,1,3.274060058989562,211.70812195100007,None,215.0157940009958,None,215.0157940009958,None,217.51805905401125,None,217.51805905401125,None,1.167407697008457,219.32232010300504,None,219.32232010300504,None,6,1,0.9514308010111563,220.47559764501057,None,220.47559764501057,None,220.47559764501057,None,221.44362743000966,None,1,0.534759717003908,221.44362743000966,None,14,221.99441981498967,None,134,A,1,2021_May_31_0935,GazeFlow,2020.1.2,59.88940726340828,
2,Block506.xls,A,6,6,71,11,21,incongruent,Right,Left,Right,76,79,3,blue,2,6,/home/docky/apps/exp/images/76B.jpeg,/home/docky/apps/exp/images/79Bi.jpeg,0,1,1,1,0,5,5,5,222.99683797601028,None,222.99683797601028,None,1,3.3741254530032165,222.99683797601028,None,226.40414108900586,None,226.40414108900586,None,228.90898241000832,None,228.90898241000832,None,1.250534893013537,230.70534989598673,None,230.70534989598673,None,6,1,1.0012552630214486,231.9478925819858,None,231.9478925819858,None,231.9478925819858,None,232.96562098700088,None,1,0.48510180800803937,232.96562098700088,None,16,233.46730293601286,None,134,A,1,2021_May_31_0935,GazeFlow,2020.1.2,59.88940726340828,
2,Block506.xls,A,6,7,56,56,12,congruent,Right,Right,Left,76,69,7,yellow,2,5,/home/docky/apps/exp/images/76Yi.jpeg,/home/docky/apps/exp/images/69Y.jpeg,0,1,1,1,0,6,6,6,234.46854867201182,None,234.46854867201182,None,1,3.24062616500305,234.46854867201182,None,237.74672674501198,None,237.74672674501198,None,240.24620537200826,None,240.24620537200826,None,1.15076748401043,242.04899382501026,None,242.04899382501026,None,5,1,0.9846544579777401,243.18644652699004,None,243.18644652699004,None,243.18644652699004,None,244.18788760900497,None,1,0.4678332670009695,244.18788760900497,None,18,244.67248444398865,None,134,A,1,2021_May_31_0935,GazeFlow,2020.1.2,59.88940726340828,
2,Block506.xls,A,6,8,33,33,12,congruent,Right,Right,Left,38,35,3,blue,2,5,/home/docky/apps/exp/images/38B.jpeg,/home/docky/apps/exp/images/35Bi.jpeg,0,1,1,1,0,7,7,7,245.6737644049863,None,245.6737644049863,None,1,3.4247320069989655,245.6737644049863,None,249.13191466699936,None,249.13191466699936,None,251.6363497299899,None,251.6363497299899,None,1.1002659910009243,253.4377221709874,None,253.4377221709874,None,5,1,1.051305336994119,254.52497025099,None,254.52497025099,None,254.52497025099,None,255.5930951620103,None,1,0.4849931019998621,255.5930951620103,None,20,256.09468404599465,None,134,A,1,2021_May_31_0935,GazeFlow,2020.1.2,59.88940726340828,
2,Block506.xls,A,,,,,,,,,,,,,,,,,,0,1,1,1,,,,,,,,,,,,,,,,,,,,,,,,,,,,,,,,,,,,,,,,,,,,134,A,1,2021_May_31_0935,GazeFlow,2020.1.2,59.88940726340828,
3,Block505.xls,A,5,1,1,1,11,congruent,Left,Left,Right,16,19,3,blue,2,6,/home/docky/apps/exp/images/16Bi.jpeg,/home/docky/apps/exp/images/19B.jpeg,0,2,2,2,0,0,0,0,275.6503654370026,None,275.6503654370026,None,1,3.965071254002396,275.6503654370026,None,279.6392719850119,None,279.6392719850119,None,282.1625242299924,None,282.1625242299924,None,1.2833322639926337,283.9663693360053,None,283.9663693360053,None,6,1,1.018249287008075,285.2346981620067,None,285.2346981620067,None,285.2346981620067,None,286.269718711992,None,1,0.45128593998379074,286.269718711992,None,22,286.73756418799167,None,134,A,1,2021_May_31_0935,GazeFlow,2020.1.2,59.88940726340828,
3,Block505.xls,A,5,2,10,10,11,congruent,Left,Left,Right,73,76,3,blue,2,6,/home/docky/apps/exp/images/73B.jpeg,/home/docky/apps/exp/images/76Bi.jpeg,0,2,2,2,0,1,1,1,287.7389025820012,None,287.7389025820012,None,1,3.5242978780006524,287.7389025820012,None,291.29701173500507,None,291.29701173500507,None,293.80178307098686,None,293.80178307098686,None,1.183905057987431,295.6055730289954,None,295.6055730289954,None,6,1,0.9014979290077463,296.77389835900976,None,296.77389835900976,None,296.77389835900976,None,297.69157663400983,None,1,0.4683789830014575,297.69157663400983,None,24,298.17637725299574,None,134,A,1,2021_May_31_0935,GazeFlow,2020.1.2,59.88940726340828,
3,Block505.xls,A,5,3,95,35,22,incongruent,Left,Right,Left,66,65,1,blue,2,5,/home/docky/apps/exp/images/66B.jpeg,/home/docky/apps/exp/images/35Yi.jpeg,0,2,2,2,0,2,2,2,299.17826834801235,None,299.17826834801235,None,1,3.824372764007421,299.17826834801235,None,303.0365435779968,None,303.0365435779968,None,305.54110640799627,None,305.54110640799627,None,0.9667700730205979,307.342871706991,None,307.342871706991,None,5,1,1.1019622680032626,308.29620538899326,None,308.29620538899326,None,308.29620538899326,None,309.4142653660092,None,1,0.4850736340158619,309.4142653660092,None,26,309.9158331550134,None,134,A,1,2021_May_31_0935,GazeFlow,2020.1.2,59.88940726340828,
3,Block505.xls,A,5,4,46,46,12,congruent,Right,Right,Left,35,33,2,yellow,2,5,/home/docky/apps/exp/images/35Yi.jpeg,/home/docky/apps/exp/images/33Y.jpeg,0,2,2,2,0,3,3,3,310.9173382949957,None,310.9173382949957,None,1,4.359252393012866,310.9173382949957,None,315.3104376709962,None,315.3104376709962,None,317.81380419799825,None,317.81380419799825,None,1.0505500270228367,319.6187744420022,None,319.6187744420022,None,5,1,0.9345235789951403,320.65357721500914,None,320.65357721500914,None,320.65357721500914,None,321.6049620019912,None,1,0.4682547549891751,321.6049620019912,None,28,322.0895151850127,None,134,A,1,2021_May_31_0935,GazeFlow,2020.1.2,59.88940726340828,
3,Block505.xls,A,5,5,78,18,21,incongruent,Right,Left,Right,65,66,1,yellow,2,6,/home/docky/apps/exp/images/35Bi.jpeg,/home/docky/apps/exp/images/66Y.jpeg,0,2,2,2,0,4,4,4,323.09103825400234,None,323.09103825400234,None,1,3.3409008710004855,323.09103825400234,None,326.4654696719954,None,326.4654696719954,None,328.96994197100867,None,328.96994197100867,None,0.9332440860162023,330.76729947599233,None,330.76729947599233,None,6,1,0.9346534050127957,331.69173366599716,None,331.69173366599716,None,331.69173366599716,None,332.6428014120029,None,1,0.43483301799278706,332.6428014120029,None,30,333.09403391799424,None,134,A,1,2021_May_31_0935,GazeFlow,2020.1.2,59.88940726340828,
3,Block505.xls,A,5,6,43,43,12,congruent,Right,Right,Left,83,80,3,blue,2,5,/home/docky/apps/exp/images/83B.jpeg,/home/docky/apps/exp/images/80Bi.jpeg,0,2,2,2,0,5,5,5,334.0956630159926,None,334.0956630159926,None,1,3.574318151018815,334.0956630159926,None,337.70392101298785,None,337.70392101298785,None,340.20866685398505,None,340.20866685398505,None,1.1503858570067678,342.0107003650046,None,342.0107003650046,None,5,1,0.9514691919903271,343.14716777199646,None,343.14716777199646,None,343.14716777199646,None,344.11514502498903,None,1,0.45091443200362846,344.11514502498903,None,32,344.5827085750061,None,134,A,1,2021_May_31_0935,GazeFlow,2020.1.2,59.88940726340828,
3,Block505.xls,A,5,7,44,44,12,congruent,Right,Right,Left,39,38,1,blue,2,5,/home/docky/apps/exp/images/39Bi.jpeg,/home/docky/apps/exp/images/38B.jpeg,0,2,2,2,0,6,6,6,345.58495028398465,None,345.58495028398465,None,1,3.54067186001339,345.58495028398465,None,349.1595631579985,None,349.1595631579985,None,351.66210038098507,None,351.66210038098507,None,1.434654134005541,353.46579209101037,None,353.46579209101037,None,5,1,1.4531563830096275,354.8867128819984,None,354.8867128819984,None,354.8867128819984,None,356.35606804699637,None,1,0.4837873149954248,356.35606804699637,None,34,356.8565950120101,None,134,A,1,2021_May_31_0935,GazeFlow,2020.1.2,59.88940726340828,
3,Block505.xls,A,5,8,116,56,22,incongruent,Left,Right,Left,77,72,5,yellow,2,5,/home/docky/apps/exp/images/77Y.jpeg,/home/docky/apps/exp/images/72Y.jpeg,0,2,2,2,0,7,7,7,357.858954677009,None,357.858954677009,None,1,3.5069744100037497,357.858954677009,None,361.3982139629952,None,361.3982139629952,None,363.90843002000474,None,363.90843002000474,None,1.2840773120115045,365.70102534399484,None,365.70102534399484,None,5,1,0.9345433200069238,366.97695781101356,None,366.97695781101356,None,366.97695781101356,None,367.9282224859926,None,1,0.4683089920144994,367.9282224859926,None,36,368.41279818699695,None,134,A,1,2021_May_31_0935,GazeFlow,2020.1.2,59.88940726340828,
3,Block505.xls,A,,,,,,,,,,,,,,,,,,0,2,2,2,,,,,,,,,,,,,,,,,,,,,,,,,,,,,,,,,,,,,,,,,,,,134,A,1,2021_May_31_0935,GazeFlow,2020.1.2,59.88940726340828,
4,Block509.xls,A,9,1,34,34,12,congruent,Right,Right,Left,38,35,3,blue,2,5,/home/docky/apps/exp/images/38Bi.jpeg,/home/docky/apps/exp/images/35B.jpeg,0,3,3,3,0,0,0,0,393.2121481070062,None,393.2121481070062,None,1,4.845320308988448,393.2121481070062,None,398.0851226010127,None,398.0851226010127,None,400.60946450498886,None,400.60946450498886,None,1.3167406049906276,402.3947441090131,None,402.3947441090131,None,5,1,0.9515418829978444,403.69807242701063,None,403.69807242701063,None,403.69807242701063,None,404.6662114840001,None,1,0.3679171180119738,404.6662114840001,None,38,405.050687682,None,134,A,1,2021_May_31_0935,GazeFlow,2020.1.2,59.88940726340828,
4,Block509.xls,A,9,2,7,7,11,congruent,Left,Left,Right,65,66,1,blue,2,6,/home/docky/apps/exp/images/35Yi.jpeg,/home/docky/apps/exp/images/66B.jpeg,0,3,3,3,0,1,1,1,406.0522273420065,None,406.0522273420065,None,1,3.3405567230074666,406.0522273420065,None,409.4265612800082,None,409.4265612800082,None,411.92969315999653,None,411.92969315999653,None,1.3175808450032491,413.7275587549957,None,413.7275587549957,None,6,1,0.9510142150102183,415.037222621002,None,415.037222621002,None,415.037222621002,None,416.00496348101296,None,1,0.43444626798736863,416.00496348101296,None,40,416.45601987300324,None,134,A,1,2021_May_31_0935,GazeFlow,2020.1.2,59.88940726340828,
4,Block509.xls,A,9,3,74,14,21,incongruent,Right,Left,Right,80,83,3,blue,2,6,/home/docky/apps/exp/images/80B.jpeg,/home/docky/apps/exp/images/83Bi.jpeg,0,3,3,3,0,2,2,2,417.4578076330072,None,417.4578076330072,None,1,3.290231835009763,417.4578076330072,None,420.7803174110013,None,420.7803174110013,None,423.2847088009876,None,423.2847088009876,None,0.9670208680036012,425.0886366330087,None,425.0886366330087,None,6,1,0.9017896899895277,426.0413830849866,None,426.0413830849866,None,426.0413830849866,None,426.9593602399982,None,1,0.41749955699197017,426.9593602399982,None,42,427.3943767489982,None,134,A,1,2021_May_31_0935,GazeFlow,2020.1.2,59.88940726340828,
4,Block509.xls,A,9,4,19,19,11,congruent,Left,Left,Right,65,66,1,yellow,2,6,/home/docky/apps/exp/images/35Bi.jpeg,/home/docky/apps/exp/images/66Y.jpeg,0,3,3,3,0,3,3,3,428.39589587500086,None,428.39589587500086,None,1,3.641246223996859,428.39589587500086,None,432.0705092829885,None,432.0705092829885,None,434.573554986011,None,434.573554986011,None,1.1169095519871917,436.37880017398857,None,436.37880017398857,None,6,1,0.8848770309996326,437.4804819530109,None,437.4804819530109,None,437.4804819530109,None,438.38173323200317,None,1,0.4178230229881592,438.38173323200317,None,44,438.81629091801005,None,134,A,1,2021_May_31_0935,GazeFlow,2020.1.2,59.88940726340828,
4,Block509.xls,A,9,5,60,60,12,congruent,Right,Right,Left,80,79,1,yellow,2,5,/home/docky/apps/exp/images/80Yi.jpeg,/home/docky/apps/exp/images/79Y.jpeg,0,3,3,3,0,4,4,4,439.8175996670034,None,439.8175996670034,None,1,3.6083646650076844,439.8175996670034,None,443.4619101319986,None,443.4619101319986,None,445.9639886659861,None,445.9639886659861,None,1.0332961849926505,447.761167004006,None,447.761167004006,None,6,0,0.8846392349805683,448.78559034099453,None,448.78559034099453,None,448.78559034099453,None,449.68686597200576,None,1,0.45172488599200733,449.68686597200576,None,42,450.15495238100993,None,134,A,1,2021_May_31_0935,GazeFlow,2020.1.2,59.88940726340828,
4,Block509.xls,A,9,6,83,23,21,incongruent,Right,Left,Right,38,39,1,yellow,2,6,/home/docky/apps/exp/images/38Yi.jpeg,/home/docky/apps/exp/images/39Y.jpeg,0,3,3,3,0,5,5,5,451.15635415998986,None,451.15635415998986,None,1,3.15698363102274,451.15635415998986,None,454.3470247290097,None,454.3470247290097,None,456.85046667500865,None,456.85046667500865,None,1.166692337981658,458.64890690200264,None,458.64890690200264,None,5,0,0.9347834670043085,459.8071241689904,None,459.8071241689904,None,459.8071241689904,None,460.7582771090092,None,1,0.5020533520146273,460.7582771090092,None,40,461.2768449159921,None,134,A,1,2021_May_31_0935,GazeFlow,2020.1.2,59.88940726340828,
4,Block509.xls,A,9,7,4,4,11,congruent,Left,Left,Right,35,38,3,blue,2,6,/home/docky/apps/exp/images/35B.jpeg,/home/docky/apps/exp/images/38Bi.jpeg,0,3,3,3,0,6,6,6,462.27820374499424,None,462.27820374499424,None,1,3.674838559003547,462.27820374499424,None,465.9863335379923,None,465.9863335379923,None,468.48928646798595,None,468.48928646798595,None,3.3887105119938497,470.2923264270066,None,470.2923264270066,None,6,1,0.8186521110183094,473.68325154299964,None,473.68325154299964,None,473.68325154299964,None,474.518558715994,None,1,0.3840457469923422,474.518558715994,None,42,474.9192910559941,None,134,A,1,2021_May_31_0935,GazeFlow,2020.1.2,59.88940726340828,
4,Block509.xls,A,9,8,24,24,11,congruent,Left,Left,Right,38,39,1,yellow,2,6,/home/docky/apps/exp/images/38Y.jpeg,/home/docky/apps/exp/images/39Yi.jpeg,0,3,3,3,0,7,7,7,475.92151863098843,None,475.92151863098843,None,1,3.273923968023155,475.92151863098843,None,479.228644591989,None,479.228644591989,None,481.7318368470005,None,481.7318368470005,None,1.4510007990174927,483.5371486269869,None,483.5371486269869,None,6,1,1.0520277459872887,484.9727753979969,None,484.9727753979969,None,484.9727753979969,None,486.0413699829951,None,1,0.43361252499744296,486.0413699829951,None,44,486.49162632599473,None,134,A,1,2021_May_31_0935,GazeFlow,2020.1.2,59.88940726340828,
4,Block509.xls,A,,,,,,,,,,,,,,,,,,0,3,3,3,,,,,,,,,,,,,,,,,,,,,,,,,,,,,,,,,,,,,,,,,,,,134,A,1,2021_May_31_0935,GazeFlow,2020.1.2,59.88940726340828,
5,Block504.xls,A,4,1,11,11,11,congruent,Left,Left,Right,73,76,3,blue,2,6,/home/docky/apps/exp/images/73Bi.jpeg,/home/docky/apps/exp/images/76B.jpeg,0,4,4,4,0,0,0,0,508.1683777679864,None,508.1683777679864,None,1,2.861987181007862,508.1683777679864,None,511.0599456669879,None,511.0599456669879,None,513.5774023419945,None,513.5774023419945,None,0.9996457049855962,515.381053560006,None,515.381053560006,None,6,1,0.9846348559949547,516.3670590230031,None,516.3670590230031,None,516.3670590230031,None,517.3684795209847,None,1,0.4513352449866943,517.3684795209847,None,46,517.8363633409899,None,134,A,1,2021_May_31_0935,GazeFlow,2020.1.2,59.88940726340828,
5,Block504.xls,A,4,2,87,27,21,incongruent,Right,Left,Right,72,77,5,yellow,2,6,/home/docky/apps/exp/images/72Y.jpeg,/home/docky/apps/exp/images/77Yi.jpeg,0,4,4,4,0,1,1,1,518.8379690760048,None,518.8379690760048,None,1,3.3909944140177686,518.8379690760048,None,522.2623063939973,None,522.2623063939973,None,524.7651941750082,None,524.7651941750082,None,1.518062702001771,526.5689815729856,None,526.5689815729856,None,6,1,0.9691485580115113,528.0729799100081,None,528.0729799100081,None,528.0729799100081,None,529.0581666940125,None,1,0.46729529998265207,529.0581666940125,None,48,529.5418359159958,None,134,A,1,2021_May_31_0935,GazeFlow,2020.1.2,59.88940726340828,
5,Block504.xls,A,4,3,48,48,12,congruent,Right,Right,Left,39,38,1,yellow,2,5,/home/docky/apps/exp/images/39Yi.jpeg,/home/docky/apps/exp/images/38Y.jpeg,0,4,4,4,0,2,2,2,530.5441937319993,None,530.5441937319993,None,1,3.641313578002155,530.5441937319993,None,534.2189812939905,None,534.2189812939905,None,536.7238383239892,None,536.7238383239892,None,0.9999159470025916,538.5257377600065,None,538.5257377600065,None,5,1,1.0848791759926826,539.5120105110109,None,539.5120105110109,None,539.5120105110109,None,540.6134747040051,None,1,0.4675623800139874,540.6134747040051,None,50,541.0975972849992,None,134,A,1,2021_May_31_0935,GazeFlow,2020.1.2,59.88940726340828,
5,Block504.xls,A,4,4,38,38,12,congruent,Right,Right,Left,79,73,6,blue,2,5,/home/docky/apps/exp/images/79B.jpeg,/home/docky/apps/exp/images/73Bi.jpeg,0,4,4,4,0,3,3,3,542.0998801639944,None,542.0998801639944,None,1,3.607524999999441,542.0998801639944,None,545.7425765089865,None,545.7425765089865,None,548.2442017199937,None,548.2442017199937,None,0.9999118100095075,550.0478137249884,None,550.0478137249884,None,5,1,1.0518392139929347,551.0341850580007,None,551.0341850580007,None,551.0341850580007,None,552.1024397499859,None,1,0.48482584400335327,552.1024397499859,None,52,552.6033733799995,None,134,A,1,2021_May_31_0935,GazeFlow,2020.1.2,59.88940726340828,
5,Block504.xls,A,4,5,2,2,11,congruent,Left,Left,Right,16,19,3,blue,2,6,/home/docky/apps/exp/images/16B.jpeg,/home/docky/apps/exp/images/19Bi.jpeg,0,4,4,4,0,4,4,4,553.605503180006,None,553.605503180006,None,1,9.819873789994745,553.605503180006,None,563.4591948190064,None,563.4591948190064,None,565.962052582996,None,565.962052582996,None,1.050632830010727,567.7603233859991,None,567.7603233859991,None,6,1,1.1014272220199928,568.8023933689983,None,568.8023933689983,None,568.8023933689983,None,569.9208235509868,None,1,0.5847060089872684,569.9208235509868,None,54,570.52148932399,None,134,A,1,2021_May_31_0935,GazeFlow,2020.1.2,59.88940726340828,
5,Block504.xls,A,4,6,73,13,21,incongruent,Right,Left,Right,80,83,3,blue,2,6,/home/docky/apps/exp/images/80Bi.jpeg,/home/docky/apps/exp/images/83B.jpeg,0,4,4,4,0,5,5,5,571.524226073001,None,571.524226073001,None,1,4.425783293991117,571.524226073001,None,575.9835158519854,None,575.9835158519854,None,578.4868271060113,None,578.4868271060113,None,1.450864589016419,580.2901925070037,None,580.2901925070037,None,6,1,1.0192494289949536,581.7273248969868,None,581.7273248969868,None,581.7273248969868,None,582.7623150130094,None,1,0.40121992499916814,582.7623150130094,None,56,583.1796846129873,None,134,A,1,2021_May_31_0935,GazeFlow,2020.1.2,59.88940726340828,
5,Block504.xls,A,4,7,63,3,21,incongruent,Right,Left,Right,35,38,3,blue,2,6,/home/docky/apps/exp/images/35B.jpeg,/home/docky/apps/exp/images/38Bi.jpeg,0,4,4,4,0,6,6,6,584.1816726140096,None,584.1816726140096,None,1,6.2460034049872775,584.1816726140096,None,590.4615220210108,None,590.4615220210108,None,592.9645559040073,None,592.9645559040073,None,1.1172125349985436,594.7631867309974,None,594.7631867309974,None,6,1,0.9341376759984996,595.8718926929869,None,595.8718926929869,None,595.8718926929869,None,596.822774789005,None,1,0.46822773601161316,596.822774789005,None,58,597.3074324720073,None,134,A,1,2021_May_31_0935,GazeFlow,2020.1.2,59.88940726340828,
5,Block504.xls,A,4,8,86,26,21,incongruent,Right,Left,Right,72,77,5,yellow,2,6,/home/docky/apps/exp/images/72Yi.jpeg,/home/docky/apps/exp/images/77Y.jpeg,0,4,4,4,0,7,7,7,598.3091772260086,None,598.3091772260086,None,1,3.825049418985145,598.3091772260086,None,602.1676480289898,None,602.1676480289898,None,604.674761784001,None,604.674761784001,None,1.0670185339986347,606.4741777669988,None,606.4741777669988,None,6,1,0.9181747479888145,607.5273686019937,None,607.5273686019937,None,607.5273686019937,None,608.4623103020131,None,1,0.434461183991516,608.4623103020131,None,60,608.9132808090071,None,134,A,1,2021_May_31_0935,GazeFlow,2020.1.2,59.88940726340828,
5,Block504.xls,A,,,,,,,,,,,,,,,,,,0,4,4,4,,,,,,,,,,,,,,,,,,,,,,,,,,,,,,,,,,,,,,,,,,,,134,A,1,2021_May_31_0935,GazeFlow,2020.1.2,59.88940726340828,
6,Block511.xls,A,11,1,15,15,11,congruent,Left,Left,Right,80,83,3,blue,2,6,/home/docky/apps/exp/images/80Bi.jpeg,/home/docky/apps/exp/images/83B.jpeg,0,5,5,5,0,0,0,0,629.571557910007,None,629.571557910007,None,1,2.74680797898327,629.571557910007,None,632.3426210040052,None,632.3426210040052,None,634.8660564289894,None,634.8660564289894,None,0.9662102590082213,636.6613621569995,None,636.6613621569995,None,6,1,1.0345291569828987,637.6193087470019,None,637.6193087470019,None,637.6193087470019,None,638.6708186939941,None,1,0.4179559849726502,638.6708186939941,None,62,639.1052709080104,None,134,A,1,2021_May_31_0935,GazeFlow,2020.1.2,59.88940726340828,
6,Block511.xls,A,11,2,105,45,22,incongruent,Left,Right,Left,39,38,1,blue,2,5,/home/docky/apps/exp/images/39Bi.jpeg,/home/docky/apps/exp/images/38B.jpeg,0,5,5,5,0,1,1,1,640.1068255029968,None,640.1068255029968,None,1,4.092093863990158,640.1068255029968,None,644.2325217839971,None,644.2325217839971,None,646.7349926210009,None,646.7349926210009,None,0.9999922639981378,648.5408281889977,None,648.5408281889977,None,5,1,1.5698046420002356,649.525629212003,None,649.525629212003,None,649.525629212003,None,651.111989322002,None,1,0.4670429280085955,651.111989322002,None,64,651.5958584820037,None,134,A,1,2021_May_31_0935,GazeFlow,2020.1.2,59.88940726340828,
6,Block511.xls,A,11,3,68,8,21,incongruent,Right,Left,Right,38,39,1,blue,2,6,/home/docky/apps/exp/images/38B.jpeg,/home/docky/apps/exp/images/39Bi.jpeg,0,5,5,5,0,2,2,2,652.5978625429852,None,652.5978625429852,None,1,3.6076323369925376,652.5978625429852,None,656.2392676640011,None,656.2392676640011,None,658.7421550219879,None,658.7421550219879,None,0.9333988830039743,660.5452731059922,None,660.5452731059922,None,6,1,1.1185921629949007,661.4652646119939,None,661.4652646119939,None,661.4652646119939,None,662.6003651320061,None,1,0.5857500480196904,662.6003651320061,None,66,663.2018705210066,None,134,A,1,2021_May_31_0935,GazeFlow,2020.1.2,59.88940726340828,
6,Block511.xls,A,11,4,80,20,21,incongruent,Right,Left,Right,62,65,3,yellow,2,6,/home/docky/apps/exp/images/38Bi.jpeg,/home/docky/apps/exp/images/35B.jpeg,0,5,5,5,0,3,3,3,664.2036275319988,None,664.2036275319988,None,1,4.008476281014737,664.2036275319988,None,668.2459092669887,None,668.2459092669887,None,670.7483081819955,None,670.7483081819955,None,0.9835244209971279,672.5524351850036,None,672.5524351850036,None,6,1,0.9510662169777788,673.5222724360065,None,673.5222724360065,None,673.5222724360065,None,674.490248660004,None,1,0.5018754450138658,674.490248660004,None,68,675.008384922985,None,134,A,1,2021_May_31_0935,GazeFlow,2020.1.2,59.88940726340828,
6,Block511.xls,A,11,5,5,5,11,congruent,Left,Left,Right,65,66,1,blue,2,6,/home/docky/apps/exp/images/35Yi.jpeg,/home/docky/apps/exp/images/66B.jpeg,0,5,5,5,0,4,4,4,676.0098986800003,None,676.0098986800003,None,1,3.2402848670026287,676.0098986800003,None,679.2818184350035,None,679.2818184350035,None,681.789125765994,None,681.789125765994,None,0.8164069509948604,683.5903663609934,None,683.5903663609934,None,6,1,0.917520393995801,684.3937376349932,None,684.3937376349932,None,684.3937376349932,None,685.3280697070004,None,1,0.3842435279802885,685.3280697070004,None,70,685.7286246609874,None,134,A,1,2021_May_31_0935,GazeFlow,2020.1.2,59.88940726340828,
6,Block511.xls,A,11,6,18,18,11,congruent,Left,Left,Right,65,66,1,yellow,2,6,/home/docky/apps/exp/images/35B.jpeg,/home/docky/apps/exp/images/66Yi.jpeg,0,5,5,5,0,5,5,5,686.7306994120008,None,686.7306994120008,None,1,3.1567228279891424,686.7306994120008,None,689.9212018479884,None,689.9212018479884,None,692.4239095349913,None,692.4239095349913,None,0.7498521849920508,694.2271549210127,None,694.2271549210127,None,6,1,0.9847493269771803,694.9638831939956,None,694.9638831939956,None,694.9638831939956,None,695.965283513011,None,1,0.38419429201167077,695.965283513011,None,72,696.3662525719847,None,134,A,1,2021_May_31_0935,GazeFlow,2020.1.2,59.88940726340828,
6,Block511.xls,A,11,7,25,25,11,congruent,Left,Left,Right,69,75,6,yellow,2,6,/home/docky/apps/exp/images/69Yi.jpeg,/home/docky/apps/exp/images/76Y.jpeg,0,5,5,5,0,6,6,6,697.3680046689988,None,697.3680046689988,None,1,3.975217409984907,697.3680046689988,None,701.3770529550093,None,701.3770529550093,None,703.8832715330063,None,703.8832715330063,None,0.8331616570067126,705.6787207640009,None,705.6787207640009,None,6,1,1.0345616760023404,706.5032616450044,None,706.5032616450044,None,706.5032616450044,None,707.5544362950022,None,1,0.41758042701985687,707.5544362950022,None,74,707.9886342310056,None,134,A,1,2021_May_31_0935,GazeFlow,2020.1.2,59.88940726340828,
6,Block511.xls,A,11,8,3,3,11,congruent,Left,Left,Right,35,38,3,blue,2,6,/home/docky/apps/exp/images/35Bi.jpeg,/home/docky/apps/exp/images/38B.jpeg,0,5,5,5,0,7,7,7,708.9904669759853,None,708.9904669759853,None,1,3.157039649988292,708.9904669759853,None,712.1811785509926,None,712.1811785509926,None,714.6858894159959,None,714.6858894159959,None,0.7327499350067228,716.487796166999,None,716.487796166999,None,6,1,3.656685029010987,717.2070933019859,None,717.2070933019859,None,717.2070933019859,None,720.8801713270077,None,1,1.3367315459763631,720.8801713270077,None,76,722.2334272600128,None,134,A,1,2021_May_31_0935,GazeFlow,2020.1.2,59.88940726340828,
6,Block511.xls,A,,,,,,,,,,,,,,,,,,0,5,5,5,,,,,,,,,,,,,,,,,,,,,,,,,,,,,,,,,,,,,,,,,,,,134,A,1,2021_May_31_0935,GazeFlow,2020.1.2,59.88940726340828,
7,Block508.xls,A,8,1,13,13,11,congruent,Left,Left,Right,76,79,3,blue,2,6,/home/docky/apps/exp/images/76Bi.jpeg,/home/docky/apps/exp/images/79B.jpeg,0,6,6,6,0,0,0,0,743.5759511800134,None,743.5759511800134,None,1,3.412798920995556,743.5759511800134,None,747.0151047229883,None,747.0151047229883,None,749.5371314960066,None,749.5371314960066,None,2.085000206978293,751.33847771,None,751.33847771,None,6,1,1.2347893480036873,753.4108544260089,None,753.4108544260089,None,753.4108544260089,None,754.6625951229944,None,1,0.584848022001097,754.6625951229944,None,78,755.2638819610002,None,134,A,1,2021_May_31_0935,GazeFlow,2020.1.2,59.88940726340828,
7,Block508.xls,A,8,2,21,21,11,congruent,Left,Left,Right,62,65,3,yellow,2,6,/home/docky/apps/exp/images/38B.jpeg,/home/docky/apps/exp/images/35Bi.jpeg,0,6,6,6,0,1,1,1,756.2660535160103,None,756.2660535160103,None,1,3.8750058529840317,756.2660535160103,None,760.1745475220087,None,760.1745475220087,None,762.6795673700108,None,762.6795673700108,None,2.235522142989794,764.4807560420013,None,764.4807560420013,None,6,1,1.0681190670002252,766.7033080729889,None,766.7033080729889,None,766.7033080729889,None,767.7880459770095,None,1,0.48442076198989525,767.7880459770095,None,80,768.2890836820006,None,134,A,1,2021_May_31_0935,GazeFlow,2020.1.2,59.88940726340828,
7,Block508.xls,A,8,3,99,39,22,incongruent,Left,Right,Left,79,76,3,blue,2,5,/home/docky/apps/exp/images/79Bi.jpeg,/home/docky/apps/exp/images/76B.jpeg,0,6,6,6,0,2,2,2,769.2915176549868,None,769.2915176549868,None,1,3.542586202995153,769.2915176549868,None,772.8621843830042,None,772.8621843830042,None,775.3690086000133,None,775.3690086000133,None,1.6012224739824887,777.1739481519908,None,777.1739481519908,None,5,1,0.9354294929944444,778.7601404259913,None,778.7601404259913,None,778.7601404259913,None,779.7116807420098,None,1,0.5173329600074794,779.7116807420098,None,82,780.2453595040133,None,134,A,1,2021_May_31_0935,GazeFlow,2020.1.2,59.88940726340828,
7,Block508.xls,A,8,4,37,37,12,congruent,Right,Right,Left,66,65,1,blue,2,5,/home/docky/apps/exp/images/66Bi.jpeg,/home/docky/apps/exp/images/35Y.jpeg,0,6,6,6,0,3,3,3,781.2477322829945,None,781.2477322829945,None,1,3.5245221910008695,781.2477322829945,None,784.8055535450112,None,784.8055535450112,None,787.3087933979987,None,787.3087933979987,None,1.6515277549915481,789.1137572230073,None,789.1137572230073,None,6,0,0.9855123339802958,790.7500954169955,None,790.7500954169955,None,790.7500954169955,None,791.7517708209925,None,1,0.4507034420093987,791.7517708209925,None,80,792.2189050590096,None,134,A,1,2021_May_31_0935,GazeFlow,2020.1.2,59.88940726340828,
7,Block508.xls,A,8,5,82,22,21,incongruent,Right,Left,Right,38,39,1,yellow,2,6,/home/docky/apps/exp/images/38Y.jpeg,/home/docky/apps/exp/images/39Yi.jpeg,0,6,6,6,0,4,4,4,793.220896571991,None,793.220896571991,None,1,3.1238975640153512,793.220896571991,None,796.3782751509862,None,796.3782751509862,None,798.8826016410021,None,798.8826016410021,None,1.066933510999661,800.6794577130058,None,800.6794577130058,None,5,0,1.018279502983205,801.738299944991,None,801.738299944991,None,801.738299944991,None,802.7730143759982,None,1,0.45166718898690306,802.7730143759982,None,78,803.2403103729885,None,134,A,1,2021_May_31_0935,GazeFlow,2020.1.2,59.88940726340828,
7,Block508.xls,A,8,6,104,44,22,incongruent,Left,Right,Left,39,38,1,blue,2,5,/home/docky/apps/exp/images/39B.jpeg,/home/docky/apps/exp/images/38Bi.jpeg,0,6,6,6,0,5,5,5,804.2422222649911,None,804.2422222649911,None,1,3.4574015449907165,804.2422222649911,None,807.733472197986,None,807.733472197986,None,810.2365761940018,None,810.2365761940018,None,0.0990899559983518,812.0389736969955,None,812.0389736969955,None,6,0,1.7257833569892682,812.1348432640079,None,812.1348432640079,None,812.1348432640079,None,813.8773941000109,None,1,0.5678269199852366,813.8773941000109,None,76,814.461889217986,None,134,A,1,2021_May_31_0935,GazeFlow,2020.1.2,59.88940726340828,
7,Block508.xls,A,8,7,39,39,12,congruent,Right,Right,Left,79,73,6,blue,2,5,/home/docky/apps/exp/images/79B.jpeg,/home/docky/apps/exp/images/73Bi.jpeg,0,6,6,6,0,6,6,6,815.464334741002,None,815.464334741002,None,1,3.6077869850269053,815.464334741002,None,819.1055063820095,None,819.1055063820095,None,821.6089855030004,None,821.6089855030004,None,0.9501540100027341,823.4118373210076,None,823.4118373210076,None,5,1,1.0348019860102795,824.348509789008,None,824.348509789008,None,824.348509789008,None,825.4000621699961,None,1,0.5349392220086884,825.4000621699961,None,78,825.9512263200013,None,134,A,1,2021_May_31_0935,GazeFlow,2020.1.2,59.88940726340828,
7,Block508.xls,A,8,8,36,36,12,congruent,Right,Right,Left,66,65,1,blue,2,5,/home/docky/apps/exp/images/66B.jpeg,/home/docky/apps/exp/images/35Yi.jpeg,0,6,6,6,0,7,7,7,826.952991158003,None,826.952991158003,None,1,3.2072709419880994,826.952991158003,None,830.1938755470037,None,830.1938755470037,None,832.6984956570086,None,832.6984956570086,None,1.0836511950183194,834.5002243630006,None,834.5002243630006,None,6,0,0.9345813019899651,835.5704372730106,None,835.5704372730106,None,835.5704372730106,None,836.5214192479907,None,1,0.5180199689930305,836.5214192479907,None,76,837.0561024670023,None,134,A,1,2021_May_31_0935,GazeFlow,2020.1.2,59.88940726340828,
7,Block508.xls,A,,,,,,,,,,,,,,,,,,0,6,6,6,,,,,,,,,,,,,,,,,,,,,,,,,,,,,,,,,,,,,,,,,,,,134,A,1,2021_May_31_0935,GazeFlow,2020.1.2,59.88940726340828,
8,Block510.xls,A,10,1,102,42,22,incongruent,Left,Right,Left,83,80,3,blue,2,5,/home/docky/apps/exp/images/83B.jpeg,/home/docky/apps/exp/images/80Bi.jpeg,0,7,7,7,0,0,0,0,857.1630253019975,None,857.1630253019975,None,1,4.0142151009931695,857.1630253019975,None,861.2074026720074,None,861.2074026720074,None,863.7253807809902,None,863.7253807809902,None,0.8492899039993063,865.5292471229914,None,865.5292471229914,None,5,1,1.101510094013065,866.3635988899914,None,866.3635988899914,None,866.3635988899914,None,867.4817046569951,None,1,0.6014087499934249,867.4817046569951,None,78,868.0996945310035,None,134,A,1,2021_May_31_0935,GazeFlow,2020.1.2,59.88940726340828,
8,Block510.xls,A,10,2,114,54,22,incongruent,Left,Right,Left,76,69,7,yellow,2,5,/home/docky/apps/exp/images/76Yi.jpeg,/home/docky/apps/exp/images/69Y.jpeg,0,7,7,7,0,1,1,1,869.1014689870062,None,869.1014689870062,None,1,3.7580512650019955,869.1014689870062,None,872.8933874449867,None,872.8933874449867,None,875.4004458450072,None,875.4004458450072,None,1.1171654950012453,877.1998712710047,None,877.1998712710047,None,5,1,1.0184328719915356,878.303288080002,None,878.303288080002,None,878.303288080002,None,879.337973362999,None,1,0.5178356280084699,879.337973362999,None,80,879.8722916739935,None,134,A,1,2021_May_31_0935,GazeFlow,2020.1.2,59.88940726340828,
8,Block510.xls,A,10,3,72,12,21,incongruent,Right,Left,Right,76,79,3,blue,2,6,/home/docky/apps/exp/images/76Bi.jpeg,/home/docky/apps/exp/images/79B.jpeg,0,7,7,7,0,2,2,2,880.8745547519939,None,880.8745547519939,None,1,3.2909318299789447,880.8745547519939,None,884.1987221809977,None,884.1987221809977,None,886.7034545190108,None,886.7034545190108,None,1.1007351130247116,888.5050931329897,None,888.5050931329897,None,6,1,0.9845253149978817,889.5919650949945,None,889.5919650949945,None,889.5919650949945,None,890.5933397889894,None,1,0.5182810369879007,890.5933397889894,None,82,891.1281445419881,None,134,A,1,2021_May_31_0935,GazeFlow,2020.1.2,59.88940726340828,
8,Block510.xls,A,10,4,112,52,22,incongruent,Left,Right,Left,75,69,6,yellow,2,5,/home/docky/apps/exp/images/76Y.jpeg,/home/docky/apps/exp/images/69Yi.jpeg,0,7,7,7,0,3,3,3,892.1298731800052,None,892.1298731800052,None,1,3.5573871890082955,892.1298731800052,None,895.7209804420127,None,895.7209804420127,None,898.2239010639896,None,898.2239010639896,None,1.2173149020236451,900.0290621200111,None,900.0290621200111,None,5,1,1.0514095569960773,901.2312535620003,None,901.2312535620003,None,901.2312535620003,None,902.299308799993,None,1,0.535018089984078,902.299308799993,None,84,902.8507773739984,None,134,A,1,2021_May_31_0935,GazeFlow,2020.1.2,59.88940726340828,
8,Block510.xls,A,10,5,17,17,11,congruent,Left,Left,Right,33,35,2,yellow,2,6,/home/docky/apps/exp/images/33Y.jpeg,/home/docky/apps/exp/images/35Yi.jpeg,0,7,7,7,0,4,4,4,903.8525999120029,None,903.8525999120029,None,1,4.258657119993586,903.8525999120029,None,908.1451275800064,None,908.1451275800064,None,910.6485245299991,None,910.6485245299991,None,1.2175378910033032,912.4515861450054,None,912.4515861450054,None,6,1,1.0348873950133566,913.6553102160105,None,913.6553102160105,None,913.6553102160105,None,914.7067406809947,None,1,0.4680481779796537,914.7067406809947,None,86,915.1913938790094,None,134,A,1,2021_May_31_0935,GazeFlow,2020.1.2,59.88940726340828,
8,Block510.xls,A,10,6,31,31,12,congruent,Right,Right,Left,19,16,3,blue,2,5,/home/docky/apps/exp/images/19Bi.jpeg,/home/docky/apps/exp/images/16B.jpeg,0,7,7,7,0,5,5,5,916.1931466929964,None,916.1931466929964,None,1,3.173869785008719,916.1931466929964,None,919.4003411529993,None,919.4003411529993,None,921.9030120930111,None,921.9030120930111,None,1.3342552609974518,923.7013527759991,None,923.7013527759991,None,5,1,1.0020095180079807,925.0274635269889,None,925.0274635269889,None,925.0274635269889,None,926.0460244370042,None,1,0.4842576340015512,926.0460244370042,None,88,926.546859989001,None,134,A,1,2021_May_31_0935,GazeFlow,2020.1.2,59.88940726340828,
8,Block510.xls,A,10,7,61,1,21,incongruent,Right,Left,Right,16,19,3,blue,2,6,/home/docky/apps/exp/images/16Bi.jpeg,/home/docky/apps/exp/images/19B.jpeg,0,7,7,7,0,6,6,6,927.5482726279879,None,927.5482726279879,None,1,3.1573632509971503,927.5482726279879,None,930.7374116760038,None,930.7374116760038,None,933.2436194480106,None,933.2436194480106,None,1.0670310300192796,935.0456089870131,None,935.0456089870131,None,6,1,0.9346187330083922,936.0989079700084,None,936.0989079700084,None,936.0989079700084,None,937.0501514539937,None,1,0.5678909500129521,937.0501514539937,None,90,937.6350086639868,None,134,A,1,2021_May_31_0935,GazeFlow,2020.1.2,59.88940726340828,
8,Block510.xls,A,10,8,94,34,22,incongruent,Left,Right,Left,38,35,3,blue,2,5,/home/docky/apps/exp/images/38Bi.jpeg,/home/docky/apps/exp/images/35B.jpeg,0,7,7,7,0,7,7,7,938.6366771419998,None,938.6366771419998,None,1,3.240257617988391,938.6366771419998,None,941.90923535201,None,941.90923535201,None,944.4135410599993,None,944.4135410599993,None,1.0503222039842512,946.2169227589911,None,946.2169227589911,None,5,1,0.9177788719825912,947.2540111989947,None,947.2540111989947,None,947.2540111989947,None,948.1884744330018,None,1,0.4519430999935139,948.1884744330018,None,92,948.6565321869857,None,134,A,1,2021_May_31_0935,GazeFlow,2020.1.2,59.88940726340828,
8,Block510.xls,A,,,,,,,,,,,,,,,,,,0,7,7,7,,,,,,,,,,,,,,,,,,,,,,,,,,,,,,,,,,,,,,,,,,,,134,A,1,2021_May_31_0935,GazeFlow,2020.1.2,59.88940726340828,
9,Block507.xls,A,7,1,110,50,22,incongruent,Left,Right,Left,66,65,1,yellow,2,5,/home/docky/apps/exp/images/66Y.jpeg,/home/docky/apps/exp/images/35Bi.jpeg,0,8,8,8,0,0,0,0,968.5448800490121,None,968.5448800490121,None,1,3.5623132509936113,968.5448800490121,None,972.1369098319847,None,972.1369098319847,None,974.6560094020097,None,974.6560094020097,None,0.8161633760028053,976.4614235780027,None,976.4614235780027,None,6,0,1.0516036379849538,977.2622244099912,None,977.2622244099912,None,977.2622244099912,None,978.3303313220094,None,1,0.5014565970050171,978.3303313220094,None,90,978.8484416599968,None,134,A,1,2021_May_31_0935,GazeFlow,2020.1.2,59.88940726340828,
9,Block507.xls,A,7,2,90,30,22,incongruent,Right,Left,Right,16,19,3,blue,2,6,/home/docky/apps/exp/images/16Bi.jpeg,/home/docky/apps/exp/images/19B.jpeg,0,8,8,8,0,1,1,1,979.8500190629857,None,979.8500190629857,None,1,4.292350526986411,979.8500190629857,None,984.1762901000038,None,984.1762901000038,None,986.6791249139933,None,986.6791249139933,None,1.1007336449983995,988.4829551260045,None,988.4829551260045,None,6,1,0.8847994609968737,989.569341688999,None,989.569341688999,None,989.569341688999,None,990.4706549909897,None,1,0.5019667920132633,990.4706549909897,None,92,990.9887402380118,None,134,A,1,2021_May_31_0935,GazeFlow,2020.1.2,59.88940726340828,
9,Block507.xls,A,7,3,16,16,11,congruent,Left,Left,Right,33,35,2,yellow,2,6,/home/docky/apps/exp/images/33Yi.jpeg,/home/docky/apps/exp/images/35Y.jpeg,0,8,8,8,0,2,2,2,991.9902857269917,None,991.9902857269917,None,1,3.0400327109964564,991.9902857269917,None,995.064063222002,None,995.064063222002,None,997.5662939419854,None,997.5662939419854,None,0.9499810959969182,999.3696838729957,None,999.3696838729957,None,6,1,0.9015776860178448,1000.3067556110036,None,1000.3067556110036,None,1000.3067556110036,None,1001.2245280730131,None,1,0.48454730401863344,1001.2245280730131,None,94,1001.7263981190044,None,134,A,1,2021_May_31_0935,GazeFlow,2020.1.2,59.88940726340828,
9,Block507.xls,A,7,4,117,57,22,incongruent,Left,Right,Left,77,72,5,yellow,2,5,/home/docky/apps/exp/images/77Y.jpeg,/home/docky/apps/exp/images/72Yi.jpeg,0,8,8,8,0,3,3,3,1002.727895819,None,1002.727895819,None,1,3.774522341991542,1002.727895819,None,1006.5361434940132,None,1006.5361434940132,None,1009.0409425850085,None,1009.0409425850085,None,1.183654738997575,1010.8410266310093,None,1010.8410266310093,None,5,1,0.9679535810137168,1012.0129696769873,None,1012.0129696769873,None,1012.0129696769873,None,1012.9982774269884,None,1,0.5004159950185567,1012.9982774269884,None,96,1013.5151999850059,None,134,A,1,2021_May_31_0935,GazeFlow,2020.1.2,59.88940726340828,
9,Block507.xls,A,7,5,53,53,12,congruent,Right,Right,Left,75,69,6,yellow,2,5,/home/docky/apps/exp/images/76Yi.jpeg,/home/docky/apps/exp/images/69Y.jpeg,0,8,8,8,0,4,4,4,1014.5175907489902,None,1014.5175907489902,None,1,3.4075010109809227,1014.5175907489902,None,1017.9565193229937,None,1017.9565193229937,None,1020.4612139920064,None,1020.4612139920064,None,0.9501753019867465,1022.2649356439942,None,1022.2649356439942,None,5,1,1.0016182530089281,1023.2013018319849,None,1023.2013018319849,None,1023.2013018319849,None,1024.219397339999,None,1,0.5685033889894839,1024.219397339999,None,98,1024.8043815490091,None,134,A,1,2021_May_31_0935,GazeFlow,2020.1.2,59.88940726340828,
9,Block507.xls,A,7,6,96,36,22,incongruent,Left,Right,Left,66,65,1,blue,2,5,/home/docky/apps/exp/images/66Bi.jpeg,/home/docky/apps/exp/images/35Y.jpeg,0,8,8,8,0,5,5,5,1025.8058874249982,None,1025.8058874249982,None,1,3.6577807450084947,1025.8058874249982,None,1029.4971841379884,None,1029.4971841379884,None,1032.0018130030076,None,1032.0018130030076,None,0.8833774499944411,1033.7989549910126,None,1033.7989549910126,None,6,0,1.0517153599939775,1034.6736313840083,None,1034.6736313840083,None,1034.6736313840083,None,1035.7417362770066,None,1,0.4178900870028883,1035.7417362770066,None,96,1036.1764389380114,None,134,A,1,2021_May_31_0935,GazeFlow,2020.1.2,59.88940726340828,
9,Block507.xls,A,7,7,58,58,12,congruent,Right,Right,Left,77,72,5,yellow,2,5,/home/docky/apps/exp/images/77Yi.jpeg,/home/docky/apps/exp/images/72Y.jpeg,0,8,8,8,0,6,6,6,1037.1780379819975,None,1037.1780379819975,None,1,3.056562246987596,1037.1780379819975,None,1040.2665845169977,None,1040.2665845169977,None,1042.7733185529942,None,1042.7733185529942,None,0.9666884370089974,1044.574681086,None,1044.574681086,None,5,1,1.0347991589806043,1045.5280909819994,None,1045.5280909819994,None,1045.5280909819994,None,1046.579717132001,None,1,0.567702553991694,1046.579717132001,None,98,1047.1644695680006,None,134,A,1,2021_May_31_0935,GazeFlow,2020.1.2,59.88940726340828,
9,Block507.xls,A,7,8,41,41,12,congruent,Right,Right,Left,79,76,3,blue,2,5,/home/docky/apps/exp/images/79Bi.jpeg,/home/docky/apps/exp/images/76B.jpeg,0,8,8,8,0,7,7,7,1048.165986876993,None,1048.165986876993,None,1,3.7747117910184897,1048.165986876993,None,1051.9744166079909,None,1051.9744166079909,None,1054.4772727119853,None,1054.4772727119853,None,1.100760897010332,1056.280411893007,None,1056.280411893007,None,5,1,0.9344303419929929,1057.3680041340122,None,1057.3680041340122,None,1057.3680041340122,None,1058.3190172750037,None,1,0.4517215460073203,1058.3190172750037,None,100,1058.7869887060078,None,134,A,1,2021_May_31_0935,GazeFlow,2020.1.2,59.88940726340828,
9,Block507.xls,A,,,,,,,,,,,,,,,,,,0,8,8,8,,,,,,,,,,,,,,,,,,,,,,,,,,,,,,,,,,,,,,,,,,,,134,A,1,2021_May_31_0935,GazeFlow,2020.1.2,59.88940726340828,
10,Block515.xls,A,15,1,107,47,22,incongruent,Left,Right,Left,35,33,2,yellow,2,5,/home/docky/apps/exp/images/35Yi.jpeg,/home/docky/apps/exp/images/33Y.jpeg,0,9,9,9,0,0,0,0,1084.4048295539978,None,1084.4048295539978,None,1,4.18067558700568,1084.4048295539978,None,1088.6130294539907,None,1088.6130294539907,None,1091.13376676201,None,1091.13376676201,None,1.2497355829982553,1092.937397095986,None,1092.937397095986,None,5,1,0.9683393989980686,1094.1725597020122,None,1094.1725597020122,None,1094.1725597020122,None,1095.1571541370067,None,1,0.5348923989804462,1095.1571541370067,None,102,1095.7085741969931,None,134,A,1,2021_May_31_0935,GazeFlow,2020.1.2,59.88940726340828,
10,Block515.xls,A,15,2,55,55,12,congruent,Right,Right,Left,76,69,7,yellow,2,5,/home/docky/apps/exp/images/76Yi.jpeg,/home/docky/apps/exp/images/69Y.jpeg,0,9,9,9,0,1,1,1,1096.7104096369876,None,1096.7104096369876,None,1,3.441017067991197,1096.7104096369876,None,1100.184740984987,None,1100.184740984987,None,1102.687292610004,None,1102.687292610004,None,1.0168839739926625,1104.490924335987,None,1104.490924335987,None,5,1,1.0178929230023641,1105.4947346450062,None,1105.4947346450062,None,1105.4947346450062,None,1106.5292861410126,None,1,0.5344997420033906,1106.5292861410126,None,104,1107.0802198869933,None,134,A,1,2021_May_31_0935,GazeFlow,2020.1.2,59.88940726340828,
10,Block515.xls,A,15,3,75,15,21,incongruent,Right,Left,Right,33,35,2,yellow,2,6,/home/docky/apps/exp/images/33Yi.jpeg,/home/docky/apps/exp/images/35Y.jpeg,0,9,9,9,0,2,2,2,1108.0827483260073,None,1108.0827483260073,None,1,4.1087207919918,1108.0827483260073,None,1112.224720260012,None,1112.224720260012,None,1114.7281983270077,None,1114.7281983270077,None,1.6848087199905422,1116.5314314219868,None,1116.5314314219868,None,5,0,0.9853346879826859,1118.2026231430063,None,1118.2026231430063,None,1118.2026231430063,None,1119.2044732430077,None,1,0.4836825219972525,1119.2044732430077,None,102,1119.704672716005,None,134,A,1,2021_May_31_0935,GazeFlow,2020.1.2,59.88940726340828,
10,Block515.xls,A,15,4,62,2,21,incongruent,Right,Left,Right,35,38,3,blue,2,6,/home/docky/apps/exp/images/35Bi.jpeg,/home/docky/apps/exp/images/38B.jpeg,0,9,9,9,0,3,3,3,1120.7068913219846,None,1120.7068913219846,None,1,3.6912309489853214,1120.7068913219846,None,1124.4303320909967,None,1124.4303320909967,None,1126.9387331489997,None,1126.9387331489997,None,1.4843393320043106,1128.7326583210088,None,1128.7326583210088,None,6,1,0.9687057269911747,1130.2091810590064,None,1130.2091810590064,None,1130.2091810590064,None,1131.1942718749924,None,1,0.43408518499927595,1131.1942718749924,None,104,1131.6446598650073,None,134,A,1,2021_May_31_0935,GazeFlow,2020.1.2,59.88940726340828,
10,Block515.xls,A,15,5,100,40,22,incongruent,Left,Right,Left,79,76,3,blue,2,5,/home/docky/apps/exp/images/79Bi.jpeg,/home/docky/apps/exp/images/76B.jpeg,0,9,9,9,0,4,4,4,1132.6467976279964,None,1132.6467976279964,None,1,2.8895568510051817,1132.6467976279964,None,1135.5700271230016,None,1135.5700271230016,None,1138.0750282180088,None,1138.0750282180088,None,1.0336945969902445,1139.8764226330095,None,1139.8764226330095,None,5,1,0.9681889630155638,1140.896797016001,None,1140.896797016001,None,1140.896797016001,None,1141.8812147020071,None,1,0.5518228869768791,1141.8812147020071,None,106,1142.4495145329856,None,134,A,1,2021_May_31_0935,GazeFlow,2020.1.2,59.88940726340828,
10,Block515.xls,A,15,6,108,48,22,incongruent,Left,Right,Left,39,38,1,yellow,2,5,/home/docky/apps/exp/images/39Y.jpeg,/home/docky/apps/exp/images/38Yi.jpeg,0,9,9,9,0,5,5,5,1143.45120770199,None,1143.45120770199,None,1,3.0902750469977036,1143.45120770199,None,1146.5747470410133,None,1146.5747470410133,None,1149.0779741820006,None,1149.0779741820006,None,1.0668267619912513,1150.8813504810096,None,1150.8813504810096,None,6,0,1.0015688959974796,1151.9347741889942,None,1151.9347741889942,None,1151.9347741889942,None,1152.9527960229898,None,1,0.45164540500263683,1152.9527960229898,None,104,1153.4207842960022,None,134,A,1,2021_May_31_0935,GazeFlow,2020.1.2,59.88940726340828,
10,Block515.xls,A,15,7,59,59,12,congruent,Right,Right,Left,80,79,1,yellow,2,5,/home/docky/apps/exp/images/80Y.jpeg,/home/docky/apps/exp/images/79Yi.jpeg,0,9,9,9,0,6,6,6,1154.4224257580063,None,1154.4224257580063,None,1,2.8563137460150756,1154.4224257580063,None,1157.3123180569964,None,1157.3123180569964,None,1159.8172972140019,None,1159.8172972140019,None,1.1169740739860572,1161.6205426350061,None,1161.6205426350061,None,6,0,0.9016513290116563,1162.7221464249888,None,1162.7221464249888,None,1162.7221464249888,None,1163.640219827008,None,1,0.5511809610179625,1163.640219827008,None,102,1164.2077986270015,None,134,A,1,2021_May_31_0935,GazeFlow,2020.1.2,59.88940726340828,
10,Block515.xls,A,15,8,8,8,11,congruent,Left,Left,Right,38,39,1,blue,2,6,/home/docky/apps/exp/images/38B.jpeg,/home/docky/apps/exp/images/39Bi.jpeg,0,9,9,9,0,7,7,7,1165.2098539370054,None,1165.2098539370054,None,1,2.739802055002656,1165.2098539370054,None,1167.9831129490049,None,1167.9831129490049,None,1170.487487350998,None,1170.487487350998,None,1.217262750986265,1172.2891904370044,None,1172.2891904370044,None,5,0,1.0016129540163092,1173.4933357610134,None,1173.4933357610134,None,1173.4933357610134,None,1174.5115966429876,None,1,0.5176413859880995,1174.5115966429876,None,100,1175.0460900730104,None,134,A,1,2021_May_31_0935,GazeFlow,2020.1.2,59.88940726340828,
10,Block515.xls,A,,,,,,,,,,,,,,,,,,0,9,9,9,,,,,,,,,,,,,,,,,,,,,,,,,,,,,,,,,,,,,,,,,,,,134,A,1,2021_May_31_0935,GazeFlow,2020.1.2,59.88940726340828,
11,Block512.xls,A,12,1,30,30,11,congruent,Left,Left,Right,79,82,3,yellow,2,6,/home/docky/apps/exp/images/79Yi.jpeg,/home/docky/apps/exp/images/80Y.jpeg,0,10,10,10,0,0,0,0,1200.7142381840094,None,1200.7142381840094,None,1,3.6804335019842256,1200.7142381840094,None,1204.4218721479992,None,1204.4218721479992,None,1206.9401456170017,None,1206.9401456170017,None,0.9993658349849284,1208.7384979719936,None,1208.7384979719936,None,6,1,0.9678830610064324,1209.7306032550114,None,1209.7306032550114,None,1209.7306032550114,None,1210.7150169759989,None,1,0.4680717079900205,1210.7150169759989,None,102,1211.199569357006,None,134,A,1,2021_May_31_0935,GazeFlow,2020.1.2,59.88940726340828,
11,Block512.xls,A,12,2,115,55,22,incongruent,Left,Right,Left,76,69,7,yellow,2,5,/home/docky/apps/exp/images/76Yi.jpeg,/home/docky/apps/exp/images/69Y.jpeg,0,10,10,10,0,1,1,1,1212.201150723995,None,1212.201150723995,None,1,4.108724578021793,1212.201150723995,None,1216.3436542679847,None,1216.3436542679847,None,1218.8463376520085,None,1218.8463376520085,None,1.1170607730164193,1220.6448315200105,None,1220.6448315200105,None,5,1,0.9181399609951768,1221.7537395719846,None,1221.7537395719846,None,1221.7537395719846,None,1222.688174437004,None,1,0.5354060000099707,1222.688174437004,None,104,1223.239723478997,None,134,A,1,2021_May_31_0935,GazeFlow,2020.1.2,59.88940726340828,
11,Block512.xls,A,12,3,66,6,21,incongruent,Right,Left,Right,38,39,1,blue,2,6,/home/docky/apps/exp/images/38B.jpeg,/home/docky/apps/exp/images/39Bi.jpeg,0,10,10,10,0,2,2,2,1224.2414793540083,None,1224.2414793540083,None,1,3.991974738019053,1224.2414793540083,None,1228.2670143989963,None,1228.2670143989963,None,1230.7697905699897,None,1230.7697905699897,None,1.0504704620107077,1232.5737493379856,None,1232.5737493379856,None,6,1,1.0015947240171954,1233.6099603720068,None,1233.6099603720068,None,1233.6099603720068,None,1234.628097428009,None,1,0.46824164598365314,1234.628097428009,None,106,1235.112337677012,None,134,A,1,2021_May_31_0935,GazeFlow,2020.1.2,59.88940726340828,
11,Block512.xls,A,12,4,35,35,12,congruent,Right,Right,Left,66,65,1,blue,2,5,/home/docky/apps/exp/images/66B.jpeg,/home/docky/apps/exp/images/35Yi.jpeg,0,10,10,10,0,3,3,3,1236.1146167689876,None,1236.1146167689876,None,1,3.5076894570083823,1236.1146167689876,None,1239.6542031439894,None,1239.6542031439894,None,1242.1582909919962,None,1242.1582909919962,None,1.0833777170046233,1243.9619006119901,None,1243.9619006119901,None,6,0,1.0346054379770067,1245.032329173002,None,1245.032329173002,None,1245.032329173002,None,1246.08381950701,None,1,0.43472232099156827,1246.08381950701,None,104,1246.5343570630066,None,134,A,1,2021_May_31_0935,GazeFlow,2020.1.2,59.88940726340828,
11,Block512.xls,A,12,5,40,40,12,congruent,Right,Right,Left,79,76,3,blue,2,5,/home/docky/apps/exp/images/79Bi.jpeg,/home/docky/apps/exp/images/76B.jpeg,0,10,10,10,0,4,4,4,1247.5364658320032,None,1247.5364658320032,None,1,3.1067449800029863,1247.5364658320032,None,1250.6769891389995,None,1250.6769891389995,None,1253.1783834270027,None,1253.1783834270027,None,1.0670874189818278,1254.9835501959897,None,1254.9835501959897,None,5,1,2.8718675209966023,1256.0369504569971,None,1256.0369504569971,None,1256.0369504569971,None,1258.9254748100066,None,1,0.7017660249839537,1258.9254748100066,None,106,1259.643666865013,None,134,A,1,2021_May_31_0935,GazeFlow,2020.1.2,59.88940726340828,
11,Block512.xls,A,12,6,64,4,21,incongruent,Right,Left,Right,65,66,1,blue,2,6,/home/docky/apps/exp/images/35Yi.jpeg,/home/docky/apps/exp/images/66B.jpeg,0,10,10,10,0,5,5,5,1260.645712728001,None,1260.645712728001,None,1,3.690733994008042,1260.645712728001,None,1264.3671923849906,None,1264.3671923849906,None,1266.8731958839926,None,1266.8731958839926,None,1.2171162840095349,1268.671422601008,None,1268.671422601008,None,6,1,1.034706059988821,1269.8804551700014,None,1269.8804551700014,None,1269.8804551700014,None,1270.9318010270072,None,1,0.5352128499944229,1270.9318010270072,None,108,1271.4834360860114,None,134,A,1,2021_May_31_0935,GazeFlow,2020.1.2,59.88940726340828,
11,Block512.xls,A,12,7,12,12,11,congruent,Left,Left,Right,76,79,3,blue,2,6,/home/docky/apps/exp/images/76B.jpeg,/home/docky/apps/exp/images/79Bi.jpeg,0,10,10,10,0,6,6,6,1272.4847672120086,None,1272.4847672120086,None,1,2.8731345600099303,1272.4847672120086,None,1275.391625252989,None,1275.391625252989,None,1277.8938148769957,None,1277.8938148769957,None,1.7514668340154458,1279.6923597609857,None,1279.6923597609857,None,6,1,0.8349942799832206,1281.4362123330066,None,1281.4362123330066,None,1281.4362123330066,None,1282.2876928519981,None,1,0.8847091489878949,1282.2876928519981,None,110,1283.1889777150063,None,134,A,1,2021_May_31_0935,GazeFlow,2020.1.2,59.88940726340828,
11,Block512.xls,A,12,8,49,49,12,congruent,Right,Right,Left,39,38,1,yellow,2,5,/home/docky/apps/exp/images/39Y.jpeg,/home/docky/apps/exp/images/38Yi.jpeg,0,10,10,10,0,7,7,7,1284.1911543660099,None,1284.1911543660099,None,1,3.5579640840005595,1284.1911543660099,None,1287.782155533001,None,1287.782155533001,None,1290.2853714649973,None,1290.2853714649973,None,1.351242782024201,1292.0877372109971,None,1292.0877372109971,None,5,1,2.2537761779967695,1293.4262836929993,None,1293.4262836929993,None,1293.4262836929993,None,1295.6966379010119,None,1,0.9020614070177544,1295.6966379010119,None,112,1296.6152800309937,None,134,A,1,2021_May_31_0935,GazeFlow,2020.1.2,59.88940726340828,
11,Block512.xls,A,,,,,,,,,,,,,,,,,,0,10,10,10,,,,,,,,,,,,,,,,,,,,,,,,,,,,,,,,,,,,,,,,,,,,134,A,1,2021_May_31_0935,GazeFlow,2020.1.2,59.88940726340828,
12,Block503.xls,A,3,1,22,22,11,congruent,Left,Left,Right,62,65,3,yellow,2,6,/home/docky/apps/exp/images/38Bi.jpeg,/home/docky/apps/exp/images/35B.jpeg,0,11,11,11,0,0,0,0,1319.6280980639858,None,1319.6280980639858,None,1,3.047414614004083,1319.6280980639858,None,1322.6996136209927,None,1322.6996136209927,None,1325.2218878460117,None,1325.2218878460117,None,1.06654026202159,1327.0229791399906,None,1327.0229791399906,None,6,1,1.0013953070156276,1328.0769645480032,None,1328.0769645480032,None,1328.0769645480032,None,1329.0949643299973,None,1,0.5844223599997349,1329.0949643299973,None,114,1329.696264905011,None,134,A,1,2021_May_31_0935,GazeFlow,2020.1.2,59.88940726340828,
12,Block503.xls,A,3,2,65,5,21,incongruent,Right,Left,Right,65,66,1,blue,2,6,/home/docky/apps/exp/images/35Y.jpeg,/home/docky/apps/exp/images/66Bi.jpeg,0,11,11,11,0,1,1,1,1330.6982043040043,None,1330.6982043040043,None,1,3.256686873995932,1330.6982043040043,None,1333.9872579539951,None,1333.9872579539951,None,1336.4915139740042,None,1336.4915139740042,None,1.0503029849787708,1338.2956756140047,None,1338.2956756140047,None,5,0,0.9684427570027765,1339.331956856011,None,1339.331956856011,None,1339.331956856011,None,1340.3165087650123,None,1,0.4851251970103476,1340.3165087650123,None,112,1340.8176301229978,None,134,A,1,2021_May_31_0935,GazeFlow,2020.1.2,59.88940726340828,
12,Block503.xls,A,3,3,76,16,21,incongruent,Right,Left,Right,33,35,2,yellow,2,6,/home/docky/apps/exp/images/33Y.jpeg,/home/docky/apps/exp/images/35Yi.jpeg,0,11,11,11,0,2,2,2,1341.8196800459991,None,1341.8196800459991,None,1,3.4741111809853464,1341.8196800459991,None,1345.3275251860032,None,1345.3275251860032,None,1347.8302406219882,None,1347.8302406219882,None,1.0336064450093545,1349.6288353239943,None,1349.6288353239943,None,6,1,1.0515663439873606,1350.653911033005,None,1350.653911033005,None,1350.653911033005,None,1351.7225381380122,None,1,0.5850660199939739,1351.7225381380122,None,114,1352.323661308008,None,134,A,1,2021_May_31_0935,GazeFlow,2020.1.2,59.88940726340828,
12,Block503.xls,A,3,4,29,29,11,congruent,Left,Left,Right,79,82,3,yellow,2,6,/home/docky/apps/exp/images/79Y.jpeg,/home/docky/apps/exp/images/80Yi.jpeg,0,11,11,11,0,3,3,3,1353.3254826460034,None,1353.3254826460034,None,1,3.0401001690188423,1353.3254826460034,None,1356.39880830099,None,1356.39880830099,None,1358.9035639030044,None,1358.9035639030044,None,0.8666423550166655,1360.6995458620077,None,1360.6995458620077,None,6,1,1.0679855149937794,1361.5585930150119,None,1361.5585930150119,None,1361.5585930150119,None,1362.6431817050034,None,1,0.5185283309838269,1362.6431817050034,None,116,1363.1782173170068,None,134,A,1,2021_May_31_0935,GazeFlow,2020.1.2,59.88940726340828,
12,Block503.xls,A,3,5,103,43,22,incongruent,Left,Right,Left,39,38,1,blue,2,5,/home/docky/apps/exp/images/39Bi.jpeg,/home/docky/apps/exp/images/38B.jpeg,0,11,11,11,0,4,4,4,1364.1797980779957,None,1364.1797980779957,None,1,3.0397982930007856,1364.1797980779957,None,1367.25202476501,None,1367.25202476501,None,1369.7562590320013,None,1369.7562590320013,None,2.5372283660108224,1371.5592236329976,None,1371.5592236329976,None,5,1,0.8185346029931679,1374.0985487159924,None,1374.0985487159924,None,1374.0985487159924,None,1374.933792228985,None,1,0.5179687560012098,1374.933792228985,None,118,1375.4682099400088,None,134,A,1,2021_May_31_0935,GazeFlow,2020.1.2,59.88940726340828,
12,Block503.xls,A,3,6,47,47,12,congruent,Right,Right,Left,35,33,2,yellow,2,5,/home/docky/apps/exp/images/35Yi.jpeg,/home/docky/apps/exp/images/33Y.jpeg,0,11,11,11,0,5,5,5,1376.470397674013,None,1376.470397674013,None,1,3.257267851004144,1376.470397674013,None,1379.7593837240129,None,1379.7593837240129,None,1382.263553836994,None,1382.263553836994,None,1.3341710029926617,1384.0679796010081,None,1384.0679796010081,None,5,1,0.9182512520055752,1385.3880442979862,None,1385.3880442979862,None,1385.3880442979862,None,1386.3235974750132,None,1,0.45097618698491715,1386.3235974750132,None,120,1386.7906289800012,None,134,A,1,2021_May_31_0935,GazeFlow,2020.1.2,59.88940726340828,
12,Block503.xls,A,3,7,20,20,11,congruent,Left,Left,Right,65,66,1,yellow,2,6,/home/docky/apps/exp/images/35Bi.jpeg,/home/docky/apps/exp/images/66Y.jpeg,0,11,11,11,0,6,6,6,1387.7924633799994,None,1387.7924633799994,None,1,3.490493826015154,1387.7924633799994,None,1391.3169890829886,None,1391.3169890829886,None,1393.8096818549966,None,1393.8096818549966,None,0.9837121099990327,1395.622896468005,None,1395.622896468005,None,6,1,0.8675820520147681,1396.5932536679902,None,1396.5932536679902,None,1396.5932536679902,None,1397.4774398859881,None,1,0.4177532220201101,1397.4774398859881,None,122,1397.9119747820077,None,134,A,1,2021_May_31_0935,GazeFlow,2020.1.2,59.88940726340828,
12,Block503.xls,A,3,8,27,27,11,congruent,Left,Left,Right,72,77,5,yellow,2,6,/home/docky/apps/exp/images/72Yi.jpeg,/home/docky/apps/exp/images/77Y.jpeg,0,11,11,11,0,7,7,7,1398.9136134249857,None,1398.9136134249857,None,1,2.823164896981325,1398.9136134249857,None,1401.7702402640134,None,1401.7702402640134,None,1404.2737246989855,None,1404.2737246989855,None,1.6350078030081932,1406.0765301630017,None,1406.0765301630017,None,6,1,0.8516787480039056,1407.6981803470117,None,1407.6981803470117,None,1407.6981803470117,None,1408.5664051549975,None,1,0.4837719050119631,1408.5664051549975,None,124,1409.0669029080018,None,134,A,1,2021_May_31_0935,GazeFlow,2020.1.2,59.88940726340828,
12,Block503.xls,A,,,,,,,,,,,,,,,,,,0,11,11,11,,,,,,,,,,,,,,,,,,,,,,,,,,,,,,,,,,,,,,,,,,,,134,A,1,2021_May_31_0935,GazeFlow,2020.1.2,59.88940726340828,
13,Block501.xls,A,1,1,54,54,12,congruent,Right,Right,Left,75,69,6,yellow,2,5,/home/docky/apps/exp/images/76Y.jpeg,/home/docky/apps/exp/images/69Yi.jpeg,0,12,12,12,0,0,0,0,1426.6189881470054,None,1426.6189881470054,None,1,4.333276416000444,1426.6189881470054,None,1430.9784515629872,None,1430.9784515629872,None,1433.498623004998,None,1433.498623004998,None,0.899418857996352,1435.3024108709942,None,1435.3024108709942,None,5,1,2.5211856679816265,1436.1867895830073,None,1436.1867895830073,None,1436.1867895830073,None,1438.7243445949862,None,1,0.6847363160050008,1438.7243445949862,None,126,1439.4259706280136,None,134,A,1,2021_May_31_0935,GazeFlow,2020.1.2,59.88940726340828,
13,Block501.xls,A,1,2,70,10,21,incongruent,Right,Left,Right,73,76,3,blue,2,6,/home/docky/apps/exp/images/73Bi.jpeg,/home/docky/apps/exp/images/76B.jpeg,0,12,12,12,0,1,1,1,1440.428288428986,None,1440.428288428986,None,1,3.974966457026312,1440.428288428986,None,1444.436599128996,None,1444.436599128996,None,1446.9414197749866,None,1446.9414197749866,None,1.033695655001793,1448.7378224639979,None,1448.7378224639979,None,6,1,1.0016448190144729,1449.7628823599953,None,1449.7628823599953,None,1449.7628823599953,None,1450.7810634979978,None,1,0.6015962340170518,1450.7810634979978,None,128,1451.3994736880122,None,134,A,1,2021_May_31_0935,GazeFlow,2020.1.2,59.88940726340828,
13,Block501.xls,A,1,3,84,24,21,incongruent,Right,Left,Right,69,76,7,yellow,2,6,/home/docky/apps/exp/images/69Yi.jpeg,/home/docky/apps/exp/images/76Y.jpeg,0,12,12,12,0,2,2,2,1452.4011774930113,None,1452.4011774930113,None,1,3.4242608030035626,1452.4011774930113,None,1455.8586899100046,None,1455.8586899100046,None,1458.3621532869874,None,1458.3621532869874,None,1.5677776980155613,1460.1655583730026,None,1460.1655583730026,None,6,1,0.9686312859994359,1461.7197056300065,None,1461.7197056300065,None,1461.7197056300065,None,1462.7048679309955,None,1,0.48380908797844313,1462.7048679309955,None,130,1463.2052417760133,None,134,A,1,2021_May_31_0935,GazeFlow,2020.1.2,59.88940726340828,
13,Block501.xls,A,1,4,26,26,11,congruent,Left,Left,Right,69,75,6,yellow,2,6,/home/docky/apps/exp/images/69Y.jpeg,/home/docky/apps/exp/images/76Yi.jpeg,0,12,12,12,0,3,3,3,1464.2075687329925,None,1464.2075687329925,None,1,2.7895672130107414,1464.2075687329925,None,1467.030651920999,None,1467.030651920999,None,1469.5333082200086,None,1469.5333082200086,None,1.901956688001519,1471.3360477400129,None,1471.3360477400129,None,6,1,0.8519121620047372,1473.225354582013,None,1473.225354582013,None,1473.225354582013,None,1474.0936305290088,None,1,0.48422350801411085,1474.0936305290088,None,132,1474.5942427960108,None,134,A,1,2021_May_31_0935,GazeFlow,2020.1.2,59.88940726340828,
13,Block501.xls,A,1,5,97,37,22,incongruent,Left,Right,Left,79,73,6,blue,2,5,/home/docky/apps/exp/images/79B.jpeg,/home/docky/apps/exp/images/73Bi.jpeg,0,12,12,12,0,4,4,4,1475.5959735600045,None,1475.5959735600045,None,1,2.973512718017446,1475.5959735600045,None,1478.6090892860084,None,1478.6090892860084,None,1481.1079823409964,None,1481.1079823409964,None,1.0668306190054864,1482.9090333119966,None,1482.9090333119966,None,5,1,0.9013888119952753,1483.962702638004,None,1483.962702638004,None,1483.962702638004,None,1484.8806894790032,None,1,0.5017031619790941,1484.8806894790032,None,134,1485.3987531120074,None,134,A,1,2021_May_31_0935,GazeFlow,2020.1.2,59.88940726340828,
13,Block501.xls,A,1,6,98,38,22,incongruent,Left,Right,Left,79,73,6,blue,2,5,/home/docky/apps/exp/images/79B.jpeg,/home/docky/apps/exp/images/73Bi.jpeg,0,12,12,12,0,5,5,5,1486.4002902249922,None,1486.4002902249922,None,1,2.8397140270099044,1486.4002902249922,None,1489.273502688011,None,1489.273502688011,None,1491.7766043879965,None,1491.7766043879965,None,1.1001378030050546,1493.5803713490022,None,1493.5803713490022,None,5,1,0.8844400529924314,1494.6669696129975,None,1494.6669696129975,None,1494.6669696129975,None,1495.5681729300122,None,1,0.4681818340031896,1495.5681729300122,None,136,1496.052837758005,None,134,A,1,2021_May_31_0935,GazeFlow,2020.1.2,59.88940726340828,
13,Block501.xls,A,1,7,77,17,21,incongruent,Right,Left,Right,65,66,1,yellow,2,6,/home/docky/apps/exp/images/35B.jpeg,/home/docky/apps/exp/images/66Yi.jpeg,0,12,12,12,0,6,6,6,1497.05442400201,None,1497.05442400201,None,1,3.057014710997464,1497.05442400201,None,1500.1445784450043,None,1500.1445784450043,None,1502.6494651829998,None,1502.6494651829998,None,0.9836791759880725,1504.4512698559847,None,1504.4512698559847,None,6,1,0.9350167929951567,1505.4209723719978,None,1505.4209723719978,None,1505.4209723719978,None,1506.3724694180128,None,1,0.3851311939943116,1506.3724694180128,None,138,1506.7736900229938,None,134,A,1,2021_May_31_0935,GazeFlow,2020.1.2,59.88940726340828,
13,Block501.xls,A,1,8,50,50,12,congruent,Right,Right,Left,66,65,1,yellow,2,5,/home/docky/apps/exp/images/66Y.jpeg,/home/docky/apps/exp/images/35Bi.jpeg,0,12,12,12,0,7,7,7,1507.7752031499986,None,1507.7752031499986,None,1,2.57272844700492,1507.7752031499986,None,1510.380685756012,None,1510.380685756012,None,1512.884127096011,None,1512.884127096011,None,2.1690009069861844,1514.6823212069867,None,1514.6823212069867,None,6,0,0.918014235998271,1516.843374471995,None,1516.843374471995,None,1516.843374471995,None,1517.7776728209865,None,1,0.43441423602052964,1517.7776728209865,None,136,1518.2285569589876,None,134,A,1,2021_May_31_0935,GazeFlow,2020.1.2,59.88940726340828,
13,Block501.xls,A,,,,,,,,,,,,,,,,,,0,12,12,12,,,,,,,,,,,,,,,,,,,,,,,,,,,,,,,,,,,,,,,,,,,,134,A,1,2021_May_31_0935,GazeFlow,2020.1.2,59.88940726340828,
14,Block513.xls,A,13,1,32,32,12,congruent,Right,Right,Left,19,16,3,blue,2,5,/home/docky/apps/exp/images/19B.jpeg,/home/docky/apps/exp/images/16Bi.jpeg,0,13,13,13,0,0,0,0,1535.7475375589856,None,1535.7475375589856,None,1,3.044719964003889,1535.7475375589856,None,1538.8181437689927,None,1538.8181437689927,None,1541.3414861269994,None,1541.3414861269994,None,0.9328613270190544,1543.1428719350079,None,1543.1428719350079,None,5,1,0.9179952799750026,1544.0628965549986,None,1544.0628965549986,None,1544.0628965549986,None,1544.9974398069899,None,1,0.5521114380098879,1544.9974398069899,None,138,1545.5656303899887,None,134,A,1,2021_May_31_0935,GazeFlow,2020.1.2,59.88940726340828,
14,Block513.xls,A,13,2,81,21,21,incongruent,Right,Left,Right,38,39,1,yellow,2,6,/home/docky/apps/exp/images/38Yi.jpeg,/home/docky/apps/exp/images/39Y.jpeg,0,13,13,13,0,1,1,1,1546.5670624579943,None,1546.5670624579943,None,1,3.6083755510044284,1546.5670624579943,None,1550.2085631419905,None,1550.2085631419905,None,1552.7116742770013,None,1552.7116742770013,None,1.01738646501326,1554.5143815059855,None,1554.5143815059855,None,5,0,0.9680567200121004,1555.518601505988,None,1555.518601505988,None,1555.518601505988,None,1556.5031584420067,None,1,0.5516236819967162,1556.5031584420067,None,136,1557.070830009994,None,134,A,1,2021_May_31_0935,GazeFlow,2020.1.2,59.88940726340828,
14,Block513.xls,A,13,3,92,32,22,incongruent,Left,Right,Left,19,16,3,blue,2,5,/home/docky/apps/exp/images/19B.jpeg,/home/docky/apps/exp/images/16Bi.jpeg,0,13,13,13,0,2,2,2,1558.0727974599868,None,1558.0727974599868,None,1,3.874877291993471,1558.0727974599868,None,1561.9816978969902,None,1561.9816978969902,None,1564.4844883980113,None,1564.4844883980113,None,1.2005008010019083,1566.2875074110052,None,1566.2875074110052,None,5,1,2.354107163992012,1567.475179355999,None,1567.475179355999,None,1567.475179355999,None,1569.8457300949958,None,1,0.7014756620046683,1569.8457300949958,None,138,1570.5637760460086,None,134,A,1,2021_May_31_0935,GazeFlow,2020.1.2,59.88940726340828,
14,Block513.xls,A,13,4,6,6,11,congruent,Left,Left,Right,65,66,1,blue,2,6,/home/docky/apps/exp/images/35Y.jpeg,/home/docky/apps/exp/images/66Bi.jpeg,0,13,13,13,0,3,3,3,1571.5661564570037,None,1571.5661564570037,None,1,5.778157195018139,1571.5661564570037,None,1577.378040681011,None,1577.378040681011,None,1579.8812509609852,None,1579.8812509609852,None,1.4677379530039616,1581.6791074879875,None,1581.6791074879875,None,6,1,0.9855867600126658,1583.138621738006,None,1583.138621738006,None,1583.138621738006,None,1584.1405246639915,None,1,0.5673871530161705,1584.1405246639915,None,140,1584.7244907559943,None,134,A,1,2021_May_31_0935,GazeFlow,2020.1.2,59.88940726340828,
14,Block513.xls,A,13,5,67,7,21,incongruent,Right,Left,Right,38,39,1,blue,2,6,/home/docky/apps/exp/images/38Bi.jpeg,/home/docky/apps/exp/images/39B.jpeg,0,13,13,13,0,4,4,4,1585.7265280380088,None,1585.7265280380088,None,1,4.15933983301511,1585.7265280380088,None,1589.9190405450063,None,1589.9190405450063,None,1592.4221625339997,None,1592.4221625339997,None,1.4843334119941574,1594.226057966007,None,1594.226057966007,None,5,0,0.9016849109902978,1595.6964829619974,None,1595.6964829619974,None,1595.6964829619974,None,1596.6148260530026,None,1,0.617677525995532,1596.6148260530026,None,138,1597.2488620649965,None,134,A,1,2021_May_31_0935,GazeFlow,2020.1.2,59.88940726340828,
14,Block513.xls,A,13,6,111,51,22,incongruent,Left,Right,Left,66,65,1,yellow,2,5,/home/docky/apps/exp/images/66Yi.jpeg,/home/docky/apps/exp/images/35B.jpeg,0,13,13,13,0,5,5,5,1598.251299919997,None,1598.251299919997,None,1,3.4579431809834205,1598.251299919997,None,1601.7421642669942,None,1601.7421642669942,None,1604.245536462986,None,1604.245536462986,None,0.8664732740144245,1606.048433413991,None,1606.048433413991,None,5,1,1.0180800969828852,1606.9014289900078,None,1606.9014289900078,None,1606.9014289900078,None,1607.936468297994,None,1,0.4675984469940886,1607.936468297994,None,140,1608.4209620069887,None,134,A,1,2021_May_31_0935,GazeFlow,2020.1.2,59.88940726340828,
14,Block513.xls,A,13,7,88,28,21,incongruent,Right,Left,Right,79,82,3,yellow,2,6,/home/docky/apps/exp/images/79Y.jpeg,/home/docky/apps/exp/images/80Yi.jpeg,0,13,13,13,0,6,6,6,1609.4225371440116,None,1609.4225371440116,None,1,3.5240648099861573,1609.4225371440116,None,1612.9806035700021,None,1612.9806035700021,None,1615.4835063609935,None,1615.4835063609935,None,1.1170362539996859,1617.2870194650022,None,1617.2870194650022,None,6,1,0.9013461019785609,1618.390439173003,None,1618.390439173003,None,1618.390439173003,None,1619.3084465200081,None,1,0.568466750002699,1619.3084465200081,None,142,1619.8937286080036,None,134,A,1,2021_May_31_0935,GazeFlow,2020.1.2,59.88940726340828,
14,Block513.xls,A,13,8,14,14,11,congruent,Left,Left,Right,80,83,3,blue,2,6,/home/docky/apps/exp/images/80B.jpeg,/home/docky/apps/exp/images/83Bi.jpeg,0,13,13,13,0,7,7,7,1620.8947396069998,None,1620.8947396069998,None,1,3.3239958900085185,1620.8947396069998,None,1624.2522911159904,None,1624.2522911159904,None,1626.7549509220116,None,1626.7549509220116,None,1.217496782017406,1628.558230619994,None,1628.558230619994,None,6,1,0.917773863999173,1629.7626875879942,None,1629.7626875879942,None,1629.7626875879942,None,1630.6972639469896,None,1,0.5176757969893515,1630.6972639469896,None,144,1631.2316416729882,None,134,A,1,2021_May_31_0935,GazeFlow,2020.1.2,59.88940726340828,
14,Block513.xls,A,,,,,,,,,,,,,,,,,,0,13,13,13,,,,,,,,,,,,,,,,,,,,,,,,,,,,,,,,,,,,,,,,,,,,134,A,1,2021_May_31_0935,GazeFlow,2020.1.2,59.88940726340828,
15,Block514.xls,A,14,1,113,53,22,incongruent,Left,Right,Left,75,69,6,yellow,2,5,/home/docky/apps/exp/images/76Y.jpeg,/home/docky/apps/exp/images/69Yi.jpeg,0,14,14,14,0,0,0,0,1649.8026190820092,None,1649.8026190820092,None,1,6.769856583996443,1649.8026190820092,None,1656.594662332005,None,1656.594662332005,None,1659.1200675260043,None,1659.1200675260043,None,1.1164547369990032,1660.9234562079946,None,1660.9234562079946,None,5,1,0.8848053210240323,1662.0253547810134,None,1662.0253547810134,None,1662.0253547810134,None,1662.926492950006,None,1,0.5683757240185514,1662.926492950006,None,146,1663.511430145998,None,134,A,1,2021_May_31_0935,GazeFlow,2020.1.2,59.88940726340828,
15,Block514.xls,A,14,2,45,45,12,congruent,Right,Right,Left,39,38,1,blue,2,5,/home/docky/apps/exp/images/39B.jpeg,/home/docky/apps/exp/images/38Bi.jpeg,0,14,14,14,0,1,1,1,1664.5130775780126,None,1664.5130775780126,None,1,3.4905541500193067,1664.5130775780126,None,1668.0351281249896,None,1668.0351281249896,None,1670.5420669300074,None,1670.5420669300074,None,0.9167713990027551,1672.3437934250105,None,1672.3437934250105,None,5,1,0.917719416989712,1673.247287495993,None,1673.247287495993,None,1673.247287495993,None,1674.1815991869953,None,1,0.5685603659949265,1674.1815991869953,None,148,1674.7666267440072,None,134,A,1,2021_May_31_0935,GazeFlow,2020.1.2,59.88940726340828,
15,Block514.xls,A,14,3,52,52,12,congruent,Right,Right,Left,75,69,6,yellow,2,5,/home/docky/apps/exp/images/76Y.jpeg,/home/docky/apps/exp/images/69Yi.jpeg,0,14,14,14,0,2,2,2,1675.7680714899907,None,1675.7680714899907,None,1,4.242729664983926,1675.7680714899907,None,1680.0439338760043,None,1680.0439338760043,None,1682.5470466770057,None,1682.5470466770057,None,1.0165627780079376,1684.3524259839905,None,1684.3524259839905,None,5,1,0.9514690990035888,1685.353713079996,None,1685.353713079996,None,1685.353713079996,None,1686.3216513659863,None,1,0.5845872770005371,1686.3216513659863,None,150,1686.9230056499946,None,134,A,1,2021_May_31_0935,GazeFlow,2020.1.2,59.88940726340828,
15,Block514.xls,A,14,4,106,46,22,incongruent,Left,Right,Left,35,33,2,yellow,2,5,/home/docky/apps/exp/images/35Yi.jpeg,/home/docky/apps/exp/images/33Y.jpeg,0,14,14,14,0,3,3,3,1687.925018784008,None,1687.925018784008,None,1,3.8748507599812,1687.925018784008,None,1691.8336988500087,None,1691.8336988500087,None,1694.3396880950022,None,1694.3396880950022,None,1.1004844409762882,1696.1407135330082,None,1696.1407135330082,None,5,1,0.9515833070036024,1697.2272420760128,None,1697.2272420760128,None,1697.2272420760128,None,1698.1950042730023,None,1,0.6017966790241189,1698.1950042730023,None,152,1698.812787406001,None,134,A,1,2021_May_31_0935,GazeFlow,2020.1.2,59.88940726340828,
15,Block514.xls,A,14,5,109,49,22,incongruent,Left,Right,Left,39,38,1,yellow,2,5,/home/docky/apps/exp/images/39Yi.jpeg,/home/docky/apps/exp/images/38Y.jpeg,0,14,14,14,0,4,4,4,1699.8148898459913,None,1699.8148898459913,None,1,3.807984859973658,1699.8148898459913,None,1703.6567853459856,None,1703.6567853459856,None,1706.1616115639918,None,1706.1616115639918,None,1.4175743160012644,1707.964847013005,None,1707.964847013005,None,5,1,1.0017704569909256,1709.3673438520054,None,1709.3673438520054,None,1709.3673438520054,None,1710.3857595940062,None,1,0.5505732519959565,1710.3857595940062,None,154,1710.9527586349868,None,134,A,1,2021_May_31_0935,GazeFlow,2020.1.2,59.88940726340828,
15,Block514.xls,A,14,6,89,29,21,incongruent,Right,Left,Right,79,82,3,yellow,2,6,/home/docky/apps/exp/images/79Yi.jpeg,/home/docky/apps/exp/images/80Y.jpeg,0,14,14,14,0,5,5,5,1711.9551628949994,None,1711.9551628949994,None,1,3.3575130509852897,1711.9551628949994,None,1715.348418929003,None,1715.348418929003,None,1717.848781106004,None,1717.848781106004,None,1.2010233210166916,1719.647845725005,None,1719.647845725005,None,5,0,0.9177940969821066,1720.8396261809976,None,1720.8396261809976,None,1720.8396261809976,None,1721.774094916007,None,1,0.5856632580107544,1721.774094916007,None,152,1722.3757466069947,None,134,A,1,2021_May_31_0935,GazeFlow,2020.1.2,59.88940726340828,
15,Block514.xls,A,14,7,91,31,22,incongruent,Left,Right,Left,19,16,3,blue,2,5,/home/docky/apps/exp/images/19Bi.jpeg,/home/docky/apps/exp/images/16B.jpeg,0,14,14,14,0,6,6,6,1723.3771970490052,None,1723.3771970490052,None,1,3.5239735409850255,1723.3771970490052,None,1726.9352633119852,None,1726.9352633119852,None,1729.4379493680026,None,1729.4379493680026,None,1.2673905850097071,1731.2418742429873,None,1731.2418742429873,None,5,1,1.0681666379969101,1732.495652720012,None,1732.495652720012,None,1732.495652720012,None,1733.5806809359929,None,1,0.5846077709866222,1733.5806809359929,None,154,1734.1815142029955,None,134,A,1,2021_May_31_0935,GazeFlow,2020.1.2,59.88940726340828,
15,Block514.xls,A,14,8,79,19,21,incongruent,Right,Left,Right,62,65,3,yellow,2,6,/home/docky/apps/exp/images/38B.jpeg,/home/docky/apps/exp/images/35Bi.jpeg,0,14,14,14,0,7,7,7,1735.1834703659988,None,1735.1834703659988,None,1,3.925119278021157,1735.1834703659988,None,1739.1420622330043,None,1739.1420622330043,None,1741.6471984910022,None,1741.6471984910022,None,2.2190677180187777,1743.448243043007,None,1743.448243043007,None,5,0,1.0180639680183958,1745.6544544580102,None,1745.6544544580102,None,1745.6544544580102,None,1746.6891320399882,None,1,0.5009912539971992,1746.6891320399882,None,152,1747.2068447349884,None,134,A,1,2021_May_31_0935,GazeFlow,2020.1.2,59.88940726340828,
15,Block514.xls,A,,,,,,,,,,,,,,,,,,0,14,14,14,,,,,,,,,,,,,,,,,,,,,,,,,,,,,,,,,,,,,,,,,,,,134,A,1,2021_May_31_0935,GazeFlow,2020.1.2,59.88940726340828,
