Nblock,condsFile,grouping,Block,TrialBlock,N,trialN,trialCond,gazeCon,gazedirR,corrBinR,corrBinP,valLBY,valRBY,diff,colorCube,feedbacktext,corrAns,imageL,imageR,SelBlocks.thisRepN,SelBlocks.thisTrialN,SelBlocks.thisN,SelBlocks.thisIndex,Trials.thisRepN,Trials.thisTrialN,Trials.thisN,Trials.thisIndex,waitCube.started,waitCube.stopped,text_3.started,text_3.stopped,StartKeyPress.keys,StartKeyPress.rt,StartKeyPress.started,StartKeyPress.stopped,StimL.started,StimL.stopped,StimR.started,StimR.stopped,imageStim2L.started,imageStim2L.stopped,imageStim2R.started,imageStim2R.stopped,RTkeyRelease,imageStim3L.started,imageStim3L.stopped,imageStim3R.started,imageStim3R.stopped,dropResp.keys,dropResp.corr,dropResp.rt,dropResp.started,dropResp.stopped,imageStim5L.started,imageStim5L.stopped,imageStim5R.started,imageStim5R.stopped,text_2.started,text_2.stopped,ReturnSpace.keys,ReturnSpace.rt,ReturnSpace.started,ReturnSpace.stopped,totalpoints,textFeedback.started,textFeedback.stopped,participant,group,session,date,expName,psychopyVersion,frameRate,
1,Block809.xls,B,9,1,93,93,None,congruent,Right,Right,Left,80,79,1,yellow,2,5,/home/docky/apps/exp/images/80Y.jpeg,/home/docky/apps/exp/images/79Yi.jpeg,0,0,0,0,0,0,0,0,54.99078939098399,None,54.99078939098399,None,1,5.113212552998448,54.99078939098399,None,60.14063754599192,None,60.14063754599192,None,62.65445619498496,None,62.65445619498496,None,1.316865222004708,64.45865753799444,None,64.45865753799444,None,5,1,1.0522712969977874,65.75917249798658,None,65.75917249798658,None,65.75917249798658,None,66.8276939530042,None,1,0.5839774289925117,66.8276939530042,None,2,67.42823703799513,None,135,B,1,2021_May_31_1053,GazeFlow,2020.1.2,59.861661615330696,
1,Block809.xls,B,9,2,15,15,None,congruent,Left,Left,Right,38,39,1,blue,2,6,/home/docky/apps/exp/images/38B.jpeg,/home/docky/apps/exp/images/39Bi.jpeg,0,0,0,0,0,1,1,1,68.43119865498738,None,68.43119865498738,None,1,5.527432836010121,68.43119865498738,None,73.99227744300151,None,73.99227744300151,None,76.49568024798646,None,76.49568024798646,None,1.200214248005068,78.29841441399185,None,78.29841441399185,None,6,1,1.118605564988684,79.48598634800874,None,79.48598634800874,None,79.48598634800874,None,80.62121022000792,None,1,0.518128434981918,80.62121022000792,None,4,81.1558839950012,None,135,B,1,2021_May_31_1053,GazeFlow,2020.1.2,59.861661615330696,
1,Block809.xls,B,9,3,117,21,None,incongruent,Left,Right,Left,39,38,1,yellow,2,5,/home/docky/apps/exp/images/39Yi.jpeg,/home/docky/apps/exp/images/38Y.jpeg,0,0,0,0,0,2,2,2,82.15782121499069,None,82.15782121499069,None,1,5.1267147949838545,82.15782121499069,None,87.31808702100534,None,87.31808702100534,None,89.8207888189936,None,89.8207888189936,None,1.6013009930029511,91.62516795500414,None,91.62516795500414,None,5,1,1.152511959982803,93.21255819499493,None,93.21255819499493,None,93.21255819499493,None,94.38131136199809,None,1,0.41720618700492196,94.38131136199809,None,6,94.8150196869974,None,135,B,1,2021_May_31_1053,GazeFlow,2020.1.2,59.861661615330696,
1,Block809.xls,B,9,4,94,94,None,congruent,Right,Right,Left,80,79,1,yellow,2,5,/home/docky/apps/exp/images/80Y.jpeg,/home/docky/apps/exp/images/79Yi.jpeg,0,0,0,0,0,3,3,3,95.81709575900459,None,95.81709575900459,None,1,5.679012550011976,95.81709575900459,None,101.5308509489987,None,101.5308509489987,None,104.03461640200112,None,104.03461640200112,None,1.2170748449862003,105.83573630198953,None,105.83573630198953,None,5,1,1.0688852980092634,107.03951863400289,None,107.03951863400289,None,107.03951863400289,None,108.12481967598433,None,1,0.4510713039780967,108.12481967598433,None,8,108.59237186898827,None,135,B,1,2021_May_31_1053,GazeFlow,2020.1.2,59.861661615330696,
1,Block809.xls,B,9,5,41,41,None,congruent,Right,Right,Left,79,76,3,blue,2,5,/home/docky/apps/exp/images/79Bi.jpeg,/home/docky/apps/exp/images/76B.jpeg,0,0,0,0,0,4,4,4,109.59377085798769,None,109.59377085798769,None,1,4.9608567809918895,109.59377085798769,None,114.5879452599911,None,114.5879452599911,None,117.09287195999059,None,117.09287195999059,None,1.100541941006668,118.89401464199182,None,118.89401464199182,None,5,1,1.0350808960210998,119.98126134299673,None,119.98126134299673,None,119.98126134299673,None,121.03259898599936,None,1,0.4187089930055663,121.03259898599936,None,10,121.46718320099171,None,135,B,1,2021_May_31_1053,GazeFlow,2020.1.2,59.861661615330696,
1,Block809.xls,B,9,6,36,36,None,congruent,Right,Right,Left,79,73,6,blue,2,5,/home/docky/apps/exp/images/79Bi.jpeg,/home/docky/apps/exp/images/73B.jpeg,0,0,0,0,0,5,5,5,122.46895220200531,None,122.46895220200531,None,1,5.010517902002903,122.46895220200531,None,127.51291609401233,None,127.51291609401233,None,130.01619840299827,None,130.01619840299827,None,1.3508623790112324,131.8200121980044,None,131.8200121980044,None,5,1,1.1360368510067929,133.1569233170012,None,133.1569233170012,None,133.1569233170012,None,134.30898967199028,None,1,0.5502921720035374,134.30898967199028,None,12,134.8764213109971,None,135,B,1,2021_May_31_1053,GazeFlow,2020.1.2,59.861661615330696,
1,Block809.xls,B,9,7,78,78,None,congruent,Right,Right,Left,39,38,1,yellow,2,5,/home/docky/apps/exp/images/39Yi.jpeg,/home/docky/apps/exp/images/38Y.jpeg,0,0,0,0,0,6,6,6,135.87831945199287,None,135.87831945199287,None,1,5.110610106989043,135.87831945199287,None,141.02283908400568,None,141.02283908400568,None,143.52580841898452,None,143.52580841898452,None,1.3841605650086422,145.33117515899357,None,145.33117515899357,None,5,1,1.002397161006229,146.69978180498583,None,146.69978180498583,None,146.69978180498583,None,147.71832912700484,None,1,0.46780561399646103,147.71832912700484,None,14,148.2028028999921,None,135,B,1,2021_May_31_1053,GazeFlow,2020.1.2,59.861661615330696,
1,Block809.xls,B,9,8,29,29,None,congruent,Right,Right,Left,38,35,3,blue,2,5,/home/docky/apps/exp/images/38B.jpeg,/home/docky/apps/exp/images/35Bi.jpeg,0,0,0,0,0,7,7,7,149.20408942800714,None,149.20408942800714,None,1,5.060448897012975,149.20408942800714,None,154.29853748201276,None,154.29853748201276,None,156.80321030100458,None,156.80321030100458,None,1.2674099379801191,158.6051436449925,None,158.6051436449925,None,5,1,1.102185481984634,159.85873610098497,None,159.85873610098497,None,159.85873610098497,None,160.97749704599846,None,1,0.4514155450160615,160.97749704599846,None,16,161.44494180800393,None,135,B,1,2021_May_31_1053,GazeFlow,2020.1.2,59.861661615330696,
1,Block809.xls,B,,,,,,,,,,,,,,,,,,0,0,0,0,,,,,,,,,,,,,,,,,,,,,,,,,,,,,,,,,,,,,,,,,,,,135,B,1,2021_May_31_1053,GazeFlow,2020.1.2,59.861661615330696,
2,Block805.xls,B,5,1,16,16,None,congruent,Left,Left,Right,73,76,3,blue,2,6,/home/docky/apps/exp/images/73B.jpeg,/home/docky/apps/exp/images/76Bi.jpeg,0,1,1,1,0,0,0,0,179.96503938900423,None,179.96503938900423,None,1,4.746924949984532,179.96503938900423,None,184.74005174299236,None,184.74005174299236,None,187.26218868300202,None,187.26218868300202,None,1.3166298089781776,189.0659771359933,None,189.0659771359933,None,6,1,1.119114945991896,190.36784723500023,None,190.36784723500023,None,190.36784723500023,None,191.5033755050099,None,1,0.5340910959930625,191.5033755050099,None,18,192.05405020699254,None,135,B,1,2021_May_31_1053,GazeFlow,2020.1.2,59.861661615330696,
2,Block805.xls,B,5,2,2,2,None,congruent,Left,Left,Right,16,19,3,blue,2,6,/home/docky/apps/exp/images/16B.jpeg,/home/docky/apps/exp/images/19Bi.jpeg,0,1,1,1,0,1,1,1,193.055887421011,None,193.055887421011,None,1,3.9088031049759593,193.055887421011,None,196.99831409199396,None,196.99831409199396,None,199.50263452201034,None,199.50263452201034,None,1.1836098210187629,201.30479493699386,None,201.30479493699386,None,6,1,1.1858530800091103,202.4748906820023,None,202.4748906820023,None,202.4748906820023,None,203.67723946200567,None,1,0.45093969599111006,203.67723946200567,None,20,204.14460518799024,None,135,B,1,2021_May_31_1053,GazeFlow,2020.1.2,59.861661615330696,
2,Block805.xls,B,5,3,64,64,None,congruent,Left,Left,Right,69,76,7,yellow,2,6,/home/docky/apps/exp/images/69Y.jpeg,/home/docky/apps/exp/images/76Yi.jpeg,0,1,1,1,0,2,2,2,205.14630929200212,None,205.14630929200212,None,1,4.392333118012175,205.14630929200212,None,209.57241301398608,None,209.57241301398608,None,212.0773982529936,None,212.0773982529936,None,1.2838329419901129,213.88078182100435,None,213.88078182100435,None,6,1,1.169446482002968,215.14929766699788,None,215.14929766699788,None,215.14929766699788,None,216.3350614689989,None,1,0.41802708100294694,216.3350614689989,None,22,216.7693544079957,None,135,B,1,2021_May_31_1053,GazeFlow,2020.1.2,59.861661615330696,
2,Block805.xls,B,5,4,61,61,None,congruent,Left,Left,Right,38,39,1,yellow,2,6,/home/docky/apps/exp/images/38Yi.jpeg,/home/docky/apps/exp/images/39Y.jpeg,0,1,1,1,0,3,3,3,217.7704501840053,None,217.7704501840053,None,1,4.810362960008206,217.7704501840053,None,222.6145707530086,None,222.6145707530086,None,225.11947291600518,None,225.11947291600518,None,1.5846921690099407,226.92138799399254,None,226.92138799399254,None,5,0,1.1355843149940483,228.4921001509938,None,228.4921001509938,None,228.4921001509938,None,229.6441482740047,None,1,0.43364790998748504,229.6441482740047,None,20,230.09451721800724,None,135,B,1,2021_May_31_1053,GazeFlow,2020.1.2,59.861661615330696,
2,Block805.xls,B,5,5,23,23,None,congruent,Left,Left,Right,80,83,3,blue,2,6,/home/docky/apps/exp/images/80B.jpeg,/home/docky/apps/exp/images/83Bi.jpeg,0,1,1,1,0,4,4,4,231.09664393699495,None,231.09664393699495,None,1,4.927363915019669,231.09664393699495,None,236.05715266399784,None,236.05715266399784,None,238.56051591300638,None,238.56051591300638,None,1.6013284969958477,240.36305792999337,None,240.36305792999337,None,6,1,1.0191511099983472,241.95148233199143,None,241.95148233199143,None,241.95148233199143,None,242.98655674999463,None,1,0.40077282799757086,242.98655674999463,None,22,243.40376057999674,None,135,B,1,2021_May_31_1053,GazeFlow,2020.1.2,59.861661615330696,
2,Block805.xls,B,5,6,87,87,None,congruent,Right,Right,Left,76,69,7,yellow,2,5,/home/docky/apps/exp/images/76Yi.jpeg,/home/docky/apps/exp/images/69Y.jpeg,0,1,1,1,0,5,5,5,244.40558804001193,None,244.40558804001193,None,1,4.777238509996096,244.40558804001193,None,249.2172877539997,None,249.2172877539997,None,251.7210515869956,None,251.7210515869956,None,1.3342100559966639,253.52311561600072,None,253.52311561600072,None,5,1,1.0844582899881061,254.84337185899494,None,254.84337185899494,None,254.84337185899494,None,255.944889728009,None,1,0.4841266830044333,255.944889728009,None,24,256.44588829099666,None,135,B,1,2021_May_31_1053,GazeFlow,2020.1.2,59.861661615330696,
2,Block805.xls,B,5,7,4,4,None,congruent,Left,Left,Right,35,38,3,blue,2,6,/home/docky/apps/exp/images/35B.jpeg,/home/docky/apps/exp/images/38Bi.jpeg,0,1,1,1,0,6,6,6,257.44738286099164,None,257.44738286099164,None,1,5.278067362989532,257.44738286099164,None,262.75923012700514,None,262.75923012700514,None,265.26409321199753,None,265.26409321199753,None,1.55116264600656,267.066149907012,None,267.066149907012,None,6,1,1.1356148080085404,268.60333622599137,None,268.60333622599137,None,268.60333622599137,None,269.75542246500845,None,1,0.45055268399300985,269.75542246500845,None,26,270.22257300501224,None,135,B,1,2021_May_31_1053,GazeFlow,2020.1.2,59.861661615330696,
2,Block805.xls,B,5,8,114,18,None,incongruent,Right,Left,Right,79,82,3,yellow,2,6,/home/docky/apps/exp/images/79Y.jpeg,/home/docky/apps/exp/images/80Yi.jpeg,0,1,1,1,0,7,7,7,271.22448304799036,None,271.22448304799036,None,1,4.660278166003991,271.22448304799036,None,275.91837751001003,None,275.91837751001003,None,278.4213537950127,None,278.4213537950127,None,1.0833729880105238,280.2202694590087,None,280.2202694590087,None,5,0,1.1517254390055314,281.2947010159842,None,281.2947010159842,None,281.2947010159842,None,282.46289650999825,None,1,0.4348984429962002,282.46289650999825,None,24,282.91422187699936,None,135,B,1,2021_May_31_1053,GazeFlow,2020.1.2,59.861661615330696,
2,Block805.xls,B,,,,,,,,,,,,,,,,,,0,1,1,1,,,,,,,,,,,,,,,,,,,,,,,,,,,,,,,,,,,,,,,,,,,,135,B,1,2021_May_31_1053,GazeFlow,2020.1.2,59.861661615330696,
3,Block804.xls,B,4,1,95,95,None,congruent,Right,Right,Left,80,79,1,yellow,2,5,/home/docky/apps/exp/images/80Yi.jpeg,/home/docky/apps/exp/images/79Y.jpeg,0,2,2,2,0,0,0,0,301.2692643610062,None,301.2692643610062,None,1,4.577724186005071,301.2692643610062,None,305.87177950001205,None,305.87177950001205,None,308.39750490000006,None,308.39750490000006,None,1.9508729049994145,310.17926496700966,None,310.17926496700966,None,5,1,1.0512112549913581,312.12134285698994,None,312.12134285698994,None,312.12134285698994,None,313.1894129530119,None,1,0.43410119001055136,313.1894129530119,None,26,313.6404599309899,None,135,B,1,2021_May_31_1053,GazeFlow,2020.1.2,59.861661615330696,
3,Block804.xls,B,4,2,107,11,None,incongruent,Left,Right,Left,83,80,3,blue,2,5,/home/docky/apps/exp/images/83Bi.jpeg,/home/docky/apps/exp/images/80B.jpeg,0,2,2,2,0,1,1,1,314.6424310959992,None,314.6424310959992,None,1,4.860388511995552,314.6424310959992,None,319.5362270179903,None,319.5362270179903,None,322.0395499629958,None,322.0395499629958,None,1.6179134109988809,323.8427124969894,None,323.8427124969894,None,5,1,0.9526036330207717,325.447232704988,None,325.447232704988,None,325.447232704988,None,326.4154738179932,None,1,0.40037689698510803,326.4154738179932,None,28,326.83237406698754,None,135,B,1,2021_May_31_1053,GazeFlow,2020.1.2,59.861661615330696,
3,Block804.xls,B,4,3,27,27,None,congruent,Right,Right,Left,19,16,3,blue,2,5,/home/docky/apps/exp/images/19Bi.jpeg,/home/docky/apps/exp/images/16B.jpeg,0,2,2,2,0,2,2,2,327.8344172500074,None,327.8344172500074,None,1,4.643015651003225,327.8344172500074,None,332.5114245300065,None,332.5114245300065,None,335.0160925539967,None,335.0160925539967,None,1.233958275988698,336.81810282199876,None,336.81810282199876,None,5,1,1.1856582920008805,338.0382126469922,None,338.0382126469922,None,338.0382126469922,None,339.2403718929854,None,1,0.4010964780172799,339.2403718929854,None,30,339.6581128590042,None,135,B,1,2021_May_31_1053,GazeFlow,2020.1.2,59.861661615330696,
3,Block804.xls,B,4,4,101,5,None,incongruent,Right,Left,Right,76,79,3,blue,2,6,/home/docky/apps/exp/images/76B.jpeg,/home/docky/apps/exp/images/79Bi.jpeg,0,2,2,2,0,3,3,3,340.65939588999026,None,340.65939588999026,None,1,5.077211728988914,340.65939588999026,None,345.7702744799899,None,345.7702744799899,None,348.2751843139995,None,348.2751843139995,None,1.8518174449854996,350.0724555969937,None,350.0724555969937,None,6,1,1.251727951981593,351.91519072500523,None,351.91519072500523,None,351.91519072500523,None,353.1836513970047,None,1,0.41782356501789764,353.1836513970047,None,32,353.61786300400854,None,135,B,1,2021_May_31_1053,GazeFlow,2020.1.2,59.861661615330696,
3,Block804.xls,B,4,5,47,47,None,congruent,Right,Right,Left,39,38,1,blue,2,5,/home/docky/apps/exp/images/39Bi.jpeg,/home/docky/apps/exp/images/38B.jpeg,0,2,2,2,0,4,4,4,354.61993259799783,None,354.61993259799783,None,1,4.7102438820002135,354.61993259799783,None,359.36621210799785,None,359.36621210799785,None,361.8665841410111,None,361.8665841410111,None,1.6514227119914722,363.67016930200043,None,363.67016930200043,None,5,1,1.0354191150108818,365.30788656900404,None,365.30788656900404,None,365.30788656900404,None,366.3597147249966,None,1,0.38403916399693117,366.3597147249966,None,34,366.7600146899931,None,135,B,1,2021_May_31_1053,GazeFlow,2020.1.2,59.861661615330696,
3,Block804.xls,B,4,6,90,90,None,congruent,Right,Right,Left,77,72,5,yellow,2,5,/home/docky/apps/exp/images/77Yi.jpeg,/home/docky/apps/exp/images/72Y.jpeg,0,2,2,2,0,5,5,5,367.7621227919881,None,367.7621227919881,None,1,4.477013402996818,367.7621227919881,None,372.27211301299394,None,372.27211301299394,None,374.7767155570036,None,374.7767155570036,None,1.3175025469972752,376.57777431901195,None,376.57777431901195,None,5,1,1.0186970570066478,377.88226361200213,None,377.88226361200213,None,377.88226361200213,None,378.91742344599334,None,1,0.40116464500897564,378.91742344599334,None,36,379.3348889639892,None,135,B,1,2021_May_31_1053,GazeFlow,2020.1.2,59.861661615330696,
3,Block804.xls,B,4,7,12,12,None,congruent,Left,Left,Right,38,39,1,blue,2,6,/home/docky/apps/exp/images/38B.jpeg,/home/docky/apps/exp/images/39Bi.jpeg,0,2,2,2,0,6,6,6,380.33642399701057,None,380.33642399701057,None,1,5.6955518719914835,380.33642399701057,None,386.065369265998,None,386.065369265998,None,388.5687350649969,None,388.5687350649969,None,1.8014845320140012,390.3716114849958,None,390.3716114849958,None,6,1,1.0191293190000579,392.159933538991,None,392.159933538991,None,392.159933538991,None,393.1951613150013,None,1,0.4003403189999517,393.1951613150013,None,38,393.6121882330044,None,135,B,1,2021_May_31_1053,GazeFlow,2020.1.2,59.861661615330696,
3,Block804.xls,B,4,8,20,20,None,congruent,Left,Left,Right,76,79,3,blue,2,6,/home/docky/apps/exp/images/76Bi.jpeg,/home/docky/apps/exp/images/79B.jpeg,0,2,2,2,0,7,7,7,394.614100390987,None,394.614100390987,None,1,4.709910133999074,394.614100390987,None,399.3562567199988,None,399.3562567199988,None,401.86126005501137,None,401.86126005501137,None,1.1338890620099846,403.66440686699934,None,403.66440686699934,None,6,1,1.0681991209858097,404.7844807030051,None,404.7844807030051,None,404.7844807030051,None,405.8691798009968,None,1,0.41779983398737386,405.8691798009968,None,40,406.3033657390042,None,135,B,1,2021_May_31_1053,GazeFlow,2020.1.2,59.861661615330696,
3,Block804.xls,B,,,,,,,,,,,,,,,,,,0,2,2,2,,,,,,,,,,,,,,,,,,,,,,,,,,,,,,,,,,,,,,,,,,,,135,B,1,2021_May_31_1053,GazeFlow,2020.1.2,59.861661615330696,
4,Block814.xls,B,14,1,99,3,None,incongruent,Right,Left,Right,65,66,1,blue,2,6,/home/docky/apps/exp/images/35Yi.jpeg,/home/docky/apps/exp/images/66B.jpeg,0,3,3,3,0,0,0,0,423.23841179400915,None,423.23841179400915,None,1,4.299099961004686,423.23841179400915,None,427.56751404498937,None,427.56751404498937,None,430.08423959300853,None,430.08423959300853,None,1.5839424169971608,431.8861472280114,None,431.8861472280114,None,6,1,1.051930096000433,433.45689269399736,None,433.45689269399736,None,433.45689269399736,None,434.5254168639949,None,1,0.4169585859926883,434.5254168639949,None,42,434.9591274429986,None,135,B,1,2021_May_31_1053,GazeFlow,2020.1.2,59.861661615330696,
4,Block814.xls,B,14,2,34,34,None,congruent,Right,Right,Left,66,65,1,blue,2,5,/home/docky/apps/exp/images/66B.jpeg,/home/docky/apps/exp/images/35Yi.jpeg,0,3,3,3,0,1,1,1,435.9610722929938,None,435.9610722929938,None,1,4.2094057140056975,435.9610722929938,None,440.20380349300103,None,440.20380349300103,None,442.70698409198667,None,442.70698409198667,None,1.2841805609932635,444.5101250479929,None,444.5101250479929,None,5,1,1.0017556830134708,445.78087356398464,None,445.78087356398464,None,445.78087356398464,None,446.79934322601184,None,1,0.38420413798303343,446.79934322601184,None,44,447.1998348099878,None,135,B,1,2021_May_31_1053,GazeFlow,2020.1.2,59.861661615330696,
4,Block814.xls,B,14,3,91,91,None,congruent,Right,Right,Left,77,72,5,yellow,2,5,/home/docky/apps/exp/images/77Yi.jpeg,/home/docky/apps/exp/images/72Y.jpeg,0,3,3,3,0,2,2,2,448.20163042700733,None,448.20163042700733,None,1,4.76044278498739,448.20163042700733,None,452.9954495719867,None,452.9954495719867,None,455.4984116179985,None,455.4984116179985,None,1.3006034870049916,457.3013402420038,None,457.3013402420038,None,5,1,1.0355175309814513,458.5888123929908,None,458.5888123929908,None,458.5888123929908,None,459.6410581099917,None,1,0.4841101939964574,459.6410581099917,None,46,460.1418406069861,None,135,B,1,2021_May_31_1053,GazeFlow,2020.1.2,59.861661615330696,
4,Block814.xls,B,14,4,68,68,None,congruent,Left,Left,Right,72,77,5,yellow,2,6,/home/docky/apps/exp/images/72Yi.jpeg,/home/docky/apps/exp/images/77Y.jpeg,0,3,3,3,0,3,3,3,461.14340092698694,None,461.14340092698694,None,1,4.643008758022916,461.14340092698694,None,465.8202150959987,None,465.8202150959987,None,468.3249467200076,None,468.3249467200076,None,1.5015663290105294,470.12187801799155,None,470.12187801799155,None,6,1,1.1185173569829203,471.6142849889875,None,471.6142849889875,None,471.6142849889875,None,472.7491627460113,None,1,0.4179418940038886,472.7491627460113,None,48,473.1834646319912,None,135,B,1,2021_May_31_1053,GazeFlow,2020.1.2,59.861661615330696,
4,Block814.xls,B,14,5,66,66,None,congruent,Left,Left,Right,69,76,7,yellow,2,6,/home/docky/apps/exp/images/69Yi.jpeg,/home/docky/apps/exp/images/76Y.jpeg,0,3,3,3,0,4,4,4,474.185251316987,None,474.185251316987,None,1,4.592980221990729,474.185251316987,None,478.8121940800047,None,478.8121940800047,None,481.3211370120116,None,481.3211370120116,None,1.3675485109852161,483.11443087799125,None,483.11443087799125,None,6,1,1.1359710120013915,484.47263020899845,None,484.47263020899845,None,484.47263020899845,None,485.6247676220082,None,1,0.40091201799805276,485.6247676220082,None,50,486.0417176329938,None,135,B,1,2021_May_31_1053,GazeFlow,2020.1.2,59.861661615330696,
4,Block814.xls,B,14,6,115,19,None,incongruent,Left,Right,Left,80,79,1,yellow,2,5,/home/docky/apps/exp/images/80Yi.jpeg,/home/docky/apps/exp/images/79Y.jpeg,0,3,3,3,0,5,5,5,487.04377496399684,None,487.04377496399684,None,1,4.2426464689779095,487.04377496399684,None,491.3194915110071,None,491.3194915110071,None,493.8227276149846,None,493.8227276149846,None,1.7182268789911177,495.6259337409865,None,495.6259337409865,None,5,1,0.9679253210197203,497.33096744999057,None,497.33096744999057,None,497.33096744999057,None,498.3159629899892,None,1,0.6006247110199183,498.3159629899892,None,52,498.9333324749896,None,135,B,1,2021_May_31_1053,GazeFlow,2020.1.2,59.861661615330696,
4,Block814.xls,B,14,7,9,9,None,congruent,Left,Left,Right,65,66,1,blue,2,6,/home/docky/apps/exp/images/35Yi.jpeg,/home/docky/apps/exp/images/66B.jpeg,0,3,3,3,0,6,6,6,499.93529729699367,None,499.93529729699367,None,1,4.877687789004995,499.93529729699367,None,504.8461083759903,None,504.8461083759903,None,507.3530604619882,None,507.3530604619882,None,1.2505664330092259,509.1466166730097,None,509.1466166730097,None,6,1,1.1192233790061437,510.38941958200303,None,510.38941958200303,None,510.38941958200303,None,511.52512322500115,None,1,0.38472102099331096,511.52512322500115,None,54,511.9256778130075,None,135,B,1,2021_May_31_1053,GazeFlow,2020.1.2,59.861661615330696,
4,Block814.xls,B,14,8,14,14,None,congruent,Left,Left,Right,38,39,1,blue,2,6,/home/docky/apps/exp/images/38Bi.jpeg,/home/docky/apps/exp/images/39B.jpeg,0,3,3,3,0,7,7,7,512.927179877006,None,512.927179877006,None,1,4.109246179024922,512.927179877006,None,517.0697276690044,None,517.0697276690044,None,519.572682553,None,519.572682553,None,1.2675391979864798,521.375623475993,None,521.375623475993,None,6,1,1.2358314790180884,522.6300298720016,None,522.6300298720016,None,522.6300298720016,None,523.8823890659842,None,1,0.3511571279959753,523.8823890659842,None,56,524.2496863100096,None,135,B,1,2021_May_31_1053,GazeFlow,2020.1.2,59.861661615330696,
4,Block814.xls,B,,,,,,,,,,,,,,,,,,0,3,3,3,,,,,,,,,,,,,,,,,,,,,,,,,,,,,,,,,,,,,,,,,,,,135,B,1,2021_May_31_1053,GazeFlow,2020.1.2,59.861661615330696,
5,Block812.xls,B,12,1,18,18,None,congruent,Left,Left,Right,73,76,3,blue,2,6,/home/docky/apps/exp/images/73B.jpeg,/home/docky/apps/exp/images/76Bi.jpeg,0,4,4,4,0,0,0,0,546.5788434089918,None,546.5788434089918,None,1,4.59820557598141,546.5788434089918,None,551.2046361909888,None,551.2046361909888,None,553.7229011209856,None,553.7229011209856,None,1.5336985560134053,555.5279577650072,None,555.5279577650072,None,5,0,1.035756826022407,557.0469260280079,None,557.0469260280079,None,557.0469260280079,None,558.0988167629985,None,1,0.4504386180196889,558.0988167629985,None,54,558.5658836810035,None,135,B,1,2021_May_31_1053,GazeFlow,2020.1.2,59.861661615330696,
5,Block812.xls,B,12,2,3,3,None,congruent,Left,Left,Right,16,19,3,blue,2,6,/home/docky/apps/exp/images/16Bi.jpeg,/home/docky/apps/exp/images/19B.jpeg,0,4,4,4,0,1,1,1,559.5679072230123,None,559.5679072230123,None,1,4.55955972202355,559.5679072230123,None,564.1611131319951,None,564.1611131319951,None,566.6625139059906,None,566.6625139059906,None,1.667929384013405,568.4671660279855,None,568.4671660279855,None,6,1,1.102236355014611,570.1222968189977,None,570.1222968189977,None,570.1222968189977,None,571.2410576390103,None,1,0.40006794399232604,571.2410576390103,None,56,571.6581866180059,None,135,B,1,2021_May_31_1053,GazeFlow,2020.1.2,59.861661615330696,
5,Block812.xls,B,12,3,56,56,None,congruent,Left,Left,Right,62,65,3,yellow,2,6,/home/docky/apps/exp/images/38Bi.jpeg,/home/docky/apps/exp/images/35B.jpeg,0,4,4,4,0,2,2,2,572.6598156339896,None,572.6598156339896,None,1,4.576464190991828,572.6598156339896,None,577.2540405629843,None,577.2540405629843,None,579.7759601009893,None,579.7759601009893,None,1.5011316840245854,581.5780726739904,None,581.5780726739904,None,6,1,1.202388631994836,583.0642308740062,None,583.0642308740062,None,583.0642308740062,None,584.2830571309896,None,1,0.4171330709941685,584.2830571309896,None,58,584.7167202960118,None,135,B,1,2021_May_31_1053,GazeFlow,2020.1.2,59.861661615330696,
5,Block812.xls,B,12,4,11,11,None,congruent,Left,Left,Right,38,39,1,blue,2,6,/home/docky/apps/exp/images/38B.jpeg,/home/docky/apps/exp/images/39Bi.jpeg,0,4,4,4,0,3,3,3,585.718612060009,None,585.718612060009,None,1,4.3091550040117,585.718612060009,None,590.0598765820032,None,590.0598765820032,None,592.5661729999993,None,592.5661729999993,None,1.7681608279817738,594.3677929060068,None,594.3677929060068,None,6,1,0.9853927970107179,596.1227726179932,None,596.1227726179932,None,596.1227726179932,None,597.1246212979895,None,1,0.3669302279886324,597.1246212979895,None,60,597.5081040879886,None,135,B,1,2021_May_31_1053,GazeFlow,2020.1.2,59.861661615330696,
5,Block812.xls,B,12,5,116,20,None,incongruent,Left,Right,Left,35,33,2,yellow,2,5,/home/docky/apps/exp/images/35Yi.jpeg,/home/docky/apps/exp/images/33Y.jpeg,0,4,4,4,0,4,4,4,598.5101482489845,None,598.5101482489845,None,1,4.2094675170083065,598.5101482489845,None,602.7524698269845,None,602.7524698269845,None,605.2554035020003,None,605.2554035020003,None,2.035555391019443,607.0608907819842,None,607.0608907819842,None,5,1,1.1683136909850873,609.081342919002,None,609.081342919002,None,609.081342919002,None,610.2664350509876,None,1,0.45075511300819926,610.2664350509876,None,62,610.7338873909903,None,135,B,1,2021_May_31_1053,GazeFlow,2020.1.2,59.861661615330696,
5,Block812.xls,B,12,6,40,40,None,congruent,Right,Right,Left,79,76,3,blue,2,5,/home/docky/apps/exp/images/79Bi.jpeg,/home/docky/apps/exp/images/76B.jpeg,0,4,4,4,0,5,5,5,611.7362279859954,None,611.7362279859954,None,1,4.743148858018685,611.7362279859954,None,616.5113933910034,None,616.5113933910034,None,619.0173729539965,None,619.0173729539965,None,1.3341704759804998,620.8195765760029,None,620.8195765760029,None,5,1,1.2026859699981287,622.1397479599982,None,622.1397479599982,None,622.1397479599982,None,623.3592250189977,None,1,0.4000967710162513,623.3592250189977,None,64,623.7758685830049,None,135,B,1,2021_May_31_1053,GazeFlow,2020.1.2,59.861661615330696,
5,Block812.xls,B,12,7,76,76,None,congruent,Right,Right,Left,39,38,1,yellow,2,5,/home/docky/apps/exp/images/39Yi.jpeg,/home/docky/apps/exp/images/38Y.jpeg,0,4,4,4,0,6,6,6,624.777745703992,None,624.777745703992,None,1,4.626754699012963,624.777745703992,None,629.4380338540068,None,629.4380338540068,None,631.9404463020037,None,631.9404463020037,None,1.4175889659964014,633.7444344570104,None,633.7444344570104,None,5,1,0.9853472970135044,635.1485304750095,None,635.1485304750095,None,635.1485304750095,None,636.1504192530119,None,1,0.4176570459967479,636.1504192530119,None,66,636.5845819360111,None,135,B,1,2021_May_31_1053,GazeFlow,2020.1.2,59.861661615330696,
5,Block812.xls,B,12,8,77,77,None,congruent,Right,Right,Left,39,38,1,yellow,2,5,/home/docky/apps/exp/images/39Y.jpeg,/home/docky/apps/exp/images/38Yi.jpeg,0,4,4,4,0,7,7,7,637.5861951739935,None,637.5861951739935,None,1,4.793754306010669,637.5861951739935,None,642.4132913780049,None,642.4132913780049,None,644.9160385160067,None,644.9160385160067,None,2.119092439999804,646.7213203659921,None,646.7213203659921,None,5,1,1.0850387100072112,648.8252104249841,None,648.8252104249841,None,648.8252104249841,None,649.9266316359863,None,1,0.36740942602045834,649.9266316359863,None,68,650.310890771012,None,135,B,1,2021_May_31_1053,GazeFlow,2020.1.2,59.861661615330696,
5,Block812.xls,B,,,,,,,,,,,,,,,,,,0,4,4,4,,,,,,,,,,,,,,,,,,,,,,,,,,,,,,,,,,,,,,,,,,,,135,B,1,2021_May_31_1053,GazeFlow,2020.1.2,59.861661615330696,
6,Block803.xls,B,3,1,84,84,None,congruent,Right,Right,Left,75,69,6,yellow,2,5,/home/docky/apps/exp/images/76Yi.jpeg,/home/docky/apps/exp/images/69Y.jpeg,0,5,5,5,0,0,0,0,670.6191543560126,None,670.6191543560126,None,1,4.048168320005061,670.6191543560126,None,674.694877144997,None,674.694877144997,None,677.2141799129895,None,677.2141799129895,None,1.6339883519976866,679.0178371510119,None,679.0178371510119,None,5,1,1.001985089998925,680.6367976529873,None,680.6367976529873,None,680.6367976529873,None,681.6553802670096,None,1,0.38404378600534983,681.6553802670096,None,70,682.0554672669969,None,135,B,1,2021_May_31_1053,GazeFlow,2020.1.2,59.861661615330696,
6,Block803.xls,B,3,2,82,82,None,congruent,Right,Right,Left,66,65,1,yellow,2,5,/home/docky/apps/exp/images/66Y.jpeg,/home/docky/apps/exp/images/35Bi.jpeg,0,5,5,5,0,1,1,1,683.0580918370106,None,683.0580918370106,None,1,4.241937882005004,683.0580918370106,None,687.3338648400095,None,687.3338648400095,None,689.8385564899945,None,689.8385564899945,None,1.5343607320101,691.6397223410022,None,691.6397223410022,None,5,1,1.0859115659841336,693.1611377199879,None,693.1611377199879,None,693.1611377199879,None,694.263301931991,None,1,0.38370964699424803,694.263301931991,None,72,694.6634941470111,None,135,B,1,2021_May_31_1053,GazeFlow,2020.1.2,59.861661615330696,
6,Block803.xls,B,3,3,80,80,None,congruent,Right,Right,Left,66,65,1,yellow,2,5,/home/docky/apps/exp/images/66Yi.jpeg,/home/docky/apps/exp/images/35B.jpeg,0,5,5,5,0,2,2,2,695.6655416259891,None,695.6655416259891,None,1,4.459435791010037,695.6655416259891,None,700.1569887739897,None,700.1569887739897,None,702.6663625520014,None,702.6663625520014,None,1.7016209879948292,704.464404466009,None,704.464404466009,None,5,1,1.0860553850070573,706.1529684540001,None,706.1529684540001,None,706.1529684540001,None,707.2552021679876,None,1,0.3669694590207655,707.2552021679876,None,74,707.6386921140074,None,135,B,1,2021_May_31_1053,GazeFlow,2020.1.2,59.861661615330696,
6,Block803.xls,B,3,4,79,79,None,congruent,Right,Right,Left,66,65,1,yellow,2,5,/home/docky/apps/exp/images/66Y.jpeg,/home/docky/apps/exp/images/35Bi.jpeg,0,5,5,5,0,3,3,3,708.640778008994,None,708.640778008994,None,1,4.6104370819812175,708.640778008994,None,713.2843055150006,None,713.2843055150006,None,715.7871090039844,None,715.7871090039844,None,1.8687522119726054,717.5899308059888,None,717.5899308059888,None,5,1,1.2517288620001636,719.445954958006,None,719.445954958006,None,719.445954958006,None,720.7141829880129,None,1,0.41727364499820396,720.7141829880129,None,76,721.1483949589892,None,135,B,1,2021_May_31_1053,GazeFlow,2020.1.2,59.861661615330696,
6,Block803.xls,B,3,5,92,92,None,congruent,Right,Right,Left,77,72,5,yellow,2,5,/home/docky/apps/exp/images/77Y.jpeg,/home/docky/apps/exp/images/72Yi.jpeg,0,5,5,5,0,4,4,4,722.1506394140015,None,722.1506394140015,None,1,4.776527785026701,722.1506394140015,None,726.960832554003,None,726.960832554003,None,729.4638849179901,None,729.4638849179901,None,1.4010724409890827,731.2621798320033,None,731.2621798320033,None,5,1,3.8575515749980696,732.6547432469961,None,732.6547432469961,None,732.6547432469961,None,736.5284786300035,None,1,0.5852691099862568,736.5284786300035,None,78,737.1298135849938,None,135,B,1,2021_May_31_1053,GazeFlow,2020.1.2,59.861661615330696,
6,Block803.xls,B,3,6,106,10,None,incongruent,Left,Right,Left,79,76,3,blue,2,5,/home/docky/apps/exp/images/79Bi.jpeg,/home/docky/apps/exp/images/76B.jpeg,0,5,5,5,0,5,5,5,738.1318073740113,None,738.1318073740113,None,1,4.52611330099171,738.1318073740113,None,742.6912353330117,None,742.6912353330117,None,745.1958519690088,None,745.1958519690088,None,1.834912754013203,746.9997712220065,None,746.9997712220065,None,5,1,1.001465624984121,748.8200966310105,None,748.8200966310105,None,748.8200966310105,None,749.8385946739872,None,1,0.4163446399907116,749.8385946739872,None,80,750.271736486,None,135,B,1,2021_May_31_1053,GazeFlow,2020.1.2,59.861661615330696,
6,Block803.xls,B,3,7,25,25,None,congruent,Right,Right,Left,19,16,3,blue,2,5,/home/docky/apps/exp/images/19Bi.jpeg,/home/docky/apps/exp/images/16B.jpeg,0,5,5,5,0,6,6,6,751.2735563849856,None,751.2735563849856,None,1,4.392644260020461,751.2735563849856,None,755.6998714680085,None,755.6998714680085,None,758.2025720780075,None,758.2025720780075,None,1.1507661020150408,760.0056698519911,None,760.0056698519911,None,5,1,1.0013845770154148,761.1434706329892,None,761.1434706329892,None,761.1434706329892,None,762.1614733329916,None,1,0.4514774039853364,762.1614733329916,None,82,762.629566521995,None,135,B,1,2021_May_31_1053,GazeFlow,2020.1.2,59.861661615330696,
6,Block803.xls,B,3,8,46,46,None,congruent,Right,Right,Left,39,38,1,blue,2,5,/home/docky/apps/exp/images/39B.jpeg,/home/docky/apps/exp/images/38Bi.jpeg,0,5,5,5,0,7,7,7,763.6309765809856,None,763.6309765809856,None,1,4.926822957000695,763.6309765809856,None,768.590013345005,None,768.590013345005,None,771.0965235040057,None,771.0965235040057,None,1.8017144520126749,772.8980668690056,None,772.8980668690056,None,5,1,1.0520903530123178,774.6862355269841,None,774.6862355269841,None,774.6862355269841,None,775.755503266002,None,1,0.36655194498598576,775.755503266002,None,84,776.1386819469917,None,135,B,1,2021_May_31_1053,GazeFlow,2020.1.2,59.861661615330696,
6,Block803.xls,B,,,,,,,,,,,,,,,,,,0,5,5,5,,,,,,,,,,,,,,,,,,,,,,,,,,,,,,,,,,,,,,,,,,,,135,B,1,2021_May_31_1053,GazeFlow,2020.1.2,59.861661615330696,
7,Block810.xls,B,10,1,119,23,None,incongruent,Left,Right,Left,76,69,7,yellow,2,5,/home/docky/apps/exp/images/76Yi.jpeg,/home/docky/apps/exp/images/69Y.jpeg,0,6,6,6,0,0,0,0,799.4176763409923,None,799.4176763409923,None,1,4.479377344017848,799.4176763409923,None,803.9235151119938,None,803.9235151119938,None,806.4526627509913,None,806.4526627509913,None,1.6007836629869416,808.2287781480118,None,808.2287781480118,None,5,1,0.9689583310100716,809.8211748840113,None,809.8211748840113,None,809.8211748840113,None,810.807694935007,None,1,0.44907838001381606,810.807694935007,None,86,811.2733599900093,None,135,B,1,2021_May_31_1053,GazeFlow,2020.1.2,59.861661615330696,
7,Block810.xls,B,10,2,43,43,None,congruent,Right,Right,Left,83,80,3,blue,2,5,/home/docky/apps/exp/images/83B.jpeg,/home/docky/apps/exp/images/80Bi.jpeg,0,6,6,6,0,1,1,1,812.2759034080082,None,812.2759034080082,None,1,4.576062822015956,812.2759034080082,None,816.8852515110048,None,816.8852515110048,None,819.3879202769895,None,819.3879202769895,None,1.1339449209917802,821.1863649380102,None,821.1863649380102,None,5,1,1.0016859020106494,822.3121264220099,None,822.3121264220099,None,822.3121264220099,None,823.330044968985,None,1,0.4682199580129236,823.330044968985,None,88,823.8148708030058,None,135,B,1,2021_May_31_1053,GazeFlow,2020.1.2,59.861661615330696,
7,Block810.xls,B,10,3,53,53,None,congruent,Left,Left,Right,65,66,1,yellow,2,6,/home/docky/apps/exp/images/35Bi.jpeg,/home/docky/apps/exp/images/66Y.jpeg,0,6,6,6,0,2,2,2,824.8164925889869,None,824.8164925889869,None,1,4.659694381000008,824.8164925889869,None,829.5121829689888,None,829.5121829689888,None,832.0131224259967,None,832.0131224259967,None,1.2672846259956714,833.818298461003,None,833.818298461003,None,6,1,1.0180502499861177,835.0703487299907,None,835.0703487299907,None,835.0703487299907,None,836.1049209049961,None,1,0.38411583501147106,836.1049209049961,None,90,836.5060414460022,None,135,B,1,2021_May_31_1053,GazeFlow,2020.1.2,59.861661615330696,
7,Block810.xls,B,10,4,74,74,None,congruent,Right,Right,Left,35,33,2,yellow,2,5,/home/docky/apps/exp/images/35Y.jpeg,/home/docky/apps/exp/images/33Yi.jpeg,0,6,6,6,0,3,3,3,837.5076391430048,None,837.5076391430048,None,1,4.142113785987021,837.5076391430048,None,841.6836067219847,None,841.6836067219847,None,844.1866908140073,None,844.1866908140073,None,1.4676467319950461,845.9904384030087,None,845.9904384030087,None,5,1,0.951907550013857,847.4443314920063,None,847.4443314920063,None,847.4443314920063,None,848.4127311269986,None,1,0.4009538239915855,848.4127311269986,None,92,848.8300822819874,None,135,B,1,2021_May_31_1053,GazeFlow,2020.1.2,59.861661615330696,
7,Block810.xls,B,10,5,21,21,None,congruent,Left,Left,Right,76,79,3,blue,2,6,/home/docky/apps/exp/images/76B.jpeg,/home/docky/apps/exp/images/79Bi.jpeg,0,6,6,6,0,4,4,4,849.8319848960091,None,849.8319848960091,None,1,4.442327108990867,849.8319848960091,None,854.3078924239962,None,854.3078924239962,None,856.8102372490102,None,856.8102372490102,None,1.4176680310047232,858.6150144329877,None,858.6150144329877,None,5,0,1.035312501975568,860.018787220004,None,860.018787220004,None,860.018787220004,None,861.0705997089972,None,1,0.40135452698450536,861.0705997089972,None,90,861.4880510460061,None,135,B,1,2021_May_31_1053,GazeFlow,2020.1.2,59.861661615330696,
7,Block810.xls,B,10,6,85,85,None,congruent,Right,Right,Left,75,69,6,yellow,2,5,/home/docky/apps/exp/images/76Y.jpeg,/home/docky/apps/exp/images/69Yi.jpeg,0,6,6,6,0,5,5,5,862.4895027070015,None,862.4895027070015,None,1,4.542949030990712,862.4895027070015,None,867.0659413819958,None,867.0659413819958,None,869.5696315389941,None,869.5696315389941,None,1.3173819500079844,871.3718043410045,None,871.3718043410045,None,5,1,0.9680598699778784,872.6764755240001,None,872.6764755240001,None,872.6764755240001,None,873.6616517099901,None,1,0.4344676030159462,873.6616517099901,None,92,874.1125804100011,None,135,B,1,2021_May_31_1053,GazeFlow,2020.1.2,59.861661615330696,
7,Block810.xls,B,10,7,49,49,None,congruent,Left,Left,Right,33,35,2,yellow,2,6,/home/docky/apps/exp/images/33Yi.jpeg,/home/docky/apps/exp/images/35Y.jpeg,0,6,6,6,0,6,6,6,875.1141259009892,None,875.1141259009892,None,1,4.410259530006442,875.1141259009892,None,879.5582085539936,None,879.5582085539936,None,882.0620123450062,None,882.0620123450062,None,1.8519464029814117,883.8629735280119,None,883.8629735280119,None,5,0,3.690387479000492,885.702087393991,None,885.702087393991,None,885.702087393991,None,889.4094868800021,None,1,0.46729470099671744,889.4094868800021,None,90,889.8932757079892,None,135,B,1,2021_May_31_1053,GazeFlow,2020.1.2,59.861661615330696,
7,Block810.xls,B,10,8,63,63,None,congruent,Left,Left,Right,38,39,1,yellow,2,6,/home/docky/apps/exp/images/38Y.jpeg,/home/docky/apps/exp/images/39Yi.jpeg,0,6,6,6,0,7,7,7,890.8952337160008,None,890.8952337160008,None,1,4.559405042993603,890.8952337160008,None,895.4882074529887,None,895.4882074529887,None,897.9926577229926,None,897.9926577229926,None,1.2843009670032188,899.7965967739874,None,899.7965967739874,None,6,1,1.0346038060088176,901.0652890240017,None,901.0652890240017,None,901.0652890240017,None,902.1164523490006,None,1,0.45123368699569255,902.1164523490006,None,92,902.5841401669895,None,135,B,1,2021_May_31_1053,GazeFlow,2020.1.2,59.861661615330696,
7,Block810.xls,B,,,,,,,,,,,,,,,,,,0,6,6,6,,,,,,,,,,,,,,,,,,,,,,,,,,,,,,,,,,,,,,,,,,,,135,B,1,2021_May_31_1053,GazeFlow,2020.1.2,59.861661615330696,
8,Block801.xls,B,1,1,1,1,None,congruent,Left,Left,Right,16,19,3,blue,2,6,/home/docky/apps/exp/images/16Bi.jpeg,/home/docky/apps/exp/images/19B.jpeg,0,7,7,7,0,0,0,0,926.2147961049923,None,926.2147961049923,None,1,4.2501608490129,926.2147961049923,None,930.4863899699994,None,930.4863899699994,None,933.0115140049893,None,933.0115140049893,None,1.149991245009005,934.8145883780089,None,934.8145883780089,None,6,1,1.1187224739987869,935.9493059759843,None,935.9493059759843,None,935.9493059759843,None,937.0845154609997,None,1,0.4017206449934747,937.0845154609997,None,94,937.5021978000004,None,135,B,1,2021_May_31_1053,GazeFlow,2020.1.2,59.861661615330696,
8,Block801.xls,B,1,2,105,9,None,incongruent,Left,Right,Left,79,73,6,blue,2,5,/home/docky/apps/exp/images/79B.jpeg,/home/docky/apps/exp/images/73Bi.jpeg,0,7,7,7,0,1,1,1,938.5039709740086,None,938.5039709740086,None,1,4.426295811979799,938.5039709740086,None,942.9660099800094,None,942.9660099800094,None,945.4670838069869,None,945.4670838069869,None,1.7017018840124365,947.2655345049861,None,947.2655345049861,None,5,1,1.1199080309888814,948.9581306710024,None,948.9581306710024,None,948.9581306710024,None,950.0932324859896,None,1,0.41728341300040483,950.0932324859896,None,96,950.5271746930084,None,135,B,1,2021_May_31_1053,GazeFlow,2020.1.2,59.861661615330696,
8,Block801.xls,B,1,3,62,62,None,congruent,Left,Left,Right,38,39,1,yellow,2,6,/home/docky/apps/exp/images/38Y.jpeg,/home/docky/apps/exp/images/39Yi.jpeg,0,7,7,7,0,2,2,2,951.5294426280016,None,951.5294426280016,None,1,4.660019585018745,951.5294426280016,None,956.2228358830034,None,956.2228358830034,None,958.7248837079969,None,958.7248837079969,None,1.3010017479828093,960.5284206400102,None,960.5284206400102,None,6,1,1.1022926150180865,961.8164461420092,None,961.8164461420092,None,961.8164461420092,None,962.935126004013,None,1,0.3842178039776627,962.935126004013,None,98,963.3359175479854,None,135,B,1,2021_May_31_1053,GazeFlow,2020.1.2,59.861661615330696,
8,Block801.xls,B,1,4,38,38,None,congruent,Right,Right,Left,79,73,6,blue,2,5,/home/docky/apps/exp/images/79B.jpeg,/home/docky/apps/exp/images/73Bi.jpeg,0,7,7,7,0,3,3,3,964.3373493610125,None,964.3373493610125,None,1,4.592963127011899,964.3373493610125,None,968.9640278980078,None,968.9640278980078,None,971.4733918359852,None,971.4733918359852,None,1.1002662229875568,973.266101035988,None,973.266101035988,None,5,1,1.0683378709945828,974.3574867080024,None,974.3574867080024,None,974.3574867080024,None,975.4423129179922,None,1,0.38503076901542954,975.4423129179922,None,100,975.8430707409861,None,135,B,1,2021_May_31_1053,GazeFlow,2020.1.2,59.861661615330696,
8,Block801.xls,B,1,5,6,6,None,congruent,Left,Left,Right,35,38,3,blue,2,6,/home/docky/apps/exp/images/35Bi.jpeg,/home/docky/apps/exp/images/38B.jpeg,0,7,7,7,0,4,4,4,976.8452505370078,None,976.8452505370078,None,1,4.659637017000932,976.8452505370078,None,981.5385717400059,None,981.5385717400059,None,984.0435142460046,None,984.0435142460046,None,1.251065516989911,985.8452426439908,None,985.8452426439908,None,6,1,1.119067172985524,987.0822306670016,None,987.0822306670016,None,987.0822306670016,None,988.217370673985,None,1,0.41795235298923217,988.217370673985,None,102,988.6517352290102,None,135,B,1,2021_May_31_1053,GazeFlow,2020.1.2,59.861661615330696,
8,Block801.xls,B,1,6,51,51,None,congruent,Left,Left,Right,33,35,2,yellow,2,6,/home/docky/apps/exp/images/33Yi.jpeg,/home/docky/apps/exp/images/35Y.jpeg,0,7,7,7,0,5,5,5,989.6532377130061,None,989.6532377130061,None,1,4.2928898530080914,989.6532377130061,None,993.9829596380005,None,993.9829596380005,None,996.4819220420031,None,996.4819220420031,None,1.7015521069988608,998.2834982300119,None,998.2834982300119,None,6,1,1.0523773739987519,999.9739125240012,None,999.9739125240012,None,999.9739125240012,None,1001.0423118550098,None,1,0.40051878200029023,1001.0423118550098,None,104,1001.4596785749891,None,135,B,1,2021_May_31_1053,GazeFlow,2020.1.2,59.861661615330696,
8,Block801.xls,B,1,7,73,73,None,congruent,Right,Right,Left,35,33,2,yellow,2,5,/home/docky/apps/exp/images/35Yi.jpeg,/home/docky/apps/exp/images/33Y.jpeg,0,7,7,7,0,6,6,6,1002.4619068879983,None,1002.4619068879983,None,1,4.442692677985178,1002.4619068879983,None,1006.9384845299937,None,1006.9384845299937,None,1009.4426002120017,None,1009.4426002120017,None,1.083590300026117,1011.2393751449999,None,1011.2393751449999,None,5,1,1.1683816610020585,1012.3144981100049,None,1012.3144981100049,None,1012.3144981100049,None,1013.5002132630034,None,1,0.40070324001135305,1013.5002132630034,None,106,1013.9174598529935,None,135,B,1,2021_May_31_1053,GazeFlow,2020.1.2,59.861661615330696,
8,Block801.xls,B,1,8,96,96,None,congruent,Right,Right,Left,80,79,1,yellow,2,5,/home/docky/apps/exp/images/80Yi.jpeg,/home/docky/apps/exp/images/79Y.jpeg,0,7,7,7,0,7,7,7,1014.9190432550095,None,1014.9190432550095,None,1,5.427873153006658,1014.9190432550095,None,1020.3807940830011,None,1020.3807940830011,None,1022.8840992980113,None,1022.8840992980113,None,2.0686527309881058,1024.6870221800054,None,1024.6870221800054,None,5,1,0.9847854920080863,1026.7426085250045,None,1026.7426085250045,None,1026.7426085250045,None,1027.7437062819954,None,1,0.4344675279862713,1027.7437062819954,None,108,1028.1947739459865,None,135,B,1,2021_May_31_1053,GazeFlow,2020.1.2,59.861661615330696,
8,Block801.xls,B,,,,,,,,,,,,,,,,,,0,7,7,7,,,,,,,,,,,,,,,,,,,,,,,,,,,,,,,,,,,,,,,,,,,,135,B,1,2021_May_31_1053,GazeFlow,2020.1.2,59.861661615330696,
9,Block802.xls,B,2,1,30,30,None,congruent,Right,Right,Left,38,35,3,blue,2,5,/home/docky/apps/exp/images/38B.jpeg,/home/docky/apps/exp/images/35Bi.jpeg,0,8,8,8,0,0,0,0,1046.7509591539856,None,1046.7509591539856,None,1,5.248691473010695,1046.7509591539856,None,1052.024436423002,None,1052.024436423002,None,1054.5468866890005,None,1054.5468866890005,None,1.3001175460231025,1056.3506334630074,None,1056.3506334630074,None,5,1,3.807603144989116,1057.635852945008,None,1057.635852945008,None,1057.635852945008,None,1061.4597952239856,None,1,0.6682267250143923,1061.4597952239856,None,110,1062.144274819002,None,135,B,1,2021_May_31_1053,GazeFlow,2020.1.2,59.861661615330696,
9,Block802.xls,B,2,2,5,5,None,congruent,Left,Left,Right,35,38,3,blue,2,6,/home/docky/apps/exp/images/35B.jpeg,/home/docky/apps/exp/images/38Bi.jpeg,0,8,8,8,0,1,1,1,1063.1465293439978,None,1063.1465293439978,None,1,5.043366706988309,1063.1465293439978,None,1068.22356858899,None,1068.22356858899,None,1070.7266248989908,None,1070.7266248989908,None,1.2341159529751167,1072.5303523949988,None,1072.5303523949988,None,6,1,1.202455441991333,1073.750538332999,None,1073.750538332999,None,1073.750538332999,None,1074.9693566120113,None,1,0.41814362301374786,1074.9693566120113,None,112,1075.4034438969975,None,135,B,1,2021_May_31_1053,GazeFlow,2020.1.2,59.861661615330696,
9,Block802.xls,B,2,3,103,7,None,incongruent,Left,Right,Left,19,16,3,blue,2,5,/home/docky/apps/exp/images/19Bi.jpeg,/home/docky/apps/exp/images/16B.jpeg,0,8,8,8,0,2,2,2,1076.4050542089972,None,1076.4050542089972,None,1,4.442660272994544,1076.4050542089972,None,1080.881625317008,None,1080.881625317008,None,1083.3860787150043,None,1083.3860787150043,None,1.8353145539877005,1085.1822419470118,None,1085.1822419470118,None,5,1,3.055965350999031,1087.0097158330027,None,1087.0097158330027,None,1087.0097158330027,None,1090.0820264969952,None,1,0.484430557989981,1090.0820264969952,None,114,1090.5829995250097,None,135,B,1,2021_May_31_1053,GazeFlow,2020.1.2,59.861661615330696,
9,Block802.xls,B,2,4,35,35,None,congruent,Right,Right,Left,66,65,1,blue,2,5,/home/docky/apps/exp/images/66B.jpeg,/home/docky/apps/exp/images/35Yi.jpeg,0,8,8,8,0,3,3,3,1091.5849863819894,None,1091.5849863819894,None,1,5.310618440009421,1091.5849863819894,None,1096.9299272460048,None,1096.9299272460048,None,1099.4327871600108,None,1099.4327871600108,None,1.4342686619784217,1101.2305519930087,None,1101.2305519930087,None,5,1,1.0356678960088175,1102.6564908250002,None,1102.6564908250002,None,1102.6564908250002,None,1103.7084770989895,None,1,0.5007975909975357,1103.7084770989895,None,116,1104.2257437260123,None,135,B,1,2021_May_31_1053,GazeFlow,2020.1.2,59.861661615330696,
9,Block802.xls,B,2,5,42,42,None,congruent,Right,Right,Left,83,80,3,blue,2,5,/home/docky/apps/exp/images/83Bi.jpeg,/home/docky/apps/exp/images/80B.jpeg,0,8,8,8,0,4,4,4,1105.2281528029998,None,1105.2281528029998,None,1,5.311005587980617,1105.2281528029998,None,1110.5725343860104,None,1110.5725343860104,None,1113.075432869984,None,1113.075432869984,None,1.1836690540076233,1114.8787715460057,None,1114.8787715460057,None,5,1,1.1524455330218188,1116.0491043479997,None,1116.0491043479997,None,1116.0491043479997,None,1117.2179832480033,None,1,0.45119043899467215,1117.2179832480033,None,118,1117.6856596790021,None,135,B,1,2021_May_31_1053,GazeFlow,2020.1.2,59.861661615330696,
9,Block802.xls,B,2,6,104,8,None,incongruent,Left,Right,Left,38,35,3,blue,2,5,/home/docky/apps/exp/images/38B.jpeg,/home/docky/apps/exp/images/35Bi.jpeg,0,8,8,8,0,5,5,5,1118.687172792008,None,1118.687172792008,None,1,4.910653950006235,1118.687172792008,None,1123.6295975649846,None,1123.6295975649846,None,1126.1342565710074,None,1126.1342565710074,None,1.4676707879989408,1127.936844042997,None,1127.936844042997,None,6,0,1.1189581229991745,1129.391870838008,None,1129.391870838008,None,1129.391870838008,None,1130.527309839992,None,1,0.3835222130001057,1130.527309839992,None,116,1130.9274848600035,None,135,B,1,2021_May_31_1053,GazeFlow,2020.1.2,59.861661615330696,
9,Block802.xls,B,2,7,22,22,None,congruent,Left,Left,Right,80,83,3,blue,2,6,/home/docky/apps/exp/images/80Bi.jpeg,/home/docky/apps/exp/images/83B.jpeg,0,8,8,8,0,6,6,6,1131.9295397829846,None,1131.9295397829846,None,1,4.592873517976841,1131.9295397829846,None,1136.5563353110047,None,1136.5563353110047,None,1139.0598452079867,None,1139.0598452079867,None,1.300964240974281,1140.8622231949994,None,1140.8622231949994,None,6,1,1.1357425719907042,1142.1502025229856,None,1142.1502025229856,None,1142.1502025229856,None,1143.3020015259972,None,1,0.400338612991618,1143.3020015259972,None,118,1143.7194112729921,None,135,B,1,2021_May_31_1053,GazeFlow,2020.1.2,59.861661615330696,
9,Block802.xls,B,2,8,54,54,None,congruent,Left,Left,Right,65,66,1,yellow,2,6,/home/docky/apps/exp/images/35Bi.jpeg,/home/docky/apps/exp/images/66Y.jpeg,0,8,8,8,0,7,7,7,1144.7213914179883,None,1144.7213914179883,None,1,4.442379497981165,1144.7213914179883,None,1149.1975615569972,None,1149.1975615569972,None,1151.7048644649913,None,1151.7048644649913,None,1.0501111050252803,1153.503871805995,None,1153.503871805995,None,6,1,1.1020325039862655,1154.5405497449974,None,1154.5405497449974,None,1154.5405497449974,None,1155.6589434189955,None,1,0.38494808299583383,1155.6589434189955,None,120,1156.0601936180028,None,135,B,1,2021_May_31_1053,GazeFlow,2020.1.2,59.861661615330696,
9,Block802.xls,B,,,,,,,,,,,,,,,,,,0,8,8,8,,,,,,,,,,,,,,,,,,,,,,,,,,,,,,,,,,,,,,,,,,,,135,B,1,2021_May_31_1053,GazeFlow,2020.1.2,59.861661615330696,
10,Block813.xls,B,13,1,70,70,None,congruent,Left,Left,Right,79,82,3,yellow,2,6,/home/docky/apps/exp/images/79Yi.jpeg,/home/docky/apps/exp/images/80Y.jpeg,0,9,9,9,0,0,0,0,1176.1533076089981,None,1176.1533076089981,None,1,4.780970581981819,1176.1533076089981,None,1180.9627769629878,None,1180.9627769629878,None,1183.4808937970083,None,1183.4808937970083,None,1.383786335005425,1185.2818135760026,None,1185.2818135760026,None,6,1,1.1026079889852554,1186.6530638420081,None,1186.6530638420081,None,1186.6530638420081,None,1187.7717952360108,None,1,0.43387846401310526,1187.7717952360108,None,122,1188.2222161509853,None,135,B,1,2021_May_31_1053,GazeFlow,2020.1.2,59.861661615330696,
10,Block813.xls,B,13,2,60,60,None,congruent,Left,Left,Right,38,39,1,yellow,2,6,/home/docky/apps/exp/images/38Yi.jpeg,/home/docky/apps/exp/images/39Y.jpeg,0,9,9,9,0,1,1,1,1189.2241383520013,None,1189.2241383520013,None,1,4.075355226988904,1189.2241383520013,None,1193.332994049997,None,1193.332994049997,None,1195.836190647009,None,1195.836190647009,None,1.7185042490018532,1197.6397061889875,None,1197.6397061889875,None,5,0,1.1026703199895564,1199.344380516006,None,1199.344380516006,None,1199.344380516006,None,1200.4630933720036,None,1,0.40045951202046126,1200.4630933720036,None,120,1200.8801502219867,None,135,B,1,2021_May_31_1053,GazeFlow,2020.1.2,59.861661615330696,
10,Block813.xls,B,13,3,81,81,None,congruent,Right,Right,Left,66,65,1,yellow,2,5,/home/docky/apps/exp/images/66Y.jpeg,/home/docky/apps/exp/images/35Bi.jpeg,0,9,9,9,0,2,2,2,1201.882154366991,None,1201.882154366991,None,1,4.292297325999243,1201.882154366991,None,1206.2081086779945,None,1206.2081086779945,None,1208.713863315992,None,1208.713863315992,None,1.4176289679890033,1210.5151283809973,None,1210.5151283809973,None,5,1,1.0522597059898544,1211.9188006480108,None,1211.9188006480108,None,1211.9188006480108,None,1212.9874472930096,None,1,0.38469154000631534,1212.9874472930096,None,122,1213.3883612749923,None,135,B,1,2021_May_31_1053,GazeFlow,2020.1.2,59.861661615330696,
10,Block813.xls,B,13,4,110,14,None,incongruent,Right,Left,Right,65,66,1,yellow,2,6,/home/docky/apps/exp/images/35B.jpeg,/home/docky/apps/exp/images/66Yi.jpeg,0,9,9,9,0,3,3,3,1214.3897940349998,None,1214.3897940349998,None,1,4.894051004026551,1214.3897940349998,None,1219.3171679310035,None,1219.3171679310035,None,1221.821919037,None,1221.821919037,None,1.5344759639992844,1223.6235791810032,None,1223.6235791810032,None,5,0,1.0689071850210894,1225.14459277899,None,1225.14459277899,None,1225.14459277899,None,1226.229789264995,None,1,0.45070954799302854,1226.229789264995,None,120,1226.6969326520048,None,135,B,1,2021_May_31_1053,GazeFlow,2020.1.2,59.861661615330696,
10,Block813.xls,B,13,5,17,17,None,congruent,Left,Left,Right,73,76,3,blue,2,6,/home/docky/apps/exp/images/73Bi.jpeg,/home/docky/apps/exp/images/76B.jpeg,0,9,9,9,0,4,4,4,1227.6990086429869,None,1227.6990086429869,None,1,4.693323871004395,1227.6990086429869,None,1232.4241605300049,None,1232.4241605300049,None,1234.9309487470018,None,1234.9309487470018,None,1.6844730529992376,1236.7323778769933,None,1236.7323778769933,None,6,1,1.1019315409939736,1238.403829465009,None,1238.403829465009,None,1238.403829465009,None,1239.5223069489875,None,1,0.4006624220055528,1239.5223069489875,None,122,1239.9393560989993,None,135,B,1,2021_May_31_1053,GazeFlow,2020.1.2,59.861661615330696,
10,Block813.xls,B,13,6,111,15,None,incongruent,Right,Left,Right,62,65,3,yellow,2,6,/home/docky/apps/exp/images/38B.jpeg,/home/docky/apps/exp/images/35Bi.jpeg,0,9,9,9,0,5,5,5,1240.941383450001,None,1240.941383450001,None,1,5.227557780017378,1240.941383450001,None,1246.2028899799916,None,1246.2028899799916,None,1248.7073204999906,None,1248.7073204999906,None,1.9687177570012864,1250.5093243090087,None,1250.5093243090087,None,5,0,1.0011722659983207,1252.464569439995,None,1252.464569439995,None,1252.464569439995,None,1253.4820864009962,None,1,0.43466751600499265,1253.4820864009962,None,120,1253.93320063001,None,135,B,1,2021_May_31_1053,GazeFlow,2020.1.2,59.861661615330696,
10,Block813.xls,B,13,7,55,55,None,congruent,Left,Left,Right,65,66,1,yellow,2,6,/home/docky/apps/exp/images/35B.jpeg,/home/docky/apps/exp/images/66Yi.jpeg,0,9,9,9,0,6,6,6,1254.9353607899975,None,1254.9353607899975,None,1,4.960571050003637,1254.9353607899975,None,1259.9291413199971,None,1259.9291413199971,None,1262.4317920559843,None,1262.4317920559843,None,2.0020166109898128,1264.2310178269981,None,1264.2310178269981,None,6,1,0.9845076269994024,1266.2244155980006,None,1266.2244155980006,None,1266.2244155980006,None,1267.2257377030037,None,1,0.4343722699850332,1267.2257377030037,None,122,1267.6764081869915,None,135,B,1,2021_May_31_1053,GazeFlow,2020.1.2,59.861661615330696,
10,Block813.xls,B,13,8,26,26,None,congruent,Right,Right,Left,19,16,3,blue,2,5,/home/docky/apps/exp/images/19B.jpeg,/home/docky/apps/exp/images/16Bi.jpeg,0,9,9,9,0,7,7,7,1268.678765210003,None,1268.678765210003,None,1,4.141870641993592,1268.678765210003,None,1272.8526611939888,None,1272.8526611939888,None,1275.3569932710088,None,1275.3569932710088,None,1.3508995749871247,1277.1553651519935,None,1277.1553651519935,None,5,1,1.035640082001919,1278.4982367299963,None,1278.4982367299963,None,1278.4982367299963,None,1279.5500114049937,None,1,0.4511691130173858,1279.5500114049937,None,124,1280.0176025719848,None,135,B,1,2021_May_31_1053,GazeFlow,2020.1.2,59.861661615330696,
10,Block813.xls,B,,,,,,,,,,,,,,,,,,0,9,9,9,,,,,,,,,,,,,,,,,,,,,,,,,,,,,,,,,,,,,,,,,,,,135,B,1,2021_May_31_1053,GazeFlow,2020.1.2,59.861661615330696,
11,Block806.xls,B,6,1,10,10,None,congruent,Left,Left,Right,65,66,1,blue,2,6,/home/docky/apps/exp/images/35Y.jpeg,/home/docky/apps/exp/images/66Bi.jpeg,0,10,10,10,0,0,0,0,1300.0415190159983,None,1300.0415190159983,None,1,4.165255850995891,1300.0415190159983,None,1304.229929219,None,1304.229929219,None,1306.7533053529914,None,1306.7533053529914,None,1.6505565530096646,1308.5570944790088,None,1308.5570944790088,None,5,0,2.704660914023407,1310.1932052730117,None,1310.1932052730117,None,1310.1932052730117,None,1312.9147006350104,None,1,1.6368356849998236,1312.9147006350104,None,122,1314.5680208170088,None,135,B,1,2021_May_31_1053,GazeFlow,2020.1.2,59.861661615330696,
11,Block806.xls,B,6,2,89,89,None,congruent,Right,Right,Left,76,69,7,yellow,2,5,/home/docky/apps/exp/images/76Yi.jpeg,/home/docky/apps/exp/images/69Y.jpeg,0,10,10,10,0,1,1,1,1315.5700230259972,None,1315.5700230259972,None,1,4.5757924590143375,1315.5700230259972,None,1320.177859235002,None,1320.177859235002,None,1322.6845412210096,None,1322.6845412210096,None,1.066992639011005,1324.4863676459936,None,1324.4863676459936,None,5,1,1.0181667619908694,1325.5394551909994,None,1325.5394551909994,None,1325.5394551909994,None,1326.5745679289976,None,1,0.5178450620151125,1326.5745679289976,None,124,1327.1091431480017,None,135,B,1,2021_May_31_1053,GazeFlow,2020.1.2,59.861661615330696,
11,Block806.xls,B,6,3,88,88,None,congruent,Right,Right,Left,76,69,7,yellow,2,5,/home/docky/apps/exp/images/76Y.jpeg,/home/docky/apps/exp/images/69Yi.jpeg,0,10,10,10,0,2,2,2,1328.1105367220007,None,1328.1105367220007,None,1,4.125467700010631,1328.1105367220007,None,1332.2715953250008,None,1332.2715953250008,None,1334.772561610007,None,1334.772561610007,None,1.0336110040079802,1336.577784580004,None,1336.577784580004,None,5,1,1.0679931769846007,1337.5963307479979,None,1337.5963307479979,None,1337.5963307479979,None,1338.6811525340017,None,1,0.43497293000109494,1338.6811525340017,None,126,1339.1319204180036,None,135,B,1,2021_May_31_1053,GazeFlow,2020.1.2,59.861661615330696,
11,Block806.xls,B,6,4,109,13,None,incongruent,Right,Left,Right,33,35,2,yellow,2,6,/home/docky/apps/exp/images/33Yi.jpeg,/home/docky/apps/exp/images/35Y.jpeg,0,10,10,10,0,3,3,3,1340.1343040030042,None,1340.1343040030042,None,1,4.676124989025993,1340.1343040030042,None,1344.8440909190103,None,1344.8440909190103,None,1347.3472888040124,None,1347.3472888040124,None,2.1187474349862896,1349.145761346008,None,1349.145761346008,None,5,0,0.9360096580057871,1351.2562063729856,None,1351.2562063729856,None,1351.2562063729856,None,1352.2071935679996,None,1,0.4680257010040805,1352.2071935679996,None,124,1352.6914535920077,None,135,B,1,2021_May_31_1053,GazeFlow,2020.1.2,59.861661615330696,
11,Block806.xls,B,6,5,37,37,None,congruent,Right,Right,Left,79,73,6,blue,2,5,/home/docky/apps/exp/images/79Bi.jpeg,/home/docky/apps/exp/images/73B.jpeg,0,10,10,10,0,4,4,4,1353.6935683320044,None,1353.6935683320044,None,1,4.593054229015252,1353.6935683320044,None,1358.318547739007,None,1358.318547739007,None,1360.8251089949918,None,1360.8251089949918,None,1.4010087049973663,1362.6265375569928,None,1362.6265375569928,None,5,1,0.9687190059921704,1364.0141619769856,None,1364.0141619769856,None,1364.0141619769856,None,1364.9993841240066,None,1,0.45107909201760776,1364.9993841240066,None,126,1365.4673605269927,None,135,B,1,2021_May_31_1053,GazeFlow,2020.1.2,59.861661615330696,
11,Block806.xls,B,6,6,108,12,None,incongruent,Left,Right,Left,39,38,1,blue,2,5,/home/docky/apps/exp/images/39Bi.jpeg,/home/docky/apps/exp/images/38B.jpeg,0,10,10,10,0,5,5,5,1366.4687037080002,None,1366.4687037080002,None,1,4.626133665005909,1366.4687037080002,None,1371.1312715339882,None,1371.1312715339882,None,1373.6315527319966,None,1373.6315527319966,None,1.985491464001825,1375.4347483009915,None,1375.4347483009915,None,5,1,1.0849408539943397,1377.4070204230084,None,1377.4070204230084,None,1377.4070204230084,None,1378.5087175949884,None,1,0.40075307700317353,1378.5087175949884,None,128,1378.926143240009,None,135,B,1,2021_May_31_1053,GazeFlow,2020.1.2,59.861661615330696,
11,Block806.xls,B,6,7,52,52,None,congruent,Left,Left,Right,65,66,1,yellow,2,6,/home/docky/apps/exp/images/35B.jpeg,/home/docky/apps/exp/images/66Yi.jpeg,0,10,10,10,0,6,6,6,1379.928129256994,None,1379.928129256994,None,1,4.359034460008843,1379.928129256994,None,1384.3210690350097,None,1384.3210690350097,None,1386.8233521110087,None,1386.8233521110087,None,2.3027877029962838,1388.6276545030123,None,1388.6276545030123,None,5,0,1.0186381340026855,1390.9165608040057,None,1390.9165608040057,None,1390.9165608040057,None,1391.9514161109983,None,1,0.4174517420178745,1391.9514161109983,None,126,1392.385296190012,None,135,B,1,2021_May_31_1053,GazeFlow,2020.1.2,59.861661615330696,
11,Block806.xls,B,6,8,75,75,None,congruent,Right,Right,Left,35,33,2,yellow,2,5,/home/docky/apps/exp/images/35Yi.jpeg,/home/docky/apps/exp/images/33Y.jpeg,0,10,10,10,0,7,7,7,1393.3878942349984,None,1393.3878942349984,None,1,4.776492031000089,1393.3878942349984,None,1398.1977529159922,None,1398.1977529159922,None,1400.701254937012,None,1400.701254937012,None,1.6514797749987338,1402.5045812499884,None,1402.5045812499884,None,5,1,0.9851963859982789,1404.1423506590072,None,1404.1423506590072,None,1404.1423506590072,None,1405.1440250570013,None,1,0.45076249400153756,1405.1440250570013,None,128,1405.6112077409925,None,135,B,1,2021_May_31_1053,GazeFlow,2020.1.2,59.861661615330696,
11,Block806.xls,B,,,,,,,,,,,,,,,,,,0,10,10,10,,,,,,,,,,,,,,,,,,,,,,,,,,,,,,,,,,,,,,,,,,,,135,B,1,2021_May_31_1053,GazeFlow,2020.1.2,59.861661615330696,
12,Block811.xls,B,11,1,86,86,None,congruent,Right,Right,Left,75,69,6,yellow,2,5,/home/docky/apps/exp/images/76Y.jpeg,/home/docky/apps/exp/images/69Yi.jpeg,0,11,11,11,0,0,0,0,1424.8345134250121,None,1424.8345134250121,None,1,4.163570064003579,1424.8345134250121,None,1429.0261045400111,None,1429.0261045400111,None,1431.546077217994,None,1431.546077217994,None,1.2332993829913903,1433.3472586809949,None,1433.3472586809949,None,5,1,1.0180787830031477,1434.567894895008,None,1434.567894895008,None,1434.567894895008,None,1435.603288348997,None,1,0.4844154510064982,1435.603288348997,None,130,1436.1041868549946,None,135,B,1,2021_May_31_1053,GazeFlow,2020.1.2,59.861661615330696,
12,Block811.xls,B,11,2,83,83,None,congruent,Right,Right,Left,75,69,6,yellow,2,5,/home/docky/apps/exp/images/76Yi.jpeg,/home/docky/apps/exp/images/69Y.jpeg,0,11,11,11,0,1,1,1,1437.1057624199893,None,1437.1057624199893,None,1,4.409268474002602,1437.1057624199893,None,1441.5497237259988,None,1441.5497237259988,None,1444.0515082509955,None,1444.0515082509955,None,1.2840312510088552,1445.8553903870052,None,1445.8553903870052,None,5,1,0.9178921709826682,1447.125767585996,None,1447.125767585996,None,1447.125767585996,None,1448.0604276469967,None,1,0.4345302619913127,1448.0604276469967,None,132,1448.5115352850116,None,135,B,1,2021_May_31_1053,GazeFlow,2020.1.2,59.861661615330696,
12,Block811.xls,B,11,3,28,28,None,congruent,Right,Right,Left,38,35,3,blue,2,5,/home/docky/apps/exp/images/38Bi.jpeg,/home/docky/apps/exp/images/35B.jpeg,0,11,11,11,0,2,2,2,1449.5129578979977,None,1449.5129578979977,None,1,4.058764104003785,1449.5129578979977,None,1453.6033620660019,None,1453.6033620660019,None,1456.1081167839875,None,1456.1081167839875,None,0.9835010730021168,1457.9111261600046,None,1457.9111261600046,None,5,1,1.0014914450002834,1458.882005018997,None,1458.882005018997,None,1458.882005018997,None,1459.8999278940028,None,1,0.4348656139918603,1459.8999278940028,None,134,1460.3512565570127,None,135,B,1,2021_May_31_1053,GazeFlow,2020.1.2,59.861661615330696,
12,Block811.xls,B,11,4,58,58,None,congruent,Left,Left,Right,62,65,3,yellow,2,6,/home/docky/apps/exp/images/38B.jpeg,/home/docky/apps/exp/images/35Bi.jpeg,0,11,11,11,0,3,3,3,1461.3527204440034,None,1461.3527204440034,None,1,4.459450388007099,1461.3527204440034,None,1465.8441602689854,None,1465.8441602689854,None,1468.3508179250057,None,1468.3508179250057,None,1.802138482016744,1470.1463424960093,None,1470.1463424960093,None,6,1,0.9519800319976639,1471.9405853440112,None,1471.9405853440112,None,1471.9405853440112,None,1472.9090590889973,None,1,0.35008037899388,1472.9090590889973,None,136,1473.2756880740053,None,135,B,1,2021_May_31_1053,GazeFlow,2020.1.2,59.861661615330696,
12,Block811.xls,B,11,5,32,32,None,congruent,Right,Right,Left,66,65,1,blue,2,5,/home/docky/apps/exp/images/66Bi.jpeg,/home/docky/apps/exp/images/35Y.jpeg,0,11,11,11,0,4,4,4,1474.2782241560053,None,1474.2782241560053,None,1,3.8576873489946593,1474.2782241560053,None,1478.168122195988,None,1478.168122195988,None,1480.6747958699998,None,1480.6747958699998,None,1.717893004999496,1482.4764080079913,None,1482.4764080079913,None,5,1,0.9521045139990747,1484.1809029069846,None,1484.1809029069846,None,1484.1809029069846,None,1485.1494627970096,None,1,0.4339040759950876,1485.1494627970096,None,138,1485.5996289520117,None,135,B,1,2021_May_31_1053,GazeFlow,2020.1.2,59.861661615330696,
12,Block811.xls,B,11,6,67,67,None,congruent,Left,Left,Right,72,77,5,yellow,2,6,/home/docky/apps/exp/images/72Y.jpeg,/home/docky/apps/exp/images/77Yi.jpeg,0,11,11,11,0,5,5,5,1486.601800569013,None,1486.601800569013,None,1,4.192220116005046,1486.601800569013,None,1490.82753141399,None,1490.82753141399,None,1493.3335637369892,None,1493.3335637369892,None,1.4342903240176383,1495.129096760007,None,1495.129096760007,None,6,1,1.0021831599879079,1496.5552468750102,None,1496.5552468750102,None,1496.5552468750102,None,1497.5733684310107,None,1,0.45176724600605667,1497.5733684310107,None,140,1498.0408826580097,None,135,B,1,2021_May_31_1053,GazeFlow,2020.1.2,59.861661615330696,
12,Block811.xls,B,11,7,120,24,None,incongruent,Left,Right,Left,77,72,5,yellow,2,5,/home/docky/apps/exp/images/77Y.jpeg,/home/docky/apps/exp/images/72Yi.jpeg,0,11,11,11,0,6,6,6,1499.0425780369842,None,1499.0425780369842,None,1,4.058993291982915,1499.0425780369842,None,1503.1351894529944,None,1503.1351894529944,None,1505.6397311679902,None,1505.6397311679902,None,1.818443449010374,1507.44164347701,None,1507.44164347701,None,5,1,0.9523042670043651,1509.2464005530055,None,1509.2464005530055,None,1509.2464005530055,None,1510.214783545991,None,1,0.46728225698461756,1510.214783545991,None,142,1510.6985468000057,None,135,B,1,2021_May_31_1053,GazeFlow,2020.1.2,59.861661615330696,
12,Block811.xls,B,11,8,57,57,None,congruent,Left,Left,Right,62,65,3,yellow,2,6,/home/docky/apps/exp/images/38Bi.jpeg,/home/docky/apps/exp/images/35B.jpeg,0,11,11,11,0,7,7,7,1511.7008948120056,None,1511.7008948120056,None,1,4.525829783000518,1511.7008948120056,None,1516.2605352470127,None,1516.2605352470127,None,1518.7633376230078,None,1518.7633376230078,None,1.6511283819854725,1520.5666197940009,None,1520.5666197940009,None,6,1,1.1357789800094906,1522.204689192993,None,1522.204689192993,None,1522.204689192993,None,1523.356963269005,None,1,0.41710575998877175,1523.356963269005,None,144,1523.7908313809894,None,135,B,1,2021_May_31_1053,GazeFlow,2020.1.2,59.861661615330696,
12,Block811.xls,B,,,,,,,,,,,,,,,,,,0,11,11,11,,,,,,,,,,,,,,,,,,,,,,,,,,,,,,,,,,,,,,,,,,,,135,B,1,2021_May_31_1053,GazeFlow,2020.1.2,59.861661615330696,
13,Block808.xls,B,8,1,118,22,None,incongruent,Left,Right,Left,75,69,6,yellow,2,5,/home/docky/apps/exp/images/76Y.jpeg,/home/docky/apps/exp/images/69Yi.jpeg,0,12,12,12,0,0,0,0,1545.5515894749842,None,1545.5515894749842,None,1,5.2669118140183855,1545.5515894749842,None,1550.8448306609935,None,1550.8448306609935,None,1553.3643665929849,None,1553.3643665929849,None,1.6340902590018231,1555.1629185730126,None,1555.1629185730126,None,5,1,0.9684455520182382,1556.7888889950118,None,1556.7888889950118,None,1556.7888889950118,None,1557.7737439899938,None,1,0.4674385770049412,1557.7737439899938,None,146,1558.2575797259924,None,135,B,1,2021_May_31_1053,GazeFlow,2020.1.2,59.861661615330696,
13,Block808.xls,B,8,2,7,7,None,congruent,Left,Left,Right,65,66,1,blue,2,6,/home/docky/apps/exp/images/35Yi.jpeg,/home/docky/apps/exp/images/66B.jpeg,0,12,12,12,0,1,1,1,1559.2595514109998,None,1559.2595514109998,None,1,5.394622256979346,1559.2595514109998,None,1564.6908442690037,None,1564.6908442690037,None,1567.1907815209997,None,1567.1907815209997,None,1.1506242040195502,1568.994601523009,None,1568.994601523009,None,6,1,1.0847774599969853,1570.1312926120008,None,1570.1312926120008,None,1570.1312926120008,None,1571.2328747439897,None,1,0.5184388770139776,1571.2328747439897,None,148,1571.7678029119852,None,135,B,1,2021_May_31_1053,GazeFlow,2020.1.2,59.861661615330696,
13,Block808.xls,B,8,3,112,16,None,incongruent,Right,Left,Right,69,76,7,yellow,2,6,/home/docky/apps/exp/images/69Yi.jpeg,/home/docky/apps/exp/images/76Y.jpeg,0,12,12,12,0,2,2,2,1572.7693065220083,None,1572.7693065220083,None,1,4.459406589972787,1572.7693065220083,None,1577.262254264002,None,1577.262254264002,None,1579.7656557449955,None,1579.7656557449955,None,1.935241830011364,1581.570760253002,None,1581.570760253002,None,6,1,1.1017918690049555,1583.4907107620093,None,1583.4907107620093,None,1583.4907107620093,None,1584.608730723994,None,1,0.4178298079932574,1584.608730723994,None,150,1585.0428651699913,None,135,B,1,2021_May_31_1053,GazeFlow,2020.1.2,59.861661615330696,
13,Block808.xls,B,8,4,97,1,None,incongruent,Right,Left,Right,16,19,3,blue,2,6,/home/docky/apps/exp/images/16Bi.jpeg,/home/docky/apps/exp/images/19B.jpeg,0,12,12,12,0,3,3,3,1586.0448749749921,None,1586.0448749749921,None,1,4.543467114010127,1586.0448749749921,None,1590.62168303199,None,1590.62168303199,None,1593.1245061070076,None,1593.1245061070076,None,1.8182242580223829,1594.9277946109942,None,1594.9277946109942,None,6,1,1.018643544986844,1596.7330873470055,None,1596.7330873470055,None,1596.7330873470055,None,1597.7682442580117,None,1,0.36722995500895195,1597.7682442580117,None,152,1598.1517933970026,None,135,B,1,2021_May_31_1053,GazeFlow,2020.1.2,59.861661615330696,
13,Block808.xls,B,8,5,24,24,None,congruent,Left,Left,Right,80,83,3,blue,2,6,/home/docky/apps/exp/images/80Bi.jpeg,/home/docky/apps/exp/images/83B.jpeg,0,12,12,12,0,4,4,4,1599.1537650880055,None,1599.1537650880055,None,1,4.2924401560158,1599.1537650880055,None,1603.479941839003,None,1603.479941839003,None,1605.9828468149935,None,1605.9828468149935,None,1.217404858005466,1607.7863024430117,None,1607.7863024430117,None,6,1,1.0850608040054794,1608.9900299719884,None,1608.9900299719884,None,1608.9900299719884,None,1610.0914666419849,None,1,0.4350346889987122,1610.0914666419849,None,154,1610.5430208169855,None,135,B,1,2021_May_31_1053,GazeFlow,2020.1.2,59.861661615330696,
13,Block808.xls,B,8,6,13,13,None,congruent,Left,Left,Right,38,39,1,blue,2,6,/home/docky/apps/exp/images/38Bi.jpeg,/home/docky/apps/exp/images/39B.jpeg,0,12,12,12,0,5,5,5,1611.544455168012,None,1611.544455168012,None,1,4.242427085991949,1611.544455168012,None,1615.8203175629897,None,1615.8203175629897,None,1618.325151500001,None,1618.325151500001,None,1.7685671979852486,1620.122039423004,None,1620.122039423004,None,5,0,2.855387225979939,1621.8819562179851,None,1621.8819562179851,None,1621.8819562179851,None,1624.7540094240103,None,1,0.5015382730052806,1624.7540094240103,None,152,1625.2715017370065,None,135,B,1,2021_May_31_1053,GazeFlow,2020.1.2,59.861661615330696,
13,Block808.xls,B,8,7,8,8,None,congruent,Left,Left,Right,65,66,1,blue,2,6,/home/docky/apps/exp/images/35Y.jpeg,/home/docky/apps/exp/images/66Bi.jpeg,0,12,12,12,0,6,6,6,1626.2736328500032,None,1626.2736328500032,None,1,4.258309570985148,1626.2736328500032,None,1630.5658999799925,None,1630.5658999799925,None,1633.0690908939869,None,1633.0690908939869,None,2.035267630009912,1634.872433610988,None,1634.872433610988,None,6,1,1.068423126009293,1636.894137027004,None,1636.894137027004,None,1636.894137027004,None,1637.9793024469982,None,1,0.38396523299161345,1637.9793024469982,None,154,1638.379878879001,None,135,B,1,2021_May_31_1053,GazeFlow,2020.1.2,59.861661615330696,
13,Block808.xls,B,8,8,31,31,None,congruent,Right,Right,Left,66,65,1,blue,2,5,/home/docky/apps/exp/images/66B.jpeg,/home/docky/apps/exp/images/35Yi.jpeg,0,12,12,12,0,7,7,7,1639.3820665199892,None,1639.3820665199892,None,1,3.9417921179847326,1639.3820665199892,None,1643.3573007810046,None,1643.3573007810046,None,1645.8602105829923,None,1645.8602105829923,None,1.1672680960036814,1647.6639170999988,None,1647.6639170999988,None,5,1,0.9348647379956674,1648.8176207639917,None,1648.8176207639917,None,1648.8176207639917,None,1649.7687621510122,None,1,0.4846729690034408,1649.7687621510122,None,156,1650.2698001539975,None,135,B,1,2021_May_31_1053,GazeFlow,2020.1.2,59.861661615330696,
13,Block808.xls,B,,,,,,,,,,,,,,,,,,0,12,12,12,,,,,,,,,,,,,,,,,,,,,,,,,,,,,,,,,,,,,,,,,,,,135,B,1,2021_May_31_1053,GazeFlow,2020.1.2,59.861661615330696,
14,Block815.xls,B,15,1,65,65,None,congruent,Left,Left,Right,69,76,7,yellow,2,6,/home/docky/apps/exp/images/69Yi.jpeg,/home/docky/apps/exp/images/76Y.jpeg,0,13,13,13,0,0,0,0,1669.8929857570038,None,1669.8929857570038,None,1,4.3170015109935775,1669.8929857570038,None,1674.239953323995,None,1674.239953323995,None,1676.7555231069855,None,1676.7555231069855,None,2.385773440997582,1678.5572766900004,None,1678.5572766900004,None,6,1,1.551800801011268,1680.930519660993,None,1680.930519660993,None,1680.930519660993,None,1682.4989881019865,None,1,0.5183445440197829,1682.4989881019865,None,158,1683.0336027700105,None,135,B,1,2021_May_31_1053,GazeFlow,2020.1.2,59.861661615330696,
14,Block815.xls,B,15,2,102,6,None,incongruent,Right,Left,Right,80,83,3,blue,2,6,/home/docky/apps/exp/images/80B.jpeg,/home/docky/apps/exp/images/83Bi.jpeg,0,13,13,13,0,1,1,1,1684.0356786870107,None,1684.0356786870107,None,1,3.774430249002762,1684.0356786870107,None,1687.8420945009857,None,1687.8420945009857,None,1690.3470173729875,None,1690.3470173729875,None,1.7181433849909808,1692.1444028390106,None,1692.1444028390106,None,6,1,0.9855422250111587,1693.8550742139923,None,1693.8550742139923,None,1693.8550742139923,None,1694.8567894590087,None,1,0.45041828899411485,1694.8567894590087,None,160,1695.323853267997,None,135,B,1,2021_May_31_1053,GazeFlow,2020.1.2,59.861661615330696,
14,Block815.xls,B,15,3,33,33,None,congruent,Right,Right,Left,66,65,1,blue,2,5,/home/docky/apps/exp/images/66Bi.jpeg,/home/docky/apps/exp/images/35Y.jpeg,0,13,13,13,0,2,2,2,1696.325788209011,None,1696.325788209011,None,1,3.7748082879988942,1696.325788209011,None,1700.134178428998,None,1700.134178428998,None,1702.6372863609868,None,1702.6372863609868,None,1.2507786299975123,1704.4406570919964,None,1704.4406570919964,None,5,1,1.219120064022718,1705.6779517589894,None,1705.6779517589894,None,1705.6779517589894,None,1706.913444559992,None,1,0.5007586760038976,1706.913444559992,None,162,1707.430743909994,None,135,B,1,2021_May_31_1053,GazeFlow,2020.1.2,59.861661615330696,
14,Block815.xls,B,15,4,72,72,None,congruent,Left,Left,Right,79,82,3,yellow,2,6,/home/docky/apps/exp/images/79Yi.jpeg,/home/docky/apps/exp/images/80Y.jpeg,0,13,13,13,0,3,3,3,1708.4326992800052,None,1708.4326992800052,None,1,4.042450192006072,1708.4326992800052,None,1712.5084558179951,None,1712.5084558179951,None,1715.0171569040103,None,1715.0171569040103,None,1.3173449650057591,1716.816787232994,None,1716.816787232994,None,6,1,1.1856406400038395,1718.1188598810113,None,1718.1188598810113,None,1718.1188598810113,None,1719.3209406509995,None,1,0.46713917099987157,1719.3209406509995,None,164,1719.8050367280084,None,135,B,1,2021_May_31_1053,GazeFlow,2020.1.2,59.861661615330696,
14,Block815.xls,B,15,5,100,4,None,incongruent,Right,Left,Right,73,76,3,blue,2,6,/home/docky/apps/exp/images/73B.jpeg,/home/docky/apps/exp/images/76Bi.jpeg,0,13,13,13,0,4,4,4,1720.8067731730116,None,1720.8067731730116,None,1,4.493364441994345,1720.8067731730116,None,1725.3331350549997,None,1725.3331350549997,None,1727.8362614400103,None,1727.8362614400103,None,1.4340534659859259,1729.6393508850015,None,1729.6393508850015,None,5,0,1.0360145989980083,1731.0603690280113,None,1731.0603690280113,None,1731.0603690280113,None,1732.1124262420053,None,1,0.46719501400366426,1732.1124262420053,None,162,1732.5959567909886,None,135,B,1,2021_May_31_1053,GazeFlow,2020.1.2,59.861661615330696,
14,Block815.xls,B,15,6,45,45,None,congruent,Right,Right,Left,39,38,1,blue,2,5,/home/docky/apps/exp/images/39B.jpeg,/home/docky/apps/exp/images/38Bi.jpeg,0,13,13,13,0,5,5,5,1733.5982836309995,None,1733.5982836309995,None,1,4.025105846987572,1733.5982836309995,None,1737.65718496099,None,1737.65718496099,None,1740.160139657004,None,1740.160139657004,None,1.3008678219921421,1741.9634346409875,None,1741.9634346409875,None,5,1,0.9686311740078963,1743.2508900399844,None,1743.2508900399844,None,1743.2508900399844,None,1744.2359449809883,None,1,0.5012834910012316,1744.2359449809883,None,164,1744.7536429580068,None,135,B,1,2021_May_31_1053,GazeFlow,2020.1.2,59.861661615330696,
14,Block815.xls,B,15,7,98,2,None,incongruent,Right,Left,Right,35,38,3,blue,2,6,/home/docky/apps/exp/images/35Bi.jpeg,/home/docky/apps/exp/images/38B.jpeg,0,13,13,13,0,6,6,6,1745.755160367,None,1745.755160367,None,1,4.359120559995063,1745.755160367,None,1750.14798169001,None,1750.14798169001,None,1752.6530291099916,None,1752.6530291099916,None,1.617974791006418,1754.4551026700065,None,1754.4551026700065,None,6,1,1.0518273150082678,1756.0591426439933,None,1756.0591426439933,None,1756.0591426439933,None,1757.1280257489998,None,1,0.4001436379912775,1757.1280257489998,None,166,1757.544769309985,None,135,B,1,2021_May_31_1053,GazeFlow,2020.1.2,59.861661615330696,
14,Block815.xls,B,15,8,59,59,None,congruent,Left,Left,Right,38,39,1,yellow,2,6,/home/docky/apps/exp/images/38Yi.jpeg,/home/docky/apps/exp/images/39Y.jpeg,0,13,13,13,0,7,7,7,1758.546695838013,None,1758.546695838013,None,1,4.4593243039853405,1758.546695838013,None,1763.0398966619978,None,1763.0398966619978,None,1765.5448271269852,None,1765.5448271269852,None,1.7349318380001932,1767.3478691329947,None,1767.3478691329947,None,6,1,1.0354294159915298,1769.0677795459924,None,1769.0677795459924,None,1769.0677795459924,None,1770.1196535550116,None,1,0.4338475909898989,1770.1196535550116,None,168,1770.570009463001,None,135,B,1,2021_May_31_1053,GazeFlow,2020.1.2,59.861661615330696,
14,Block815.xls,B,,,,,,,,,,,,,,,,,,0,13,13,13,,,,,,,,,,,,,,,,,,,,,,,,,,,,,,,,,,,,,,,,,,,,135,B,1,2021_May_31_1053,GazeFlow,2020.1.2,59.861661615330696,
15,Block807.xls,B,7,1,71,71,None,congruent,Left,Left,Right,79,82,3,yellow,2,6,/home/docky/apps/exp/images/79Y.jpeg,/home/docky/apps/exp/images/80Yi.jpeg,0,14,14,14,0,0,0,0,1794.9022234489967,None,1794.9022234489967,None,1,4.447476604022086,1794.9022234489967,None,1799.3773897330102,None,1799.3773897330102,None,1801.8998205940006,None,1801.8998205940006,None,1.7008699729922228,1803.702024987986,None,1803.702024987986,None,6,1,1.0185062070086133,1805.3883914629987,None,1805.3883914629987,None,1805.3883914629987,None,1806.4234024180041,None,1,0.450966189004248,1806.4234024180041,None,170,1806.8906470660004,None,135,B,1,2021_May_31_1053,GazeFlow,2020.1.2,59.861661615330696,
15,Block807.xls,B,7,2,44,44,None,congruent,Right,Right,Left,83,80,3,blue,2,5,/home/docky/apps/exp/images/83Bi.jpeg,/home/docky/apps/exp/images/80B.jpeg,0,14,14,14,0,1,1,1,1807.8924849320028,None,1807.8924849320028,None,1,3.9919567460019607,1807.8924849320028,None,1811.918121552997,None,1811.918121552997,None,1814.4213105170056,None,1814.4213105170056,None,1.1838191100105178,1816.2189940820099,None,1816.2189940820099,None,5,1,1.0012903710012324,1817.394842328009,None,1817.394842328009,None,1817.394842328009,None,1818.4126731799915,None,1,0.45186898397514597,1818.4126731799915,None,172,1818.8809000969923,None,135,B,1,2021_May_31_1053,GazeFlow,2020.1.2,59.861661615330696,
15,Block807.xls,B,7,3,48,48,None,congruent,Right,Right,Left,39,38,1,blue,2,5,/home/docky/apps/exp/images/39Bi.jpeg,/home/docky/apps/exp/images/38B.jpeg,0,14,14,14,0,2,2,2,1819.8824595230108,None,1819.8824595230108,None,1,4.192759284982458,1819.8824595230108,None,1824.1086338429886,None,1824.1086338429886,None,1826.613927525992,None,1826.613927525992,None,1.1337997090013232,1828.4153976470116,None,1828.4153976470116,None,5,1,1.0012994009885006,1829.5352300399973,None,1829.5352300399973,None,1829.5352300399973,None,1830.5531001680065,None,1,0.4684666449902579,1830.5531001680065,None,174,1831.0376201469917,None,135,B,1,2021_May_31_1053,GazeFlow,2020.1.2,59.861661615330696,
15,Block807.xls,B,7,4,113,17,None,incongruent,Right,Left,Right,72,77,5,yellow,2,6,/home/docky/apps/exp/images/72Yi.jpeg,/home/docky/apps/exp/images/77Y.jpeg,0,14,14,14,0,3,3,3,1832.039348080987,None,1832.039348080987,None,1,4.32635964898509,1832.039348080987,None,1836.3972200709977,None,1836.3972200709977,None,1838.9016391559853,None,1838.9016391559853,None,1.7684731890039984,1840.7072046939866,None,1840.7072046939866,None,6,1,1.1853850390180014,1842.4603920030058,None,1842.4603920030058,None,1842.4603920030058,None,1843.6618630879966,None,1,0.40106051598559134,1843.6618630879966,None,176,1844.0796191080008,None,135,B,1,2021_May_31_1053,GazeFlow,2020.1.2,59.861661615330696,
15,Block807.xls,B,7,5,69,69,None,congruent,Left,Left,Right,72,77,5,yellow,2,6,/home/docky/apps/exp/images/72Y.jpeg,/home/docky/apps/exp/images/77Yi.jpeg,0,14,14,14,0,4,4,4,1845.0813372409903,None,1845.0813372409903,None,1,3.874821820994839,1845.0813372409903,None,1848.9902377979888,None,1848.9902377979888,None,1851.493374254991,None,1851.493374254991,None,1.3341003750101663,1853.2953848929901,None,1853.2953848929901,None,6,1,1.1020786419976503,1854.6173769639863,None,1854.6173769639863,None,1854.6173769639863,None,1855.735958565987,None,1,0.3680001400061883,1855.735958565987,None,178,1856.1199970789894,None,135,B,1,2021_May_31_1053,GazeFlow,2020.1.2,59.861661615330696,
15,Block807.xls,B,7,6,39,39,None,congruent,Right,Right,Left,79,76,3,blue,2,5,/home/docky/apps/exp/images/79B.jpeg,/home/docky/apps/exp/images/76Bi.jpeg,0,14,14,14,0,5,5,5,1857.1214043140062,None,1857.1214043140062,None,1,3.992234870005632,1857.1214043140062,None,1861.1470406379958,None,1861.1470406379958,None,1863.6500904390123,None,1863.6500904390123,None,1.6348396700050216,1865.4530769590056,None,1865.4530769590056,None,5,1,0.96804157999577,1867.0747551259992,None,1867.0747551259992,None,1867.0747551259992,None,1868.0594000779965,None,1,0.45118038199143484,1868.0594000779965,None,180,1868.5270249609894,None,135,B,1,2021_May_31_1053,GazeFlow,2020.1.2,59.861661615330696,
15,Block807.xls,B,7,7,50,50,None,congruent,Left,Left,Right,33,35,2,yellow,2,6,/home/docky/apps/exp/images/33Y.jpeg,/home/docky/apps/exp/images/35Yi.jpeg,0,14,14,14,0,6,6,6,1869.5291781380074,None,1869.5291781380074,None,1,4.442464799009031,1869.5291781380074,None,1874.0054291659908,None,1874.0054291659908,None,1876.5103092080099,None,1876.5103092080099,None,1.2003802100080065,1878.313745405001,None,1878.313745405001,None,6,1,1.018638060981175,1879.4988557450124,None,1879.4988557450124,None,1879.4988557450124,None,1880.5337947419903,None,1,0.38529081898741424,1880.5337947419903,None,182,1880.9348916989984,None,135,B,1,2021_May_31_1053,GazeFlow,2020.1.2,59.861661615330696,
15,Block807.xls,B,7,8,19,19,None,congruent,Left,Left,Right,76,79,3,blue,2,6,/home/docky/apps/exp/images/76B.jpeg,/home/docky/apps/exp/images/79Bi.jpeg,0,14,14,14,0,7,7,7,1881.936193595,None,1881.936193595,None,1,3.7414984809875023,1881.936193595,None,1885.711421857006,None,1885.711421857006,None,1888.2162405319978,None,1888.2162405319978,None,1.4176890499948058,1890.0184114869917,None,1890.0184114869917,None,6,1,1.0189163819886744,1891.4223432159924,None,1891.4223432159924,None,1891.4223432159924,None,1892.4572694789967,None,1,0.40128717001061887,1892.4572694789967,None,184,1892.874786995002,None,135,B,1,2021_May_31_1053,GazeFlow,2020.1.2,59.861661615330696,
15,Block807.xls,B,,,,,,,,,,,,,,,,,,0,14,14,14,,,,,,,,,,,,,,,,,,,,,,,,,,,,,,,,,,,,,,,,,,,,135,B,1,2021_May_31_1053,GazeFlow,2020.1.2,59.861661615330696,
