Nblock,condsFile,grouping,Block,TrialBlock,N,trialN,trialCond,gazeCon,gazedirR,corrBinR,corrBinP,valLBY,valRBY,diff,colorCube,feedbacktext,corrAns,imageL,imageR,SelBlocks.thisRepN,SelBlocks.thisTrialN,SelBlocks.thisN,SelBlocks.thisIndex,Trials.thisRepN,Trials.thisTrialN,Trials.thisN,Trials.thisIndex,waitCube.started,waitCube.stopped,text_3.started,text_3.stopped,StartKeyPress.keys,StartKeyPress.rt,StartKeyPress.started,StartKeyPress.stopped,StimL.started,StimL.stopped,StimR.started,StimR.stopped,imageStim2L.started,imageStim2L.stopped,imageStim2R.started,imageStim2R.stopped,RTkeyRelease,imageStim3L.started,imageStim3L.stopped,imageStim3R.started,imageStim3R.stopped,dropResp.keys,dropResp.corr,dropResp.rt,dropResp.started,dropResp.stopped,imageStim5L.started,imageStim5L.stopped,imageStim5R.started,imageStim5R.stopped,text_2.started,text_2.stopped,ReturnSpace.keys,ReturnSpace.rt,ReturnSpace.started,ReturnSpace.stopped,totalpoints,textFeedback.started,textFeedback.stopped,participant,group,session,date,expName,psychopyVersion,frameRate,
1,Block502.xls,A,2,1,93,33,22,incongruent,Left,Right,Left,38,35,3,blue,2,5,/home/docky/apps/exp/images/38B.jpeg,/home/docky/apps/exp/images/35Bi.jpeg,0,0,0,0,0,0,0,0,65.6835833399964,None,65.6835833399964,None,1,10.19173686398426,65.6835833399964,None,75.91124137397856,None,75.91124137397856,None,78.42847054699087,None,78.42847054699087,None,1.4671402480162214,80.22750094198273,None,80.22750094198273,None,5,1,1.1021665819862392,81.67777748097433,None,81.67777748097433,None,81.67777748097433,None,82.79642006597714,None,1,0.767662371014012,82.79642006597714,None,2,83.58088966697687,None,136,A,1,2021_May_31_1329,GazeFlow,2020.1.2,59.87258801923946,
1,Block502.xls,A,2,2,42,42,12,congruent,Right,Right,Left,83,80,3,blue,2,5,/home/docky/apps/exp/images/83Bi.jpeg,/home/docky/apps/exp/images/80B.jpeg,0,0,0,0,0,1,1,1,84.58314983197488,None,84.58314983197488,None,1,5.979338534991257,84.58314983197488,None,90.59641710398137,None,90.59641710398137,None,93.1002457649738,None,93.1002457649738,None,1.6344381340022665,94.90400021499954,None,94.90400021499954,None,5,1,1.0517976419941988,96.52325427098549,None,96.52325427098549,None,96.52325427098549,None,97.59180524598924,None,1,0.7681333219807129,97.59180524598924,None,4,98.37654469397967,None,136,A,1,2021_May_31_1329,GazeFlow,2020.1.2,59.87258801923946,
1,Block502.xls,A,2,3,9,9,11,congruent,Left,Left,Right,38,39,1,blue,2,6,/home/docky/apps/exp/images/38Bi.jpeg,/home/docky/apps/exp/images/39B.jpeg,0,0,0,0,0,2,2,2,99.37876806798158,None,99.37876806798158,None,1,5.227374690992292,99.37876806798158,None,104.63959614298074,None,104.63959614298074,None,107.14477224898292,None,107.14477224898292,None,2.286092643014854,108.94800159899751,None,108.94800159899751,None,5,0,1.1188348199939355,111.21880035998765,None,111.21880035998765,None,111.21880035998765,None,112.35387954799808,None,1,0.7515705550031271,112.35387954799808,None,2,113.12205467899912,None,136,A,1,2021_May_31_1329,GazeFlow,2020.1.2,59.87258801923946,
1,Block502.xls,A,2,4,23,23,11,congruent,Left,Left,Right,38,39,1,yellow,2,6,/home/docky/apps/exp/images/38Yi.jpeg,/home/docky/apps/exp/images/39Y.jpeg,0,0,0,0,0,3,3,3,114.1245130719908,None,114.1245130719908,None,1,5.695282133005094,114.1245130719908,None,119.85307759797433,None,119.85307759797433,None,122.36031656397972,None,122.36031656397972,None,1.9018149400071707,124.15937321298406,None,124.15937321298406,None,5,0,1.05151469600969,126.04836777699529,None,126.04836777699529,None,126.04836777699529,None,127.11608989498927,None,1,0.75172504800139,127.11608989498927,None,0,127.88439005898545,None,136,A,1,2021_May_31_1329,GazeFlow,2020.1.2,59.87258801923946,
1,Block502.xls,A,2,5,57,57,12,congruent,Right,Right,Left,77,72,5,yellow,2,5,/home/docky/apps/exp/images/77Y.jpeg,/home/docky/apps/exp/images/72Yi.jpeg,0,0,0,0,0,4,4,4,128.88666188897332,None,128.88666188897332,None,1,7.615486920985859,128.88666188897332,None,136.5362439789751,None,136.5362439789751,None,139.04065065199393,None,139.04065065199393,None,1.768377219006652,140.84231987499516,None,140.84231987499516,None,5,1,1.0355595470173284,142.5974958599836,None,142.5974958599836,None,142.5974958599836,None,143.64926966797793,None,1,1.5025636109930929,143.64926966797793,None,2,145.16864367199014,None,136,A,1,2021_May_31_1329,GazeFlow,2020.1.2,59.87258801923946,
1,Block502.xls,A,2,6,118,58,22,incongruent,Left,Right,Left,80,79,1,yellow,2,5,/home/docky/apps/exp/images/80Yi.jpeg,/home/docky/apps/exp/images/79Y.jpeg,0,0,0,0,0,5,5,5,146.17094997499953,None,146.17094997499953,None,1,7.24777892199927,146.17094997499953,None,153.45255262497813,None,153.45255262497813,None,155.95963763797772,None,155.95963763797772,None,1.4174178940011188,157.7562399179733,None,157.7562399179733,None,6,0,1.2193558779836167,159.16338146297494,None,159.16338146297494,None,159.16338146297494,None,160.3983092159906,None,1,0.5681936370092444,160.3983092159906,None,0,160.98285476697492,None,136,A,1,2021_May_31_1329,GazeFlow,2020.1.2,59.87258801923946,
1,Block502.xls,A,2,7,101,41,22,incongruent,Left,Right,Left,83,80,3,blue,2,5,/home/docky/apps/exp/images/83Bi.jpeg,/home/docky/apps/exp/images/80B.jpeg,0,0,0,0,0,6,6,6,161.98506705099135,None,161.98506705099135,None,1,7.749914920976153,161.98506705099135,None,169.76809043998946,None,169.76809043998946,None,172.27119818297797,None,172.27119818297797,None,1.651144958974328,174.07488560097408,None,174.07488560097408,None,5,1,1.236608403007267,175.71277761098463,None,175.71277761098463,None,175.71277761098463,None,176.96494715998415,None,1,0.7511259200109635,176.96494715998415,None,2,177.73268543899758,None,136,A,1,2021_May_31_1329,GazeFlow,2020.1.2,59.87258801923946,
1,Block502.xls,A,2,8,69,9,21,incongruent,Right,Left,Right,73,76,3,blue,2,6,/home/docky/apps/exp/images/73B.jpeg,/home/docky/apps/exp/images/76Bi.jpeg,0,0,0,0,0,7,7,7,178.73519912199117,None,178.73519912199117,None,1,5.879090055997949,178.73519912199117,None,184.64761027498753,None,184.64761027498753,None,187.15038446398103,None,187.15038446398103,None,1.2846002870064694,188.95429329999024,None,188.95429329999024,None,5,0,1.2031241990043782,190.2245778409997,None,190.2245778409997,None,190.2245778409997,None,191.4435522199783,None,1,0.7009172220132314,191.4435522199783,None,0,192.16106487697107,None,136,A,1,2021_May_31_1329,GazeFlow,2020.1.2,59.87258801923946,
1,Block502.xls,A,,,,,,,,,,,,,,,,,,0,0,0,0,,,,,,,,,,,,,,,,,,,,,,,,,,,,,,,,,,,,,,,,,,,,136,A,1,2021_May_31_1329,GazeFlow,2020.1.2,59.87258801923946,
2,Block506.xls,A,6,1,120,60,22,incongruent,Left,Right,Left,80,79,1,yellow,2,5,/home/docky/apps/exp/images/80Yi.jpeg,/home/docky/apps/exp/images/79Y.jpeg,0,1,1,1,0,0,0,0,209.89901573298266,None,209.89901573298266,None,1,5.332189345994266,209.89901573298266,None,215.26156095898477,None,215.26156095898477,None,217.77995839199866,None,217.77995839199866,None,2.3020093530067243,219.577360847994,None,219.577360847994,None,6,0,1.1355754180112854,221.87050528699183,None,221.87050528699183,None,221.87050528699183,None,223.02212559297914,None,1,0.7683929839986376,223.02212559297914,None,-2,223.80698132299585,None,136,A,1,2021_May_31_1329,GazeFlow,2020.1.2,59.87258801923946,
2,Block506.xls,A,6,2,51,51,12,congruent,Right,Right,Left,66,65,1,yellow,2,5,/home/docky/apps/exp/images/66Y.jpeg,/home/docky/apps/exp/images/35Bi.jpeg,0,1,1,1,0,1,1,1,224.80965096197906,None,224.80965096197906,None,1,6.262348087999271,224.80965096197906,None,231.1059426429856,None,231.1059426429856,None,233.6095579979883,None,233.6095579979883,None,1.1672549769864418,235.41478018197813,None,235.41478018197813,None,5,1,1.2023620720137842,236.56649874098366,None,236.56649874098366,None,236.56649874098366,None,237.7852134569839,None,1,0.6177777560078539,237.7852134569839,None,0,238.41941139497794,None,136,A,1,2021_May_31_1329,GazeFlow,2020.1.2,59.87258801923946,
2,Block506.xls,A,6,3,119,59,22,incongruent,Left,Right,Left,80,79,1,yellow,2,5,/home/docky/apps/exp/images/80Y.jpeg,/home/docky/apps/exp/images/79Yi.jpeg,0,1,1,1,0,2,2,2,239.42154968698742,None,239.42154968698742,None,1,5.611620073002996,239.42154968698742,None,245.0675656219828,None,245.0675656219828,None,247.57027828597347,None,247.57027828597347,None,2.2024511079944205,249.37573211698327,None,249.37573211698327,None,5,1,1.2352351710142102,251.56271497698617,None,251.56271497698617,None,251.56271497698617,None,252.8146529729711,None,1,0.6348131709964946,252.8146529729711,None,2,253.46588108799187,None,136,A,1,2021_May_31_1329,GazeFlow,2020.1.2,59.87258801923946,
2,Block506.xls,A,6,4,28,28,11,congruent,Left,Left,Right,72,77,5,yellow,2,6,/home/docky/apps/exp/images/72Y.jpeg,/home/docky/apps/exp/images/77Yi.jpeg,0,1,1,1,0,3,3,3,254.467965274991,None,254.467965274991,None,1,4.84405059699202,254.467965274991,None,259.3488656479749,None,259.3488656479749,None,261.85013382998295,None,261.85013382998295,None,0.8500745790079236,263.64701948099537,None,263.64701948099537,None,6,1,0.985180104005849,264.4881896559964,None,264.4881896559964,None,264.4881896559964,None,265.4898904199945,None,1,0.568816473998595,265.4898904199945,None,4,266.07463961298345,None,136,A,1,2021_May_31_1329,GazeFlow,2020.1.2,59.87258801923946,
2,Block506.xls,A,6,5,85,25,21,incongruent,Right,Left,Right,69,75,6,yellow,2,6,/home/docky/apps/exp/images/69Y.jpeg,/home/docky/apps/exp/images/76Yi.jpeg,0,1,1,1,0,4,4,4,267.07634064598824,None,267.07634064598824,None,1,6.095970328984549,267.07634064598824,None,273.2062338689866,None,273.2062338689866,None,275.7094879379729,None,275.7094879379729,None,1.717979013978038,277.5132983279764,None,277.5132983279764,None,6,1,1.2021247360098641,279.21763484799885,None,279.21763484799885,None,279.21763484799885,None,280.435792142991,None,1,0.5847195359820034,280.435792142991,None,6,281.0371386129991,None,136,A,1,2021_May_31_1329,GazeFlow,2020.1.2,59.87258801923946,
2,Block506.xls,A,6,6,71,11,21,incongruent,Right,Left,Right,76,79,3,blue,2,6,/home/docky/apps/exp/images/76B.jpeg,/home/docky/apps/exp/images/79Bi.jpeg,0,1,1,1,0,5,5,5,282.03933252597926,None,282.03933252597926,None,1,6.546672469994519,282.03933252597926,None,288.61995946697425,None,288.61995946697425,None,291.12255756399827,None,291.12255756399827,None,1.6346335189882666,292.92757869299385,None,292.92757869299385,None,6,1,1.0693719209812116,294.54636647499865,None,294.54636647499865,None,294.54636647499865,None,295.6316592039948,None,1,0.7511943890131079,295.6316592039948,None,8,296.3991159669822,None,136,A,1,2021_May_31_1329,GazeFlow,2020.1.2,59.87258801923946,
2,Block506.xls,A,6,7,56,56,12,congruent,Right,Right,Left,76,69,7,yellow,2,5,/home/docky/apps/exp/images/76Yi.jpeg,/home/docky/apps/exp/images/69Y.jpeg,0,1,1,1,0,6,6,6,297.4017494459986,None,297.4017494459986,None,1,5.7784144960169215,297.4017494459986,None,303.2132026759791,None,303.2132026759791,None,305.7182315719838,None,305.7182315719838,None,1.2170173540071119,307.51984461199027,None,307.51984461199027,None,5,1,1.0348186159972101,308.7230881319847,None,308.7230881319847,None,308.7230881319847,None,309.7744755879976,None,1,1.302746767993085,309.7744755879976,None,10,311.09386396198533,None,136,A,1,2021_May_31_1329,GazeFlow,2020.1.2,59.87258801923946,
2,Block506.xls,A,6,8,33,33,12,congruent,Right,Right,Left,38,35,3,blue,2,5,/home/docky/apps/exp/images/38B.jpeg,/home/docky/apps/exp/images/35Bi.jpeg,0,1,1,1,0,7,7,7,312.09575412099366,None,312.09575412099366,None,1,6.76321936401655,312.09575412099366,None,318.89350201399066,None,318.89350201399066,None,321.39755209797295,None,321.39755209797295,None,0.9665758880146313,323.1997092629899,None,323.1997092629899,None,5,1,1.0513635509996675,324.1522653429711,None,324.1522653429711,None,324.1522653429711,None,325.2204880009813,None,1,0.9184099410194904,325.2204880009813,None,12,326.15541472498444,None,136,A,1,2021_May_31_1329,GazeFlow,2020.1.2,59.87258801923946,
2,Block506.xls,A,,,,,,,,,,,,,,,,,,0,1,1,1,,,,,,,,,,,,,,,,,,,,,,,,,,,,,,,,,,,,,,,,,,,,136,A,1,2021_May_31_1329,GazeFlow,2020.1.2,59.87258801923946,
3,Block505.xls,A,5,1,1,1,11,congruent,Left,Left,Right,16,19,3,blue,2,6,/home/docky/apps/exp/images/16Bi.jpeg,/home/docky/apps/exp/images/19B.jpeg,0,2,2,2,0,0,0,0,346.69528815499507,None,346.69528815499507,None,1,6.466945666004904,346.69528815499507,None,353.19348003697814,None,353.19348003697814,None,355.7128342219803,None,355.7128342219803,None,1.0667220129980706,357.51649526998517,None,357.51649526998517,None,6,1,1.0516324109921698,358.5677973899874,None,358.5677973899874,None,358.5677973899874,None,359.63609675798216,None,1,0.5513069780135993,359.63609675798216,None,14,360.2042674399854,None,136,A,1,2021_May_31_1329,GazeFlow,2020.1.2,59.87258801923946,
3,Block505.xls,A,5,2,10,10,11,congruent,Left,Left,Right,73,76,3,blue,2,6,/home/docky/apps/exp/images/73B.jpeg,/home/docky/apps/exp/images/76Bi.jpeg,0,2,2,2,0,1,1,1,361.2055494619999,None,361.2055494619999,None,1,4.643380100984359,361.2055494619999,None,365.88315356799285,None,365.88315356799285,None,368.38680646798457,None,368.38680646798457,None,0.8333630849956535,370.1884938829753,None,370.1884938829753,None,6,1,1.167510402010521,371.0088185169734,None,371.0088185169734,None,371.0088185169734,None,372.19313425099244,None,1,0.7520601410069503,372.19313425099244,None,16,372.96176687499974,None,136,A,1,2021_May_31_1329,GazeFlow,2020.1.2,59.87258801923946,
3,Block505.xls,A,5,3,95,35,22,incongruent,Left,Right,Left,66,65,1,blue,2,5,/home/docky/apps/exp/images/66B.jpeg,/home/docky/apps/exp/images/35Yi.jpeg,0,2,2,2,0,2,2,2,373.96307680598693,None,373.96307680598693,None,1,5.311039623979013,373.96307680598693,None,379.3057110879745,None,379.3057110879745,None,381.81079470799887,None,381.81079470799887,None,1.6011833889933769,383.609164864989,None,383.609164864989,None,5,1,25.24836727400543,385.20203029797995,None,385.20203029797995,None,385.20203029797995,None,410.4665985889733,None,1,4.876820636010962,410.4665985889733,None,18,415.3595973579795,None,136,A,1,2021_May_31_1329,GazeFlow,2020.1.2,59.87258801923946,
3,Block505.xls,A,5,4,46,46,12,congruent,Right,Right,Left,35,33,2,yellow,2,5,/home/docky/apps/exp/images/35Yi.jpeg,/home/docky/apps/exp/images/33Y.jpeg,0,2,2,2,0,3,3,3,416.3614495439979,None,416.3614495439979,None,1,6.278993342013564,416.3614495439979,None,422.67408008899656,None,422.67408008899656,None,425.17730898899026,None,425.17730898899026,None,1.2339711239910685,426.980299362971,None,426.980299362971,None,5,1,3.1392111600143835,428.20098295697244,None,428.20098295697244,None,428.20098295697244,None,431.3562443519768,None,1,1.8711825690115802,431.3562443519768,None,20,433.2438337109925,None,136,A,1,2021_May_31_1329,GazeFlow,2020.1.2,59.87258801923946,
3,Block505.xls,A,5,5,78,18,21,incongruent,Right,Left,Right,65,66,1,yellow,2,6,/home/docky/apps/exp/images/35Bi.jpeg,/home/docky/apps/exp/images/66Y.jpeg,0,2,2,2,0,4,4,4,434.24575587399886,None,434.24575587399886,None,1,4.8763387280050665,434.24575587399886,None,439.16166493998026,None,439.16166493998026,None,441.6607439959771,None,441.6607439959771,None,2.302264593017753,443.4638690389984,None,443.4638690389984,None,5,0,1.334684052009834,445.7521337719809,None,445.7521337719809,None,445.7521337719809,None,447.10352878598496,None,1,0.8851275310153142,447.10352878598496,None,18,448.00545854197117,None,136,A,1,2021_May_31_1329,GazeFlow,2020.1.2,59.87258801923946,
3,Block505.xls,A,5,6,43,43,12,congruent,Right,Right,Left,83,80,3,blue,2,5,/home/docky/apps/exp/images/83B.jpeg,/home/docky/apps/exp/images/80Bi.jpeg,0,2,2,2,0,5,5,5,449.007594566996,None,449.007594566996,None,1,6.462629586982075,449.007594566996,None,455.5037143259833,None,455.5037143259833,None,458.0086172739975,None,458.0086172739975,None,0.8663885039859451,459.810798365972,None,459.810798365972,None,5,1,4.559306448994903,460.6633862659801,None,460.6633862659801,None,460.6633862659801,None,465.23877050797455,None,1,0.9022276290052105,465.23877050797455,None,20,466.1571858499956,None,136,A,1,2021_May_31_1329,GazeFlow,2020.1.2,59.87258801923946,
3,Block505.xls,A,5,7,44,44,12,congruent,Right,Right,Left,39,38,1,blue,2,5,/home/docky/apps/exp/images/39Bi.jpeg,/home/docky/apps/exp/images/38B.jpeg,0,2,2,2,0,6,6,6,467.15920039397315,None,467.15920039397315,None,1,8.750816906016553,467.15920039397315,None,475.9436492289824,None,475.9436492289824,None,478.44838740397245,None,478.44838740397245,None,1.1003379689936992,480.2515117189905,None,480.2515117189905,None,5,1,1.2524268169945572,481.33666607399937,None,481.33666607399937,None,481.33666607399937,None,482.60572009099997,None,1,0.901660809002351,482.60572009099997,None,22,483.52376620998257,None,136,A,1,2021_May_31_1329,GazeFlow,2020.1.2,59.87258801923946,
3,Block505.xls,A,5,8,116,56,22,incongruent,Left,Right,Left,77,72,5,yellow,2,5,/home/docky/apps/exp/images/77Y.jpeg,/home/docky/apps/exp/images/72Y.jpeg,0,2,2,2,0,7,7,7,484.5259791799763,None,484.5259791799763,None,1,4.943616299977293,484.5259791799763,None,489.50290171799134,None,489.50290171799134,None,492.0079175619758,None,492.0079175619758,None,0.9666292880137917,493.8096971929772,None,493.8096971929772,None,6,0,1.3019106920110062,494.76252622299944,None,494.76252622299944,None,494.76252622299944,None,496.08223144098883,None,1,0.8341896859928966,496.08223144098883,None,20,496.9329331549816,None,136,A,1,2021_May_31_1329,GazeFlow,2020.1.2,59.87258801923946,
3,Block505.xls,A,,,,,,,,,,,,,,,,,,0,2,2,2,,,,,,,,,,,,,,,,,,,,,,,,,,,,,,,,,,,,,,,,,,,,136,A,1,2021_May_31_1329,GazeFlow,2020.1.2,59.87258801923946,
4,Block509.xls,A,9,1,34,34,12,congruent,Right,Right,Left,38,35,3,blue,2,5,/home/docky/apps/exp/images/38Bi.jpeg,/home/docky/apps/exp/images/35B.jpeg,0,3,3,3,0,0,0,0,519.7290772669949,None,519.7290772669949,None,1,6.905205840972485,519.7290772669949,None,526.6538577389729,None,526.6538577389729,None,529.1796701199783,None,529.1796701199783,None,0.8660516689997166,530.9819885229808,None,530.9819885229808,None,5,1,1.2682485849945806,531.8344846719992,None,531.8344846719992,None,531.8344846719992,None,533.1197054969962,None,1,1.2857943339913618,533.1197054969962,None,22,534.4220333569974,None,136,A,1,2021_May_31_1329,GazeFlow,2020.1.2,59.87258801923946,
4,Block509.xls,A,9,2,7,7,11,congruent,Left,Left,Right,65,66,1,blue,2,6,/home/docky/apps/exp/images/35Yi.jpeg,/home/docky/apps/exp/images/66B.jpeg,0,3,3,3,0,1,1,1,535.4239648139919,None,535.4239648139919,None,1,4.89424796399544,535.4239648139919,None,540.3512480449863,None,540.3512480449863,None,542.8564438029716,None,542.8564438029716,None,1.1005864700127859,544.6528328389977,None,544.6528328389977,None,5,0,6.0286486049881205,545.7447822449903,None,545.7447822449903,None,545.7447822449903,None,551.7898105949862,None,1,1.2525569639983587,551.7898105949862,None,20,553.0587936889788,None,136,A,1,2021_May_31_1329,GazeFlow,2020.1.2,59.87258801923946,
4,Block509.xls,A,9,3,74,14,21,incongruent,Right,Left,Right,80,83,3,blue,2,6,/home/docky/apps/exp/images/80B.jpeg,/home/docky/apps/exp/images/83Bi.jpeg,0,3,3,3,0,2,2,2,554.0607661669783,None,554.0607661669783,None,1,6.697050444025081,554.0607661669783,None,560.7912841339712,None,560.7912841339712,None,563.2942847299855,None,563.2942847299855,None,1.3171605130191892,565.097882713977,None,565.097882713977,None,6,1,1.1691910339868627,566.4016446099849,None,566.4016446099849,None,566.4016446099849,None,567.5870763199928,None,1,1.1353168780042324,567.5870763199928,None,22,568.7391440599749,None,136,A,1,2021_May_31_1329,GazeFlow,2020.1.2,59.87258801923946,
4,Block509.xls,A,9,4,19,19,11,congruent,Left,Left,Right,65,66,1,yellow,2,6,/home/docky/apps/exp/images/35Bi.jpeg,/home/docky/apps/exp/images/66Y.jpeg,0,3,3,3,0,3,3,3,569.7413659939775,None,569.7413659939775,None,1,5.51138811398414,569.7413659939775,None,575.2857729549869,None,575.2857729549869,None,577.7895711569872,None,577.7895711569872,None,1.6178008489951026,579.586523046979,None,579.586523046979,None,5,0,1.2357461949868593,581.1972488989995,None,581.1972488989995,None,581.1972488989995,None,582.4493604649906,None,1,1.0013437680026982,582.4493604649906,None,20,583.4673034889856,None,136,A,1,2021_May_31_1329,GazeFlow,2020.1.2,59.87258801923946,
4,Block509.xls,A,9,5,60,60,12,congruent,Right,Right,Left,80,79,1,yellow,2,5,/home/docky/apps/exp/images/80Yi.jpeg,/home/docky/apps/exp/images/79Y.jpeg,0,3,3,3,0,4,4,4,584.4696138589934,None,584.4696138589934,None,1,6.680358890997013,584.4696138589934,None,591.1836677299871,None,591.1836677299871,None,593.6872200469952,None,593.6872200469952,None,1.5178343809966464,595.4902946959774,None,595.4902946959774,None,5,1,1.35336481500417,596.9943267469935,None,596.9943267469935,None,596.9943267469935,None,598.3636779089866,None,1,0.7677395619975869,598.3636779089866,None,22,599.148256415996,None,136,A,1,2021_May_31_1329,GazeFlow,2020.1.2,59.87258801923946,
4,Block509.xls,A,9,6,83,23,21,incongruent,Right,Left,Right,38,39,1,yellow,2,6,/home/docky/apps/exp/images/38Yi.jpeg,/home/docky/apps/exp/images/39Y.jpeg,0,3,3,3,0,5,5,5,600.1505603759724,None,600.1505603759724,None,1,5.744511469005374,600.1505603759724,None,605.9289789379982,None,605.9289789379982,None,608.4322893559875,None,608.4322893559875,None,2.1526020339806564,610.2354578409868,None,610.2354578409868,None,5,0,1.0013762440066785,612.3744761279959,None,612.3744761279959,None,612.3744761279959,None,613.3924530369986,None,1,0.5679583720047958,613.3924530369986,None,20,613.9769487819867,None,136,A,1,2021_May_31_1329,GazeFlow,2020.1.2,59.87258801923946,
4,Block509.xls,A,9,7,4,4,11,congruent,Left,Left,Right,35,38,3,blue,2,6,/home/docky/apps/exp/images/35B.jpeg,/home/docky/apps/exp/images/38Bi.jpeg,0,3,3,3,0,6,6,6,614.9792207479768,None,614.9792207479768,None,1,6.329459230008069,614.9792207479768,None,621.3424763039802,None,621.3424763039802,None,623.8471133029961,None,623.8471133029961,None,1.6015691380016506,625.6441231449717,None,625.6441231449717,None,5,0,1.018976686988026,627.2367675669957,None,627.2367675669957,None,627.2367675669957,None,628.2713386339892,None,1,1.1694618159963284,628.2713386339892,None,18,629.4573206269997,None,136,A,1,2021_May_31_1329,GazeFlow,2020.1.2,59.87258801923946,
4,Block509.xls,A,9,8,24,24,11,congruent,Left,Left,Right,38,39,1,yellow,2,6,/home/docky/apps/exp/images/38Y.jpeg,/home/docky/apps/exp/images/39Yi.jpeg,0,3,3,3,0,7,7,7,630.4595094239921,None,630.4595094239921,None,1,6.362868094991427,630.4595094239921,None,636.8559235459834,None,636.8559235459834,None,639.358770745981,None,639.358770745981,None,0.8335508219897747,641.1627313849749,None,641.1627313849749,None,5,0,1.2185306859901175,641.9822975369752,None,641.9822975369752,None,641.9822975369752,None,643.217452428973,None,1,0.7855041590228211,643.217452428973,None,16,644.019526848977,None,136,A,1,2021_May_31_1329,GazeFlow,2020.1.2,59.87258801923946,
4,Block509.xls,A,,,,,,,,,,,,,,,,,,0,3,3,3,,,,,,,,,,,,,,,,,,,,,,,,,,,,,,,,,,,,,,,,,,,,136,A,1,2021_May_31_1329,GazeFlow,2020.1.2,59.87258801923946,
5,Block504.xls,A,4,1,11,11,11,congruent,Left,Left,Right,73,76,3,blue,2,6,/home/docky/apps/exp/images/73Bi.jpeg,/home/docky/apps/exp/images/76B.jpeg,0,4,4,4,0,0,0,0,665.6953482669778,None,665.6953482669778,None,1,7.135516041016672,665.6953482669778,None,672.8551919159945,None,672.8551919159945,None,675.3813117509999,None,675.3813117509999,None,1.7843726749997586,677.1850042189762,None,677.1850042189762,None,5,0,2.3540414219896775,678.9547220179811,None,678.9547220179811,None,678.9547220179811,None,681.3252494279877,None,1,0.9027608400210738,681.3252494279877,None,14,682.2442634209874,None,136,A,1,2021_May_31_1329,GazeFlow,2020.1.2,59.87258801923946,
5,Block504.xls,A,4,2,87,27,21,incongruent,Right,Left,Right,72,77,5,yellow,2,6,/home/docky/apps/exp/images/72Y.jpeg,/home/docky/apps/exp/images/77Yi.jpeg,0,4,4,4,0,1,1,1,683.2460967529914,None,683.2460967529914,None,1,6.563585891999537,683.2460967529914,None,689.8412548539927,None,689.8412548539927,None,692.3459460669837,None,692.3459460669837,None,1.5510173850052524,694.1494858569931,None,694.1494858569931,None,6,1,1.2361851130262949,695.6870593299973,None,695.6870593299973,None,695.6870593299973,None,696.9397141399968,None,1,0.6511005829961505,696.9397141399968,None,16,697.6071246579813,None,136,A,1,2021_May_31_1329,GazeFlow,2020.1.2,59.87258801923946,
5,Block504.xls,A,4,3,48,48,12,congruent,Right,Right,Left,39,38,1,yellow,2,5,/home/docky/apps/exp/images/39Yi.jpeg,/home/docky/apps/exp/images/38Y.jpeg,0,4,4,4,0,2,2,2,698.6091210949817,None,698.6091210949817,None,1,5.8120516809867695,698.6091210949817,None,704.4549388419837,None,704.4549388419837,None,706.9583211489953,None,706.9583211489953,None,2.035604905016953,708.7567465679895,None,708.7567465679895,None,5,1,1.1855224360188004,710.7832652409852,None,710.7832652409852,None,710.7832652409852,None,711.9853788799956,None,1,0.6346439670014661,711.9853788799956,None,18,712.636730719998,None,136,A,1,2021_May_31_1329,GazeFlow,2020.1.2,59.87258801923946,
5,Block504.xls,A,4,4,38,38,12,congruent,Right,Right,Left,79,73,6,blue,2,5,/home/docky/apps/exp/images/79B.jpeg,/home/docky/apps/exp/images/73Bi.jpeg,0,4,4,4,0,3,3,3,713.639054897998,None,713.639054897998,None,1,6.646617630991386,713.639054897998,None,720.319531563,None,720.319531563,None,722.824083902,None,722.824083902,None,0.9666955969878472,724.6211500379723,None,724.6211500379723,None,5,1,1.135100038984092,725.5791223089909,None,725.5791223089909,None,725.5791223089909,None,726.731039789971,None,1,0.7856939890189096,726.731039789971,None,20,727.5324721859943,None,136,A,1,2021_May_31_1329,GazeFlow,2020.1.2,59.87258801923946,
5,Block504.xls,A,4,5,2,2,11,congruent,Left,Left,Right,16,19,3,blue,2,6,/home/docky/apps/exp/images/16B.jpeg,/home/docky/apps/exp/images/19Bi.jpeg,0,4,4,4,0,4,4,4,728.5347494419839,None,728.5347494419839,None,1,5.662018821021775,728.5347494419839,None,734.2300030379847,None,734.2300030379847,None,736.7329546519904,None,736.7329546519904,None,0.7665474530076608,738.536448940984,None,738.536448940984,None,6,1,1.2351927859999705,739.2894570149947,None,739.2894570149947,None,739.2894570149947,None,740.5415248759964,None,1,0.7519823640177492,740.5415248759964,None,22,741.3099395269819,None,136,A,1,2021_May_31_1329,GazeFlow,2020.1.2,59.87258801923946,
5,Block504.xls,A,4,6,73,13,21,incongruent,Right,Left,Right,80,83,3,blue,2,6,/home/docky/apps/exp/images/80Bi.jpeg,/home/docky/apps/exp/images/83B.jpeg,0,4,4,4,0,5,5,5,742.3117019099882,None,742.3117019099882,None,1,5.6114813149906695,742.3117019099882,None,747.9571448979841,None,747.9571448979841,None,750.4619306399836,None,750.4619306399836,None,1.3675894959887955,752.2654912029975,None,752.2654912029975,None,6,1,15.380672334023984,753.617595646996,None,753.617595646996,None,753.617595646996,None,769.0142060599755,None,1,7.849073365010554,769.0142060599755,None,24,776.8797198239772,None,136,A,1,2021_May_31_1329,GazeFlow,2020.1.2,59.87258801923946,
5,Block504.xls,A,4,7,63,3,21,incongruent,Right,Left,Right,35,38,3,blue,2,6,/home/docky/apps/exp/images/35B.jpeg,/home/docky/apps/exp/images/38Bi.jpeg,0,4,4,4,0,6,6,6,777.881834276981,None,777.881834276981,None,1,2.5550757749879267,777.881834276981,None,780.4708348079876,None,780.4708348079876,None,782.9738529249735,None,782.9738529249735,None,2.5873176500026602,784.7720429259934,None,784.7720429259934,None,5,0,1.4688280720147304,787.3675822369987,None,787.3675822369987,None,787.3675822369987,None,788.8529335579951,None,1,0.9356912570074201,788.8529335579951,None,22,789.8051850039919,None,136,A,1,2021_May_31_1329,GazeFlow,2020.1.2,59.87258801923946,
5,Block504.xls,A,4,8,86,26,21,incongruent,Right,Left,Right,72,77,5,yellow,2,6,/home/docky/apps/exp/images/72Yi.jpeg,/home/docky/apps/exp/images/77Y.jpeg,0,4,4,4,0,7,7,7,790.8072399449884,None,790.8072399449884,None,1,8.399732221994782,790.8072399449884,None,799.2412128319847,None,799.2412128319847,None,801.7458868579997,None,801.7458868579997,None,0.8165435019764118,803.5479274939862,None,803.5479274939862,None,6,1,1.620049825985916,804.3504402259714,None,804.3504402259714,None,804.3504402259714,None,805.986929362989,None,1,1.7700683010043576,805.986929362989,None,24,807.7733654139738,None,136,A,1,2021_May_31_1329,GazeFlow,2020.1.2,59.87258801923946,
5,Block504.xls,A,,,,,,,,,,,,,,,,,,0,4,4,4,,,,,,,,,,,,,,,,,,,,,,,,,,,,,,,,,,,,,,,,,,,,136,A,1,2021_May_31_1329,GazeFlow,2020.1.2,59.87258801923946,
6,Block511.xls,A,11,1,15,15,11,congruent,Left,Left,Right,80,83,3,blue,2,6,/home/docky/apps/exp/images/80Bi.jpeg,/home/docky/apps/exp/images/83B.jpeg,0,5,5,5,0,0,0,0,829.0845482549921,None,829.0845482549921,None,1,7.149706996016903,829.0845482549921,None,836.2612662899774,None,836.2612662899774,None,838.7854540529952,None,838.7854540529952,None,0.8492871880007442,840.5823290979897,None,840.5823290979897,None,6,1,1.5533591269922908,841.4232495699835,None,841.4232495699835,None,841.4232495699835,None,842.9930300089763,None,1,0.9516957360028755,842.9930300089763,None,26,843.9610775579931,None,136,A,1,2021_May_31_1329,GazeFlow,2020.1.2,59.87258801923946,
6,Block511.xls,A,11,2,105,45,22,incongruent,Left,Right,Left,39,38,1,blue,2,5,/home/docky/apps/exp/images/39Bi.jpeg,/home/docky/apps/exp/images/38B.jpeg,0,5,5,5,0,1,1,1,844.9631789449777,None,844.9631789449777,None,1,5.595082779997028,844.9631789449777,None,850.5921354359889,None,850.5921354359889,None,853.0971251379815,None,853.0971251379815,None,1.0836517039861064,854.898793194996,None,854.898793194996,None,6,0,1.352756481996039,855.9689776419837,None,855.9689776419837,None,855.9689776419837,None,857.3379053129756,None,1,0.701035714999307,857.3379053129756,None,24,858.0552262179845,None,136,A,1,2021_May_31_1329,GazeFlow,2020.1.2,59.87258801923946,
6,Block511.xls,A,11,3,68,8,21,incongruent,Right,Left,Right,38,39,1,blue,2,6,/home/docky/apps/exp/images/38B.jpeg,/home/docky/apps/exp/images/39Bi.jpeg,0,5,5,5,0,2,2,2,859.0576803579752,None,859.0576803579752,None,1,5.244796751998365,859.0576803579752,None,864.3356947449793,None,864.3356947449793,None,866.8380655969959,None,866.8380655969959,None,0.8329534689837601,868.6371194669919,None,868.6371194669919,None,5,0,1.135386127018137,869.461968100979,None,869.461968100979,None,869.461968100979,None,870.613488056988,None,1,1.0019898650061805,870.613488056988,None,22,871.6322891809978,None,136,A,1,2021_May_31_1329,GazeFlow,2020.1.2,59.87258801923946,
6,Block511.xls,A,11,4,80,20,21,incongruent,Right,Left,Right,62,65,3,yellow,2,6,/home/docky/apps/exp/images/38Bi.jpeg,/home/docky/apps/exp/images/35B.jpeg,0,5,5,5,0,3,3,3,872.6346864199731,None,872.6346864199731,None,1,6.880464795016451,872.6346864199731,None,879.5491162099934,None,879.5491162099934,None,882.0528671919892,None,882.0528671919892,None,1.3005640349874739,883.8559080399864,None,883.8559080399864,None,5,0,1.2850771299854387,885.1428843009926,None,885.1428843009926,None,885.1428843009926,None,886.4455050649995,None,1,0.8846044800011441,886.4455050649995,None,20,887.346693370986,None,136,A,1,2021_May_31_1329,GazeFlow,2020.1.2,59.87258801923946,
6,Block511.xls,A,11,5,5,5,11,congruent,Left,Left,Right,65,66,1,blue,2,6,/home/docky/apps/exp/images/35Yi.jpeg,/home/docky/apps/exp/images/66B.jpeg,0,5,5,5,0,4,4,4,888.3490659579984,None,888.3490659579984,None,1,7.49805246599135,888.3490659579984,None,895.8855263919977,None,895.8855263919977,None,898.3841612069809,None,898.3841612069809,None,1.90234677499393,900.1873094509938,None,900.1873094509938,None,5,0,1.201756396010751,902.076160097,None,902.076160097,None,902.076160097,None,903.2946583999728,None,1,0.851739028992597,903.2946583999728,None,18,904.1631081329833,None,136,A,1,2021_May_31_1329,GazeFlow,2020.1.2,59.87258801923946,
6,Block511.xls,A,11,6,18,18,11,congruent,Left,Left,Right,65,66,1,yellow,2,6,/home/docky/apps/exp/images/35B.jpeg,/home/docky/apps/exp/images/66Yi.jpeg,0,5,5,5,0,5,5,5,905.165483558987,None,905.165483558987,None,1,6.11235673900228,905.165483558987,None,911.3116103069915,None,911.3116103069915,None,913.814688679995,None,913.814688679995,None,1.0669267119956203,915.6137437979924,None,915.6137437979924,None,6,1,1.1182578100124374,916.6716199859802,None,916.6716199859802,None,916.6716199859802,None,917.8062927059946,None,1,0.6862622750049923,917.8062927059946,None,20,918.5082718499762,None,136,A,1,2021_May_31_1329,GazeFlow,2020.1.2,59.87258801923946,
6,Block511.xls,A,11,7,25,25,11,congruent,Left,Left,Right,69,75,6,yellow,2,6,/home/docky/apps/exp/images/69Yi.jpeg,/home/docky/apps/exp/images/76Y.jpeg,0,5,5,5,0,6,6,6,919.5099066469993,None,919.5099066469993,None,1,6.680468523001764,919.5099066469993,None,926.2241973709897,None,926.2241973709897,None,928.7276985609788,None,928.7276985609788,None,0.8997933520004153,930.5310966959805,None,930.5310966959805,None,6,1,3.072185302997241,931.4174880709907,None,931.4174880709907,None,931.4174880709907,None,934.5060635289992,None,1,1.7375344330212101,934.5060635289992,None,22,936.25998324799,None,136,A,1,2021_May_31_1329,GazeFlow,2020.1.2,59.87258801923946,
6,Block511.xls,A,11,8,3,3,11,congruent,Left,Left,Right,35,38,3,blue,2,6,/home/docky/apps/exp/images/35Bi.jpeg,/home/docky/apps/exp/images/38B.jpeg,0,5,5,5,0,7,7,7,937.2620794279792,None,937.2620794279792,None,1,4.9766268270032015,937.2620794279792,None,942.2725799799955,None,942.2725799799955,None,944.7773756759998,None,944.7773756759998,None,1.4681572899862658,946.5750912239891,None,946.5750912239891,None,6,1,2.9055409940192476,948.0335378139862,None,948.0335378139862,None,948.0335378139862,None,950.9555777829955,None,1,1.7707407049892936,950.9555777829955,None,24,952.7422610119975,None,136,A,1,2021_May_31_1329,GazeFlow,2020.1.2,59.87258801923946,
6,Block511.xls,A,,,,,,,,,,,,,,,,,,0,5,5,5,,,,,,,,,,,,,,,,,,,,,,,,,,,,,,,,,,,,,,,,,,,,136,A,1,2021_May_31_1329,GazeFlow,2020.1.2,59.87258801923946,
7,Block508.xls,A,8,1,13,13,11,congruent,Left,Left,Right,76,79,3,blue,2,6,/home/docky/apps/exp/images/76Bi.jpeg,/home/docky/apps/exp/images/79B.jpeg,0,6,6,6,0,0,0,0,981.7844440939953,None,981.7844440939953,None,1,6.833422816998791,981.7844440939953,None,988.6476743379899,None,988.6476743379899,None,991.1750135199982,None,991.1750135199982,None,0.9161430500098504,992.9558006209845,None,992.9558006209845,None,6,1,1.1517712770146318,993.8571716599981,None,993.8571716599981,None,993.8571716599981,None,995.0255892769783,None,1,0.9852332879963797,995.0255892769783,None,26,996.0274587249733,None,136,A,1,2021_May_31_1329,GazeFlow,2020.1.2,59.87258801923946,
7,Block508.xls,A,8,2,21,21,11,congruent,Left,Left,Right,62,65,3,yellow,2,6,/home/docky/apps/exp/images/38B.jpeg,/home/docky/apps/exp/images/35Bi.jpeg,0,6,6,6,0,1,1,1,997.0294399779814,None,997.0294399779814,None,1,5.495618638989981,997.0294399779814,None,1002.5565980939718,None,1002.5565980939718,None,1005.0607759179838,None,1005.0607759179838,None,6.628471926000202,1006.8646740279801,None,1006.8646740279801,None,6,1,2.3200427029805724,1013.4966388209723,None,1013.4966388209723,None,1013.4966388209723,None,1015.8330572459963,None,1,0.9526002350030467,1015.8330572459963,None,28,1016.8021713919879,None,136,A,1,2021_May_31_1329,GazeFlow,2020.1.2,59.87258801923946,
7,Block508.xls,A,8,3,99,39,22,incongruent,Left,Right,Left,79,76,3,blue,2,5,/home/docky/apps/exp/images/79Bi.jpeg,/home/docky/apps/exp/images/76B.jpeg,0,6,6,6,0,2,2,2,1017.8042684819957,None,1017.8042684819957,None,1,7.93294442500337,1017.8042684819957,None,1025.7749544669932,None,1025.7749544669932,None,1028.273886579991,None,1028.273886579991,None,2.6876092450111173,1030.0769562839996,None,1030.0769562839996,None,5,1,1.16997516999254,1032.7657358399883,None,1032.7657358399883,None,1032.7657358399883,None,1033.9521564009774,None,1,0.8850989880156703,1033.9521564009774,None,30,1034.854163401993,None,136,A,1,2021_May_31_1329,GazeFlow,2020.1.2,59.87258801923946,
7,Block508.xls,A,8,4,37,37,12,congruent,Right,Right,Left,66,65,1,blue,2,5,/home/docky/apps/exp/images/66Bi.jpeg,/home/docky/apps/exp/images/35Y.jpeg,0,6,6,6,0,3,3,3,1035.8563871499791,None,1035.8563871499791,None,1,6.613885208993452,1035.8563871499791,None,1042.5033922659932,None,1042.5033922659932,None,1044.991602410999,None,1044.991602410999,None,2.7207681240106467,1046.810615394992,None,1046.810615394992,None,5,1,1.9201352480158675,1049.5341290749784,None,1049.5341290749784,None,1049.5341290749784,None,1051.470006273972,None,1,0.8027878449938726,1051.470006273972,None,32,1052.2887971209711,None,136,A,1,2021_May_31_1329,GazeFlow,2020.1.2,59.87258801923946,
7,Block508.xls,A,8,5,82,22,21,incongruent,Right,Left,Right,38,39,1,yellow,2,6,/home/docky/apps/exp/images/38Y.jpeg,/home/docky/apps/exp/images/39Yi.jpeg,0,6,6,6,0,4,4,4,1053.2908674489881,None,1053.2908674489881,None,1,5.561061500979122,1053.2908674489881,None,1058.884259982995,None,1058.884259982995,None,1061.39087037,None,1061.39087037,None,2.252775948989438,1063.1924518399755,None,1063.1924518399755,None,6,1,1.2519742350268643,1065.4316701899807,None,1065.4316701899807,None,1065.4316701899807,None,1066.7001764709712,None,1,0.9184383190004155,1066.7001764709712,None,34,1067.6351680799853,None,136,A,1,2021_May_31_1329,GazeFlow,2020.1.2,59.87258801923946,
7,Block508.xls,A,8,6,104,44,22,incongruent,Left,Right,Left,39,38,1,blue,2,5,/home/docky/apps/exp/images/39B.jpeg,/home/docky/apps/exp/images/38Bi.jpeg,0,6,6,6,0,5,5,5,1068.6378136009735,None,1068.6378136009735,None,1,5.227734880987555,1068.6378136009735,None,1073.8989636839833,None,1073.8989636839833,None,1076.401857149991,None,1076.401857149991,None,2.436524830001872,1078.2054704879993,None,1078.2054704879993,None,5,1,1.134404654003447,1080.628856780997,None,1080.628856780997,None,1080.628856780997,None,1081.7798724979803,None,1,0.9020182749954984,1081.7798724979803,None,36,1082.6985420889978,None,136,A,1,2021_May_31_1329,GazeFlow,2020.1.2,59.87258801923946,
7,Block508.xls,A,8,7,39,39,12,congruent,Right,Right,Left,79,73,6,blue,2,5,/home/docky/apps/exp/images/79B.jpeg,/home/docky/apps/exp/images/73Bi.jpeg,0,6,6,6,0,6,6,6,1083.7008288539946,None,1083.7008288539946,None,1,5.911792625003727,1083.7008288539946,None,1089.646602564986,None,1089.646602564986,None,1092.149886543979,None,1092.149886543979,None,2.4369331570051145,1093.9530749449914,None,1093.9530749449914,None,5,1,1.11777335498482,1096.3933596089773,None,1096.3933596089773,None,1096.3933596089773,None,1097.5277139459795,None,1,1.0524651340092532,1097.5277139459795,None,38,1098.5966271209763,None,136,A,1,2021_May_31_1329,GazeFlow,2020.1.2,59.87258801923946,
7,Block508.xls,A,8,8,36,36,12,congruent,Right,Right,Left,66,65,1,blue,2,5,/home/docky/apps/exp/images/66B.jpeg,/home/docky/apps/exp/images/35Yi.jpeg,0,6,6,6,0,7,7,7,1099.5989942949964,None,1099.5989942949964,None,1,5.5445916230091825,1099.5989942949964,None,1105.1773706139938,None,1105.1773706139938,None,1107.6820108549728,None,1107.6820108549728,None,2.5370961209991947,1109.4839158719988,None,1109.4839158719988,None,5,1,1.1846360560157336,1112.024164989998,None,1112.024164989998,None,1112.024164989998,None,1113.225492611993,None,1,0.7512943950132467,1113.225492611993,None,40,1113.9935590819805,None,136,A,1,2021_May_31_1329,GazeFlow,2020.1.2,59.87258801923946,
7,Block508.xls,A,,,,,,,,,,,,,,,,,,0,6,6,6,,,,,,,,,,,,,,,,,,,,,,,,,,,,,,,,,,,,,,,,,,,,136,A,1,2021_May_31_1329,GazeFlow,2020.1.2,59.87258801923946,
8,Block510.xls,A,10,1,102,42,22,incongruent,Left,Right,Left,83,80,3,blue,2,5,/home/docky/apps/exp/images/83B.jpeg,/home/docky/apps/exp/images/80Bi.jpeg,0,7,7,7,0,0,0,0,1135.454302788974,None,1135.454302788974,None,1,6.88787384799798,1135.454302788974,None,1142.3629003579845,None,1142.3629003579845,None,1144.8889917419874,None,1144.8889917419874,None,2.05152466398431,1146.685331258981,None,1146.685331258981,None,5,1,1.15164799199556,1148.7295090199914,None,1148.7295090199914,None,1148.7295090199914,None,1149.8977536339953,None,1,0.8353561779949814,1149.8977536339953,None,42,1150.7498646209715,None,136,A,1,2021_May_31_1329,GazeFlow,2020.1.2,59.87258801923946,
8,Block510.xls,A,10,2,114,54,22,incongruent,Left,Right,Left,76,69,7,yellow,2,5,/home/docky/apps/exp/images/76Yi.jpeg,/home/docky/apps/exp/images/69Y.jpeg,0,7,7,7,0,1,1,1,1151.7518967789947,None,1151.7518967789947,None,1,5.4614047369977925,1151.7518967789947,None,1157.2466008779884,None,1157.2466008779884,None,1159.7499814029725,None,1159.7499814029725,None,1.4176589400158264,1161.5528613359784,None,1161.5528613359784,None,5,1,1.1359384499955922,1162.9575957829948,None,1162.9575957829948,None,1162.9575957829948,None,1164.1096659169998,None,1,0.8344671610102523,1164.1096659169998,None,44,1164.960911295988,None,136,A,1,2021_May_31_1329,GazeFlow,2020.1.2,59.87258801923946,
8,Block510.xls,A,10,3,72,12,21,incongruent,Right,Left,Right,76,79,3,blue,2,6,/home/docky/apps/exp/images/76Bi.jpeg,/home/docky/apps/exp/images/79B.jpeg,0,7,7,7,0,2,2,2,1165.9628878999793,None,1165.9628878999793,None,1,6.079838125006063,1165.9628878999793,None,1172.0759588639776,None,1172.0759588639776,None,1174.5809540029732,None,1174.5809540029732,None,3.021291435987223,1176.3825195269892,None,1176.3825195269892,None,6,1,1.301692153007025,1179.4070995199727,None,1179.4070995199727,None,1179.4070995199727,None,1180.7254375219927,None,1,0.7514287499943748,1180.7254375219927,None,46,1181.4937025449763,None,136,A,1,2021_May_31_1329,GazeFlow,2020.1.2,59.87258801923946,
8,Block510.xls,A,10,4,112,52,22,incongruent,Left,Right,Left,75,69,6,yellow,2,5,/home/docky/apps/exp/images/76Y.jpeg,/home/docky/apps/exp/images/69Yi.jpeg,0,7,7,7,0,3,3,3,1182.4960000819992,None,1182.4960000819992,None,1,5.1608581939945,1182.4960000819992,None,1187.6903130079736,None,1187.6903130079736,None,1190.1936158009921,None,1190.1936158009921,None,2.3194604699965566,1191.9957877369889,None,1191.9957877369889,None,5,1,1.3521340700099245,1194.3028012509749,None,1194.3028012509749,None,1194.3028012509749,None,1195.6714240659785,None,1,0.8685852249909658,1195.6714240659785,None,48,1196.5567733779899,None,136,A,1,2021_May_31_1329,GazeFlow,2020.1.2,59.87258801923946,
8,Block510.xls,A,10,5,17,17,11,congruent,Left,Left,Right,33,35,2,yellow,2,6,/home/docky/apps/exp/images/33Y.jpeg,/home/docky/apps/exp/images/35Yi.jpeg,0,7,7,7,0,4,4,4,1197.5590494199714,None,1197.5590494199714,None,1,5.077093823987525,1197.5590494199714,None,1202.669812869979,None,1202.669812869979,None,1205.1747251189954,None,1205.1747251189954,None,2.536994872003561,1206.976320804999,None,1206.976320804999,None,5,0,1.184427839005366,1209.5168578089797,None,1209.5168578089797,None,1209.5168578089797,None,1210.7179245989828,None,1,1.2531811819935683,1210.7179245989828,None,46,1211.9875313649827,None,136,A,1,2021_May_31_1329,GazeFlow,2020.1.2,59.87258801923946,
8,Block510.xls,A,10,6,31,31,12,congruent,Right,Right,Left,19,16,3,blue,2,5,/home/docky/apps/exp/images/19Bi.jpeg,/home/docky/apps/exp/images/16B.jpeg,0,7,7,7,0,5,5,5,1212.9896290099714,None,1212.9896290099714,None,1,6.596659321017796,1212.9896290099714,None,1219.6202872729918,None,1219.6202872729918,None,1222.123504326999,None,1222.123504326999,None,3.2550147520087194,1223.9269371839764,None,1223.9269371839764,None,5,1,1.370717285986757,1227.1824739949952,None,1227.1824739949952,None,1227.1824739949952,None,1228.5698032969958,None,1,1.019773387000896,1228.5698032969958,None,48,1229.6056752529985,None,136,A,1,2021_May_31_1329,GazeFlow,2020.1.2,59.87258801923946,
8,Block510.xls,A,10,7,61,1,21,incongruent,Right,Left,Right,16,19,3,blue,2,6,/home/docky/apps/exp/images/16Bi.jpeg,/home/docky/apps/exp/images/19B.jpeg,0,7,7,7,0,6,6,6,1230.607741892978,None,1230.607741892978,None,1,5.377938382996945,1230.607741892978,None,1236.018817209988,None,1236.018817209988,None,1238.5222765639774,None,1238.5222765639774,None,2.3534531249897555,1240.325552907976,None,1240.325552907976,None,6,1,1.134321349003585,1242.6654972619726,None,1242.6654972619726,None,1242.6654972619726,None,1243.8169311939855,None,1,0.8183763309789356,1243.8169311939855,None,50,1244.6519445609883,None,136,A,1,2021_May_31_1329,GazeFlow,2020.1.2,59.87258801923946,
8,Block510.xls,A,10,8,94,34,22,incongruent,Left,Right,Left,38,35,3,blue,2,5,/home/docky/apps/exp/images/38Bi.jpeg,/home/docky/apps/exp/images/35B.jpeg,0,7,7,7,0,7,7,7,1245.6541246139968,None,1245.6541246139968,None,1,4.45900281201466,1245.6541246139968,None,1250.1468066999805,None,1250.1468066999805,None,1252.6518839539785,None,1252.6518839539785,None,1.4177300640149042,1254.4537068519858,None,1254.4537068519858,None,5,1,1.3191150719940197,1255.8577148349723,None,1255.8577148349723,None,1255.8577148349723,None,1257.1936708189896,None,1,0.7510626080038492,1257.1936708189896,None,52,1257.9611685999844,None,136,A,1,2021_May_31_1329,GazeFlow,2020.1.2,59.87258801923946,
8,Block510.xls,A,,,,,,,,,,,,,,,,,,0,7,7,7,,,,,,,,,,,,,,,,,,,,,,,,,,,,,,,,,,,,,,,,,,,,136,A,1,2021_May_31_1329,GazeFlow,2020.1.2,59.87258801923946,
9,Block507.xls,A,7,1,110,50,22,incongruent,Left,Right,Left,66,65,1,yellow,2,5,/home/docky/apps/exp/images/66Y.jpeg,/home/docky/apps/exp/images/35Bi.jpeg,0,8,8,8,0,0,0,0,1279.6897949449776,None,1279.6897949449776,None,1,6.902571604994591,1279.6897949449776,None,1286.6216877559782,None,1286.6216877559782,None,1289.1403679599753,None,1289.1403679599753,None,2.5028484580107033,1290.9444704949856,None,1290.9444704949856,None,6,0,1.2679692120000254,1293.4494785469724,None,1293.4494785469724,None,1293.4494785469724,None,1294.7338009969972,None,1,0.6515790069825016,1294.7338009969972,None,50,1295.4025682469946,None,136,A,1,2021_May_31_1329,GazeFlow,2020.1.2,59.87258801923946,
9,Block507.xls,A,7,2,90,30,22,incongruent,Right,Left,Right,16,19,3,blue,2,6,/home/docky/apps/exp/images/16Bi.jpeg,/home/docky/apps/exp/images/19B.jpeg,0,8,8,8,0,1,1,1,1296.4042153689952,None,1296.4042153689952,None,1,5.194056263018865,1296.4042153689952,None,1301.632781896973,None,1301.632781896973,None,1304.1352656759846,None,1304.1352656759846,None,1.8846138560038526,1305.9406353769882,None,1305.9406353769882,None,6,1,1.4021171710046474,1307.8102380569908,None,1307.8102380569908,None,1307.8102380569908,None,1309.2288810879982,None,1,0.684824613010278,1309.2288810879982,None,52,1309.9302231809997,None,136,A,1,2021_May_31_1329,GazeFlow,2020.1.2,59.87258801923946,
9,Block507.xls,A,7,3,16,16,11,congruent,Left,Left,Right,33,35,2,yellow,2,6,/home/docky/apps/exp/images/33Yi.jpeg,/home/docky/apps/exp/images/35Y.jpeg,0,8,8,8,0,2,2,2,1310.9325915789814,None,1310.9325915789814,None,1,5.82786803599447,1310.9325915789814,None,1316.7942303199961,None,1316.7942303199961,None,1319.2990843349835,None,1319.2990843349835,None,2.737358039012179,1321.1006639339903,None,1321.1006639339903,None,6,1,1.1035012570209801,1323.8387591759965,None,1323.8387591759965,None,1323.8387591759965,None,1324.9584786159976,None,1,0.7853699199913535,1324.9584786159976,None,54,1325.7603765659733,None,136,A,1,2021_May_31_1329,GazeFlow,2020.1.2,59.87258801923946,
9,Block507.xls,A,7,4,117,57,22,incongruent,Left,Right,Left,77,72,5,yellow,2,5,/home/docky/apps/exp/images/77Y.jpeg,/home/docky/apps/exp/images/72Yi.jpeg,0,8,8,8,0,3,3,3,1326.7627539999958,None,1326.7627539999958,None,1,4.708943492994877,1326.7627539999958,None,1331.503759500978,None,1331.503759500978,None,1334.0081106029975,None,1334.0081106029975,None,2.6036751529900357,1335.8117510779994,None,1335.8117510779994,None,5,1,1.2348990289901849,1338.4188309019955,None,1338.4188309019955,None,1338.4188309019955,None,1339.6698857059819,None,1,1.1206738690088969,1339.6698857059819,None,56,1340.8059948009904,None,136,A,1,2021_May_31_1329,GazeFlow,2020.1.2,59.87258801923946,
9,Block507.xls,A,7,5,53,53,12,congruent,Right,Right,Left,75,69,6,yellow,2,5,/home/docky/apps/exp/images/76Yi.jpeg,/home/docky/apps/exp/images/69Y.jpeg,0,8,8,8,0,4,4,4,1341.8080852879793,None,1341.8080852879793,None,1,5.794847949990071,1341.8080852879793,None,1347.6364049079712,None,1347.6364049079712,None,1350.1411273189879,None,1350.1411273189879,None,0.8331441470072605,1351.9442290129955,None,1351.9442290129955,None,5,1,1.2525852090038825,1352.7623836849816,None,1352.7623836849816,None,1352.7623836849816,None,1354.0307807579811,None,1,0.801359685981879,1354.0307807579811,None,58,1354.8490456089785,None,136,A,1,2021_May_31_1329,GazeFlow,2020.1.2,59.87258801923946,
9,Block507.xls,A,7,6,96,36,22,incongruent,Left,Right,Left,66,65,1,blue,2,5,/home/docky/apps/exp/images/66Bi.jpeg,/home/docky/apps/exp/images/35Y.jpeg,0,8,8,8,0,5,5,5,1355.8509918699856,None,1355.8509918699856,None,1,5.177108945004875,1355.8509918699856,None,1361.0620969249867,None,1361.0620969249867,None,1363.5644257069798,None,1363.5644257069798,None,2.569520446995739,1365.3681363879878,None,1365.3681363879878,None,5,1,1.1029711939918343,1367.9398711309768,None,1367.9398711309768,None,1367.9398711309768,None,1369.059332897974,None,1,0.7346995880070608,1369.059332897974,None,60,1369.8107301549753,None,136,A,1,2021_May_31_1329,GazeFlow,2020.1.2,59.87258801923946,
9,Block507.xls,A,7,7,58,58,12,congruent,Right,Right,Left,77,72,5,yellow,2,5,/home/docky/apps/exp/images/77Yi.jpeg,/home/docky/apps/exp/images/72Y.jpeg,0,8,8,8,0,6,6,6,1370.8129620889958,None,1370.8129620889958,None,1,6.99712911201641,1370.8129620889958,None,1377.8436723059858,None,1377.8436723059858,None,1380.3460899529746,None,1380.3460899529746,None,1.267383919999702,1382.149743247981,None,1382.149743247981,None,5,1,1.2191021040198393,1383.4036754369736,None,1383.4036754369736,None,1383.4036754369736,None,1384.6392655319942,None,1,0.5508043160079978,1384.6392655319942,None,62,1385.2065204779792,None,136,A,1,2021_May_31_1329,GazeFlow,2020.1.2,59.87258801923946,
9,Block507.xls,A,7,8,41,41,12,congruent,Right,Right,Left,79,76,3,blue,2,5,/home/docky/apps/exp/images/79Bi.jpeg,/home/docky/apps/exp/images/76B.jpeg,0,8,8,8,0,7,7,7,1386.2089278279745,None,1386.2089278279745,None,1,5.394162256998243,1386.2089278279745,None,1391.6369176999724,None,1391.6369176999724,None,1394.141516832984,None,1394.141516832984,None,2.1188568170182407,1395.9432011319732,None,1395.9432011319732,None,5,1,1.2015323060040828,1398.0485099479847,None,1398.0485099479847,None,1398.0485099479847,None,1399.2667625639879,None,1,0.8187099449860398,1399.2667625639879,None,64,1400.1018756749982,None,136,A,1,2021_May_31_1329,GazeFlow,2020.1.2,59.87258801923946,
9,Block507.xls,A,,,,,,,,,,,,,,,,,,0,8,8,8,,,,,,,,,,,,,,,,,,,,,,,,,,,,,,,,,,,,,,,,,,,,136,A,1,2021_May_31_1329,GazeFlow,2020.1.2,59.87258801923946,
10,Block515.xls,A,15,1,107,47,22,incongruent,Left,Right,Left,35,33,2,yellow,2,5,/home/docky/apps/exp/images/35Yi.jpeg,/home/docky/apps/exp/images/33Y.jpeg,0,9,9,9,0,0,0,0,1424.0660292799876,None,1424.0660292799876,None,1,7.623338948003948,1424.0660292799876,None,1431.7116040029796,None,1431.7116040029796,None,1434.2329971419822,None,1434.2329971419822,None,1.7676864649984054,1436.036565634975,None,1436.036565634975,None,5,1,1.16891086200485,1437.7911543569935,None,1437.7911543569935,None,1437.7911543569935,None,1438.9766406459967,None,1,0.8678295230201911,1438.9766406459967,None,66,1439.8611936429807,None,136,A,1,2021_May_31_1329,GazeFlow,2020.1.2,59.87258801923946,
10,Block515.xls,A,15,2,55,55,12,congruent,Right,Right,Left,76,69,7,yellow,2,5,/home/docky/apps/exp/images/76Yi.jpeg,/home/docky/apps/exp/images/69Y.jpeg,0,9,9,9,0,1,1,1,1440.8633709519927,None,1440.8633709519927,None,1,6.696629899000982,1440.8633709519927,None,1447.5938752219954,None,1447.5938752219954,None,1450.0966933659802,None,1450.0966933659802,None,0.8496719700051472,1451.8998433579982,None,1451.8998433579982,None,5,1,1.1515656750125345,1452.7365958889714,None,1452.7365958889714,None,1452.7365958889714,None,1453.9048282609729,None,1,0.7355229190143291,1453.9048282609729,None,68,1454.6565617639862,None,136,A,1,2021_May_31_1329,GazeFlow,2020.1.2,59.87258801923946,
10,Block515.xls,A,15,3,75,15,21,incongruent,Right,Left,Right,33,35,2,yellow,2,6,/home/docky/apps/exp/images/33Yi.jpeg,/home/docky/apps/exp/images/35Y.jpeg,0,9,9,9,0,2,2,2,1455.6581177489716,None,1455.6581177489716,None,1,4.993924291979056,1455.6581177489716,None,1460.685230211995,None,1460.685230211995,None,1463.1884470529913,None,1463.1884470529913,None,1.7683587249775883,1464.9911427009793,None,1464.9911427009793,None,6,1,1.0353292420040816,1466.7466890219948,None,1466.7466890219948,None,1466.7466890219948,None,1467.7984029909712,None,1,0.5841236480046064,1467.7984029909712,None,70,1468.399223750981,None,136,A,1,2021_May_31_1329,GazeFlow,2020.1.2,59.87258801923946,
10,Block515.xls,A,15,4,62,2,21,incongruent,Right,Left,Right,35,38,3,blue,2,6,/home/docky/apps/exp/images/35Bi.jpeg,/home/docky/apps/exp/images/38B.jpeg,0,9,9,9,0,3,3,3,1469.4017686019943,None,1469.4017686019943,None,1,5.2936966700071935,1469.4017686019943,None,1474.7295974669978,None,1474.7295974669978,None,1477.2322049739887,None,1477.2322049739887,None,1.818117569986498,1479.0353593469772,None,1479.0353593469772,None,6,1,1.101286661985796,1480.8404393749952,None,1480.8404393749952,None,1480.8404393749952,None,1481.9581955809845,None,1,0.6515262890025042,1481.9581955809845,None,72,1482.6265446589969,None,136,A,1,2021_May_31_1329,GazeFlow,2020.1.2,59.87258801923946,
10,Block515.xls,A,15,5,100,40,22,incongruent,Left,Right,Left,79,76,3,blue,2,5,/home/docky/apps/exp/images/79Bi.jpeg,/home/docky/apps/exp/images/76B.jpeg,0,9,9,9,0,4,4,4,1483.6287140069762,None,1483.6287140069762,None,1,5.360955684998771,1483.6287140069762,None,1489.0230583029916,None,1489.0230583029916,None,1491.5262938699743,None,1491.5262938699743,None,3.004818540997803,1493.3299117609859,None,1493.3299117609859,None,5,1,1.0675592990010045,1496.3371937919874,None,1496.3371937919874,None,1496.3371937919874,None,1497.4213187639834,None,1,0.6188184130005538,1497.4213187639834,None,74,1498.0562920419907,None,136,A,1,2021_May_31_1329,GazeFlow,2020.1.2,59.87258801923946,
10,Block515.xls,A,15,6,108,48,22,incongruent,Left,Right,Left,39,38,1,yellow,2,5,/home/docky/apps/exp/images/39Y.jpeg,/home/docky/apps/exp/images/38Yi.jpeg,0,9,9,9,0,5,5,5,1499.0583757399872,None,1499.0583757399872,None,1,4.625778932997491,1499.0583757399872,None,1503.7178607279784,None,1503.7178607279784,None,1506.2212781069975,None,1506.2212781069975,None,2.987526565993903,1508.024274956988,None,1508.024274956988,None,5,1,1.7380859420227353,1511.0131397149817,None,1511.0131397149817,None,1511.0131397149817,None,1512.7677917899855,None,1,0.7021883499983232,1512.7677917899855,None,76,1513.4861139399873,None,136,A,1,2021_May_31_1329,GazeFlow,2020.1.2,59.87258801923946,
10,Block515.xls,A,15,7,59,59,12,congruent,Right,Right,Left,80,79,1,yellow,2,5,/home/docky/apps/exp/images/80Y.jpeg,/home/docky/apps/exp/images/79Yi.jpeg,0,9,9,9,0,6,6,6,1514.4878088649712,None,1514.4878088649712,None,1,6.5963916270120535,1514.4878088649712,None,1521.1179709299759,None,1521.1179709299759,None,1523.6227019339858,None,1523.6227019339858,None,2.4202199729916174,1525.4244885279913,None,1525.4244885279913,None,5,1,1.0507613900117576,1527.8478189489979,None,1527.8478189489979,None,1527.8478189489979,None,1528.9153284719796,None,1,0.7180793900042772,1528.9153284719796,None,78,1529.6502730739885,None,136,A,1,2021_May_31_1329,GazeFlow,2020.1.2,59.87258801923946,
10,Block515.xls,A,15,8,8,8,11,congruent,Left,Left,Right,38,39,1,blue,2,6,/home/docky/apps/exp/images/38B.jpeg,/home/docky/apps/exp/images/39Bi.jpeg,0,9,9,9,0,7,7,7,1530.6522899319825,None,1530.6522899319825,None,1,5.711841562006157,1530.6522899319825,None,1536.3973753979953,None,1536.3973753979953,None,1538.9001241599908,None,1538.9001241599908,None,2.470159638003679,1540.6987737149757,None,1540.6987737149757,None,5,0,1.1345500070019625,1543.160659666988,None,1543.160659666988,None,1543.160659666988,None,1544.311609396973,None,1,0.8351946699840482,1544.311609396973,None,76,1545.163381705992,None,136,A,1,2021_May_31_1329,GazeFlow,2020.1.2,59.87258801923946,
10,Block515.xls,A,,,,,,,,,,,,,,,,,,0,9,9,9,,,,,,,,,,,,,,,,,,,,,,,,,,,,,,,,,,,,,,,,,,,,136,A,1,2021_May_31_1329,GazeFlow,2020.1.2,59.87258801923946,
11,Block512.xls,A,12,1,30,30,11,congruent,Left,Left,Right,79,82,3,yellow,2,6,/home/docky/apps/exp/images/79Yi.jpeg,/home/docky/apps/exp/images/80Y.jpeg,0,10,10,10,0,0,0,0,1568.0759742889786,None,1568.0759742889786,None,1,8.074265692994231,1568.0759742889786,None,1576.177539005992,None,1576.177539005992,None,1578.6955123309745,None,1578.6955123309745,None,2.218500104994746,1580.497307963,None,1580.497307963,None,5,0,1.8530978560156655,1582.7027797959745,None,1582.7027797959745,None,1582.7027797959745,None,1584.5725332899892,None,1,0.8019227969925851,1584.5725332899892,None,74,1585.391065874981,None,136,A,1,2021_May_31_1329,GazeFlow,2020.1.2,59.87258801923946,
11,Block512.xls,A,12,2,115,55,22,incongruent,Left,Right,Left,76,69,7,yellow,2,5,/home/docky/apps/exp/images/76Yi.jpeg,/home/docky/apps/exp/images/69Y.jpeg,0,10,10,10,0,1,1,1,1586.3930307979754,None,1586.3930307979754,None,1,6.279398543993011,1586.3930307979754,None,1592.7057612999924,None,1592.7057612999924,None,1595.2088839689968,None,1595.2088839689968,None,0.9332734390045516,1597.012017912988,None,1597.012017912988,None,5,1,1.0346934520057403,1597.9320943629718,None,1597.9320943629718,None,1597.9320943629718,None,1598.983433625981,None,1,0.5688169289787766,1598.983433625981,None,76,1599.5683222199732,None,136,A,1,2021_May_31_1329,GazeFlow,2020.1.2,59.87258801923946,
11,Block512.xls,A,12,3,66,6,21,incongruent,Right,Left,Right,38,39,1,blue,2,6,/home/docky/apps/exp/images/38B.jpeg,/home/docky/apps/exp/images/39Bi.jpeg,0,10,10,10,0,2,2,2,1600.5697360959894,None,1600.5697360959894,None,1,5.3115157279826235,1600.5697360959894,None,1605.914704395982,None,1605.914704395982,None,1608.4180880379863,None,1608.4180880379863,None,1.250684516999172,1610.2208278519975,None,1610.2208278519975,None,5,0,1.1855864849931095,1611.458248195995,None,1611.458248195995,None,1611.458248195995,None,1612.6603336609842,None,1,0.7679434650053736,1612.6603336609842,None,74,1613.4446024499775,None,136,A,1,2021_May_31_1329,GazeFlow,2020.1.2,59.87258801923946,
11,Block512.xls,A,12,4,35,35,12,congruent,Right,Right,Left,66,65,1,blue,2,5,/home/docky/apps/exp/images/66B.jpeg,/home/docky/apps/exp/images/35Yi.jpeg,0,10,10,10,0,3,3,3,1614.4468257149856,None,1614.4468257149856,None,1,5.628038572001969,1614.4468257149856,None,1620.1086825219973,None,1620.1086825219973,None,1622.6119163139956,None,1622.6119163139956,None,2.236057317000814,1624.4143564029946,None,1624.4143564029946,None,6,0,1.7697840420005377,1626.6375126529892,None,1626.6375126529892,None,1626.6375126529892,None,1628.423698033992,None,1,0.668162410001969,1628.423698033992,None,72,1629.108743380988,None,136,A,1,2021_May_31_1329,GazeFlow,2020.1.2,59.87258801923946,
11,Block512.xls,A,12,5,40,40,12,congruent,Right,Right,Left,79,76,3,blue,2,5,/home/docky/apps/exp/images/79Bi.jpeg,/home/docky/apps/exp/images/76B.jpeg,0,10,10,10,0,4,4,4,1630.110709266999,None,1630.110709266999,None,1,5.226977543992689,1630.110709266999,None,1635.3712479239912,None,1635.3712479239912,None,1637.8762957369909,None,1637.8762957369909,None,1.7348890480061527,1639.6736406159762,None,1639.6736406159762,None,5,1,1.0359438690065872,1641.3990429079859,None,1641.3990429079859,None,1641.3990429079859,None,1642.4510747829918,None,1,0.5340102190093603,1642.4510747829918,None,74,1643.001874227979,None,136,A,1,2021_May_31_1329,GazeFlow,2020.1.2,59.87258801923946,
11,Block512.xls,A,12,6,64,4,21,incongruent,Right,Left,Right,65,66,1,blue,2,6,/home/docky/apps/exp/images/35Yi.jpeg,/home/docky/apps/exp/images/66B.jpeg,0,10,10,10,0,5,5,5,1644.0040914859856,None,1644.0040914859856,None,1,6.8969714299892075,1644.0040914859856,None,1650.934576692991,None,1650.934576692991,None,1653.438252523978,None,1653.438252523978,None,1.8518666040035896,1655.241831154999,None,1655.241831154999,None,5,0,1.168865954008652,1657.0796435949742,None,1657.0796435949742,None,1657.0796435949742,None,1658.264555058995,None,1,0.8684603639994748,1658.264555058995,None,72,1659.149658610986,None,136,A,1,2021_May_31_1329,GazeFlow,2020.1.2,59.87258801923946,
11,Block512.xls,A,12,7,12,12,11,congruent,Left,Left,Right,76,79,3,blue,2,6,/home/docky/apps/exp/images/76B.jpeg,/home/docky/apps/exp/images/79Bi.jpeg,0,10,10,10,0,6,6,6,1660.1520158209896,None,1660.1520158209896,None,1,5.477904255996691,1660.1520158209896,None,1665.6633806449827,None,1665.6633806449827,None,1668.1681157099956,None,1668.1681157099956,None,1.834849843988195,1669.9699926989852,None,1669.9699926989852,None,6,1,1.1849221380252857,1671.7914250979957,None,1671.7914250979957,None,1671.7914250979957,None,1672.9929114549886,None,1,0.5848085879988503,1672.9929114549886,None,74,1673.5941162409727,None,136,A,1,2021_May_31_1329,GazeFlow,2020.1.2,59.87258801923946,
11,Block512.xls,A,12,8,49,49,12,congruent,Right,Right,Left,39,38,1,yellow,2,5,/home/docky/apps/exp/images/39Y.jpeg,/home/docky/apps/exp/images/38Yi.jpeg,0,10,10,10,0,7,7,7,1674.5964109849883,None,1674.5964109849883,None,1,4.926718106988119,1674.5964109849883,None,1679.556684596988,None,1679.556684596988,None,1682.0615982879826,None,1682.0615982879826,None,1.1171867870143615,1683.8637457219884,None,1683.8637457219884,None,5,1,1.1855108429735992,1684.9669197069888,None,1684.9669197069888,None,1684.9669197069888,None,1686.1689438779722,None,1,1.051623994979309,1686.1689438779722,None,76,1687.2374110089731,None,136,A,1,2021_May_31_1329,GazeFlow,2020.1.2,59.87258801923946,
11,Block512.xls,A,,,,,,,,,,,,,,,,,,0,10,10,10,,,,,,,,,,,,,,,,,,,,,,,,,,,,,,,,,,,,,,,,,,,,136,A,1,2021_May_31_1329,GazeFlow,2020.1.2,59.87258801923946,
12,Block503.xls,A,3,1,22,22,11,congruent,Left,Left,Right,62,65,3,yellow,2,6,/home/docky/apps/exp/images/38Bi.jpeg,/home/docky/apps/exp/images/35B.jpeg,0,11,11,11,0,0,0,0,1707.192950209981,None,1707.192950209981,None,1,5.68553750301362,1707.192950209981,None,1712.9010610519908,None,1712.9010610519908,None,1715.4265337489778,None,1715.4265337489778,None,2.720286855008453,1717.2295937399904,None,1717.2295937399904,None,6,1,1.1013516020029783,1719.9513999349729,None,1719.9513999349729,None,1719.9513999349729,None,1721.0696615419874,None,1,0.6682076010038145,1721.0696615419874,None,78,1721.7542086249741,None,136,A,1,2021_May_31_1329,GazeFlow,2020.1.2,59.87258801923946,
12,Block503.xls,A,3,2,65,5,21,incongruent,Right,Left,Right,65,66,1,blue,2,6,/home/docky/apps/exp/images/35Y.jpeg,/home/docky/apps/exp/images/66Bi.jpeg,0,11,11,11,0,1,1,1,1722.7564510789816,None,1722.7564510789816,None,1,4.60987499699695,1722.7564510789816,None,1727.4000581919972,None,1727.4000581919972,None,1729.9043665829813,None,1729.9043665829813,None,2.1855523510021158,1731.7005676589906,None,1731.7005676589906,None,6,1,1.0180773479805794,1733.878164772992,None,1733.878164772992,None,1733.878164772992,None,1734.912936179986,None,1,0.73491530699539,1734.912936179986,None,80,1735.6642573379795,None,136,A,1,2021_May_31_1329,GazeFlow,2020.1.2,59.87258801923946,
12,Block503.xls,A,3,3,76,16,21,incongruent,Right,Left,Right,33,35,2,yellow,2,6,/home/docky/apps/exp/images/33Y.jpeg,/home/docky/apps/exp/images/35Yi.jpeg,0,11,11,11,0,2,2,2,1736.6665435469768,None,1736.6665435469768,None,1,5.160273948975373,1736.6665435469768,None,1741.8621625309752,None,1741.8621625309752,None,1744.3685821359977,None,1744.3685821359977,None,3.2715543689846527,1746.1670613979804,None,1746.1670613979804,None,5,0,1.1175236479903106,1749.4422146339784,None,1749.4422146339784,None,1749.4422146339784,None,1750.5766198179917,None,1,0.6679396140098106,1750.5766198179917,None,78,1751.261410444975,None,136,A,1,2021_May_31_1329,GazeFlow,2020.1.2,59.87258801923946,
12,Block503.xls,A,3,4,29,29,11,congruent,Left,Left,Right,79,82,3,yellow,2,6,/home/docky/apps/exp/images/79Y.jpeg,/home/docky/apps/exp/images/80Yi.jpeg,0,11,11,11,0,3,3,3,1752.2634549649956,None,1752.2634549649956,None,1,6.947168440994574,1752.2634549649956,None,1759.2444208579836,None,1759.2444208579836,None,1761.7476003109768,None,1761.7476003109768,None,1.6681128429772798,1763.5515318309772,None,1763.5515318309772,None,6,1,1.4017225799907465,1765.2057127959852,None,1765.2057127959852,None,1765.2057127959852,None,1766.6242042279919,None,1,0.7520976669911761,1766.6242042279919,None,80,1767.3930990459921,None,136,A,1,2021_May_31_1329,GazeFlow,2020.1.2,59.87258801923946,
12,Block503.xls,A,3,5,103,43,22,incongruent,Left,Right,Left,39,38,1,blue,2,5,/home/docky/apps/exp/images/39Bi.jpeg,/home/docky/apps/exp/images/38B.jpeg,0,11,11,11,0,4,4,4,1768.395078816975,None,1768.395078816975,None,1,6.178818354994291,1768.395078816975,None,1774.607614345994,None,1774.607614345994,None,1777.1107522889797,None,1777.1107522889797,None,2.3364263600087725,1778.913436650997,None,1778.913436650997,None,5,1,1.1521660989965312,1781.2364801519725,None,1781.2364801519725,None,1781.2364801519725,None,1782.4059529559745,None,1,0.7340911110222805,1782.4059529559745,None,82,1783.1568852219789,None,136,A,1,2021_May_31_1329,GazeFlow,2020.1.2,59.87258801923946,
12,Block503.xls,A,3,6,47,47,12,congruent,Right,Right,Left,35,33,2,yellow,2,5,/home/docky/apps/exp/images/35Yi.jpeg,/home/docky/apps/exp/images/33Y.jpeg,0,11,11,11,0,5,5,5,1784.1589125129976,None,1784.1589125129976,None,1,5.360609838011442,1784.1589125129976,None,1789.5532947359898,None,1789.5532947359898,None,1792.0580333259713,None,1792.0580333259713,None,2.052583273994969,1793.8595565259748,None,1793.8595565259748,None,5,1,1.1516718490165658,1795.8984270569927,None,1795.8984270569927,None,1795.8984270569927,None,1797.066935491981,None,1,1.068868375994498,1797.066935491981,None,84,1798.1521072899923,None,136,A,1,2021_May_31_1329,GazeFlow,2020.1.2,59.87258801923946,
12,Block503.xls,A,3,7,20,20,11,congruent,Left,Left,Right,65,66,1,yellow,2,6,/home/docky/apps/exp/images/35Bi.jpeg,/home/docky/apps/exp/images/66Y.jpeg,0,11,11,11,0,6,6,6,1799.1547055129777,None,1799.1547055129777,None,1,5.393851427012123,1799.1547055129777,None,1804.5820942849969,None,1804.5820942849969,None,1807.085247725976,None,1807.085247725976,None,2.553740997973364,1808.8881210619875,None,1808.8881210619875,None,5,0,1.2680567799834535,1811.4458077869785,None,1811.4458077869785,None,1811.4458077869785,None,1812.7306325549725,None,1,0.834859474998666,1812.7306325549725,None,82,1813.582248176972,None,136,A,1,2021_May_31_1329,GazeFlow,2020.1.2,59.87258801923946,
12,Block503.xls,A,3,8,27,27,11,congruent,Left,Left,Right,72,77,5,yellow,2,6,/home/docky/apps/exp/images/72Yi.jpeg,/home/docky/apps/exp/images/77Y.jpeg,0,11,11,11,0,7,7,7,1814.5846163609822,None,1814.5846163609822,None,1,5.695009538991144,1814.5846163609822,None,1820.3129893969744,None,1820.3129893969744,None,1822.815995227982,None,1822.815995227982,None,1.5346306139836088,1824.613953033986,None,1824.613953033986,None,6,1,1.0014437450154219,1826.1406413909863,None,1826.1406413909863,None,1826.1406413909863,None,1827.1589249229874,None,1,0.5341133619949687,1827.1589249229874,None,84,1827.7096874459821,None,136,A,1,2021_May_31_1329,GazeFlow,2020.1.2,59.87258801923946,
12,Block503.xls,A,,,,,,,,,,,,,,,,,,0,11,11,11,,,,,,,,,,,,,,,,,,,,,,,,,,,,,,,,,,,,,,,,,,,,136,A,1,2021_May_31_1329,GazeFlow,2020.1.2,59.87258801923946,
13,Block501.xls,A,1,1,54,54,12,congruent,Right,Right,Left,75,69,6,yellow,2,5,/home/docky/apps/exp/images/76Y.jpeg,/home/docky/apps/exp/images/69Yi.jpeg,0,12,12,12,0,0,0,0,1847.431755875994,None,1847.431755875994,None,1,6.801208424003562,1847.431755875994,None,1854.2635704219865,None,1854.2635704219865,None,1856.7823972239858,None,1856.7823972239858,None,1.5502960610028822,1858.5816583179985,None,1858.5816583179985,None,5,1,1.219340905023273,1860.1230293909903,None,1860.1230293909903,None,1860.1230293909903,None,1861.3588375979743,None,1,0.8678491479950026,1861.3588375979743,None,86,1862.2432176069997,None,136,A,1,2021_May_31_1329,GazeFlow,2020.1.2,59.87258801923946,
13,Block501.xls,A,1,2,70,10,21,incongruent,Right,Left,Right,73,76,3,blue,2,6,/home/docky/apps/exp/images/73Bi.jpeg,/home/docky/apps/exp/images/76B.jpeg,0,12,12,12,0,1,1,1,1863.2458477959735,None,1863.2458477959735,None,1,5.945268951996695,1863.2458477959735,None,1869.224829911982,None,1869.224829911982,None,1871.7293172279897,None,1871.7293172279897,None,2.787484708998818,1873.530742493982,None,1873.530742493982,None,6,1,1.7043703890230972,1876.3197441749799,None,1876.3197441749799,None,1876.3197441749799,None,1878.0408605409903,None,1,0.6855889329744969,1878.0408605409903,None,88,1878.7425685759808,None,136,A,1,2021_May_31_1329,GazeFlow,2020.1.2,59.87258801923946,
13,Block501.xls,A,1,3,84,24,21,incongruent,Right,Left,Right,69,76,7,yellow,2,6,/home/docky/apps/exp/images/69Yi.jpeg,/home/docky/apps/exp/images/76Y.jpeg,0,12,12,12,0,2,2,2,1879.7446567689767,None,1879.7446567689767,None,1,5.812108646001434,1879.7446567689767,None,1885.590014662972,None,1885.590014662972,None,1888.094823922991,None,1888.094823922991,None,2.1357765549910255,1889.898225373996,None,1889.898225373996,None,6,1,0.9681246349937283,1892.0186152019887,None,1892.0186152019887,None,1892.0186152019887,None,1893.0033639619942,None,1,0.6345630889991298,1893.0033639619942,None,90,1893.6546731809794,None,136,A,1,2021_May_31_1329,GazeFlow,2020.1.2,59.87258801923946,
13,Block501.xls,A,1,4,26,26,11,congruent,Left,Left,Right,69,75,6,yellow,2,6,/home/docky/apps/exp/images/69Y.jpeg,/home/docky/apps/exp/images/76Yi.jpeg,0,12,12,12,0,3,3,3,1894.6569206499844,None,1894.6569206499844,None,1,5.360715001996141,1894.6569206499844,None,1900.0514450269984,None,1900.0514450269984,None,1902.556271060981,None,1902.556271060981,None,1.93488310999237,1904.358142771991,None,1904.358142771991,None,6,1,1.2185234049975406,1906.2795732789964,None,1906.2795732789964,None,1906.2795732789964,None,1907.5148027729883,None,1,0.6514562930096872,1907.5148027729883,None,92,1908.1826744159916,None,136,A,1,2021_May_31_1329,GazeFlow,2020.1.2,59.87258801923946,
13,Block501.xls,A,1,5,97,37,22,incongruent,Left,Right,Left,79,73,6,blue,2,5,/home/docky/apps/exp/images/79B.jpeg,/home/docky/apps/exp/images/73Bi.jpeg,0,12,12,12,0,4,4,4,1909.1852507349977,None,1909.1852507349977,None,1,5.160652741993545,1909.1852507349977,None,1914.3799190719728,None,1914.3799190719728,None,1916.8839857459825,None,1916.8839857459825,None,1.885290394013282,1918.6803295409773,None,1918.6803295409773,None,5,1,1.0357698609877843,1920.5574605779839,None,1920.5574605779839,None,1920.5574605779839,None,1921.6094048679806,None,1,0.7344963589857798,1921.6094048679806,None,94,1922.3603164809756,None,136,A,1,2021_May_31_1329,GazeFlow,2020.1.2,59.87258801923946,
13,Block501.xls,A,1,6,98,38,22,incongruent,Left,Right,Left,79,73,6,blue,2,5,/home/docky/apps/exp/images/79B.jpeg,/home/docky/apps/exp/images/73Bi.jpeg,0,12,12,12,0,5,5,5,1923.362836033979,None,1923.362836033979,None,1,6.79731309300405,1923.362836033979,None,1930.1932682549814,None,1930.1932682549814,None,1932.7032531659934,None,1932.7032531659934,None,1.6349197950039525,1934.4996556909755,None,1934.4996556909755,None,5,1,1.2193449669866823,1936.1210624539817,None,1936.1210624539817,None,1936.1210624539817,None,1937.3567105989787,None,1,0.7182633129996248,1937.3567105989787,None,96,1938.0909339609789,None,136,A,1,2021_May_31_1329,GazeFlow,2020.1.2,59.87258801923946,
13,Block501.xls,A,1,7,77,17,21,incongruent,Right,Left,Right,65,66,1,yellow,2,6,/home/docky/apps/exp/images/35B.jpeg,/home/docky/apps/exp/images/66Yi.jpeg,0,12,12,12,0,6,6,6,1939.0929316949914,None,1939.0929316949914,None,1,7.348396059998777,1939.0929316949914,None,1946.4731780899747,None,1946.4731780899747,None,1948.9779034539824,None,1948.9779034539824,None,2.018886650999775,1950.7785793669755,None,1950.7785793669755,None,6,1,1.235190200008219,1952.7870467199828,None,1952.7870467199828,None,1952.7870467199828,None,1954.038956859993,None,1,0.6509450239827856,1954.038956859993,None,98,1954.706981396972,None,136,A,1,2021_May_31_1329,GazeFlow,2020.1.2,59.87258801923946,
13,Block501.xls,A,1,8,50,50,12,congruent,Right,Right,Left,66,65,1,yellow,2,5,/home/docky/apps/exp/images/66Y.jpeg,/home/docky/apps/exp/images/35Bi.jpeg,0,12,12,12,0,7,7,7,1955.7091846269905,None,1955.7091846269905,None,1,4.85962224600371,1955.7091846269905,None,1960.6069115139835,None,1960.6069115139835,None,1963.1058262429724,None,1963.1058262429724,None,2.8548211169836577,1964.9090480789891,None,1964.9090480789891,None,6,0,1.0335014360025525,1967.7674554059922,None,1967.7674554059922,None,1967.7674554059922,None,1968.8176280879998,None,1,0.834984799992526,1968.8176280879998,None,96,1969.6693746579986,None,136,A,1,2021_May_31_1329,GazeFlow,2020.1.2,59.87258801923946,
13,Block501.xls,A,,,,,,,,,,,,,,,,,,0,12,12,12,,,,,,,,,,,,,,,,,,,,,,,,,,,,,,,,,,,,,,,,,,,,136,A,1,2021_May_31_1329,GazeFlow,2020.1.2,59.87258801923946,
14,Block513.xls,A,13,1,32,32,12,congruent,Right,Right,Left,19,16,3,blue,2,5,/home/docky/apps/exp/images/19B.jpeg,/home/docky/apps/exp/images/16Bi.jpeg,0,13,13,13,0,0,0,0,1991.5302185259934,None,1991.5302185259934,None,1,5.616769386018859,1991.5302185259934,None,1997.1753113449959,None,1997.1753113449959,None,1999.6955148949928,None,1999.6955148949928,None,1.9514665900205728,2001.4970171219902,None,2001.4970171219902,None,5,1,1.185093042004155,2003.435714290972,None,2003.435714290972,None,2003.435714290972,None,2004.6376688949822,None,1,0.8183156749873888,2004.6376688949822,None,98,2005.4725007609813,None,136,A,1,2021_May_31_1329,GazeFlow,2020.1.2,59.87258801923946,
14,Block513.xls,A,13,2,81,21,21,incongruent,Right,Left,Right,38,39,1,yellow,2,6,/home/docky/apps/exp/images/38Yi.jpeg,/home/docky/apps/exp/images/39Y.jpeg,0,13,13,13,0,1,1,1,2006.4747930469748,None,2006.4747930469748,None,1,5.46137956099119,2006.4747930469748,None,2011.9706601229846,None,2011.9706601229846,None,2014.4744010959985,None,2014.4744010959985,None,2.185773250006605,2016.2777695429977,None,2016.2777695429977,None,6,1,1.2018719750049058,2018.4483971979935,None,2018.4483971979935,None,2018.4483971979935,None,2019.6671052009915,None,1,0.6010950260097161,2019.6671052009915,None,100,2020.2847958679777,None,136,A,1,2021_May_31_1329,GazeFlow,2020.1.2,59.87258801923946,
14,Block513.xls,A,13,3,92,32,22,incongruent,Left,Right,Left,19,16,3,blue,2,5,/home/docky/apps/exp/images/19B.jpeg,/home/docky/apps/exp/images/16Bi.jpeg,0,13,13,13,0,2,2,2,2021.2870948619966,None,2021.2870948619966,None,1,6.0458505649876315,2021.2870948619966,None,2027.366314141982,None,2027.366314141982,None,2029.8690835239831,None,2029.8690835239831,None,1.6848861029720865,2031.6671561219846,None,2031.6671561219846,None,5,1,1.1026426730095409,2033.3440238409967,None,2033.3440238409967,None,2033.3440238409967,None,2034.4627218199894,None,1,0.7178571590047795,2034.4627218199894,None,102,2035.1970697509823,None,136,A,1,2021_May_31_1329,GazeFlow,2020.1.2,59.87258801923946,
14,Block513.xls,A,13,4,6,6,11,congruent,Left,Left,Right,65,66,1,blue,2,6,/home/docky/apps/exp/images/35Y.jpeg,/home/docky/apps/exp/images/66Bi.jpeg,0,13,13,13,0,3,3,3,2036.198884649988,None,2036.198884649988,None,1,5.428116165974643,2036.198884649988,None,2041.6606311169744,None,2041.6606311169744,None,2044.1658137169725,None,2044.1658137169725,None,2.135626344010234,2045.9672933709808,None,2045.9672933709808,None,6,1,1.4019540770095773,2048.0898547009856,None,2048.0898547009856,None,2048.0898547009856,None,2049.508154059993,None,1,0.6349722339946311,2049.508154059993,None,104,2050.1596127049997,None,136,A,1,2021_May_31_1329,GazeFlow,2020.1.2,59.87258801923946,
14,Block513.xls,A,13,5,67,7,21,incongruent,Right,Left,Right,38,39,1,blue,2,6,/home/docky/apps/exp/images/38Bi.jpeg,/home/docky/apps/exp/images/39B.jpeg,0,13,13,13,0,4,4,4,2051.1620615629945,None,2051.1620615629945,None,1,4.877079455007333,2051.1620615629945,None,2056.0727209549805,None,2056.0727209549805,None,2058.575605327991,None,2058.575605327991,None,2.3199532339931466,2060.3785794499854,None,2060.3785794499854,None,6,1,1.451796451001428,2062.685151550977,None,2062.685151550977,None,2062.685151550977,None,2064.153602088976,None,1,0.6851089289993979,2064.153602088976,None,106,2064.855303610995,None,136,A,1,2021_May_31_1329,GazeFlow,2020.1.2,59.87258801923946,
14,Block513.xls,A,13,6,111,51,22,incongruent,Left,Right,Left,66,65,1,yellow,2,5,/home/docky/apps/exp/images/66Yi.jpeg,/home/docky/apps/exp/images/35B.jpeg,0,13,13,13,0,5,5,5,2065.857425563998,None,2065.857425563998,None,1,4.776192777993856,2065.857425563998,None,2070.667249133985,None,2070.667249133985,None,2073.170117659989,None,2073.170117659989,None,2.0855590240098536,2074.973578606994,None,2074.973578606994,None,5,1,1.1018352920073085,2077.0461137099774,None,2077.0461137099774,None,2077.0461137099774,None,2078.1645323599805,None,1,0.7179562709934544,2078.1645323599805,None,108,2078.8990856579912,None,136,A,1,2021_May_31_1329,GazeFlow,2020.1.2,59.87258801923946,
14,Block513.xls,A,13,7,88,28,21,incongruent,Right,Left,Right,79,82,3,yellow,2,6,/home/docky/apps/exp/images/79Y.jpeg,/home/docky/apps/exp/images/80Yi.jpeg,0,13,13,13,0,6,6,6,2079.9015178219997,None,2079.9015178219997,None,1,5.227125567995245,2079.9015178219997,None,2085.1627604579844,None,2085.1627604579844,None,2087.6656205709733,None,2087.6656205709733,None,2.0355316270142794,2089.467989085999,None,2089.467989085999,None,6,1,1.3853881009854376,2091.4910296809976,None,2091.4910296809976,None,2091.4910296809976,None,2092.892969264998,None,1,0.5678333870018832,2092.892969264998,None,110,2093.4778183749877,None,136,A,1,2021_May_31_1329,GazeFlow,2020.1.2,59.87258801923946,
14,Block513.xls,A,13,8,14,14,11,congruent,Left,Left,Right,80,83,3,blue,2,6,/home/docky/apps/exp/images/80B.jpeg,/home/docky/apps/exp/images/83Bi.jpeg,0,13,13,13,0,7,7,7,2094.4799153029744,None,2094.4799153029744,None,1,6.229473236016929,2094.4799153029744,None,2100.7429556289862,None,2100.7429556289862,None,2103.2458397229784,None,2103.2458397229784,None,2.1691764799761586,2105.0493962889886,None,2105.0493962889886,None,6,1,1.2019721770193428,2107.2048741999897,None,2107.2048741999897,None,2107.2048741999897,None,2108.423288621998,None,1,0.7353992540156469,2108.423288621998,None,112,2109.1753172029858,None,136,A,1,2021_May_31_1329,GazeFlow,2020.1.2,59.87258801923946,
14,Block513.xls,A,,,,,,,,,,,,,,,,,,0,13,13,13,,,,,,,,,,,,,,,,,,,,,,,,,,,,,,,,,,,,,,,,,,,,136,A,1,2021_May_31_1329,GazeFlow,2020.1.2,59.87258801923946,
15,Block514.xls,A,14,1,113,53,22,incongruent,Left,Right,Left,75,69,6,yellow,2,5,/home/docky/apps/exp/images/76Y.jpeg,/home/docky/apps/exp/images/69Yi.jpeg,0,14,14,14,0,0,0,0,2129.1828318949847,None,2129.1828318949847,None,1,7.957329744007438,2129.1828318949847,None,2137.1630031169916,None,2137.1630031169916,None,2139.6837836899795,None,2139.6837836899795,None,0.9829025540093426,2141.489141462982,None,2141.489141462982,None,5,1,1.101509547996102,2142.457088886993,None,2142.457088886993,None,2142.457088886993,None,2143.5753866099985,None,1,1.6367066269740462,2143.5753866099985,None,114,2145.2289569889836,None,136,A,1,2021_May_31_1329,GazeFlow,2020.1.2,59.87258801923946,
15,Block514.xls,A,14,2,45,45,12,congruent,Right,Right,Left,39,38,1,blue,2,5,/home/docky/apps/exp/images/39B.jpeg,/home/docky/apps/exp/images/38Bi.jpeg,0,14,14,14,0,1,1,1,2146.231174464978,None,2146.231174464978,None,1,6.413328616996296,2146.231174464978,None,2152.6776784199756,None,2152.6776784199756,None,2155.183458357991,None,2155.183458357991,None,0.783196164004039,2156.9836142119893,None,2156.9836142119893,None,5,1,1.2020061119983438,2157.753694955987,None,2157.753694955987,None,2157.753694955987,None,2158.9721402209834,None,1,0.7692775189934764,2158.9721402209834,None,116,2159.757635762973,None,136,A,1,2021_May_31_1329,GazeFlow,2020.1.2,59.87258801923946,
15,Block514.xls,A,14,3,52,52,12,congruent,Right,Right,Left,75,69,6,yellow,2,5,/home/docky/apps/exp/images/76Y.jpeg,/home/docky/apps/exp/images/69Yi.jpeg,0,14,14,14,0,2,2,2,2160.7592459739826,None,2160.7592459739826,None,1,6.763729171012528,2160.7592459739826,None,2167.5567060979956,None,2167.5567060979956,None,2170.061897988984,None,2170.061897988984,None,2.6537696970044635,2171.8636158229783,None,2171.8636158229783,None,5,1,1.0513214170059655,2174.520503381995,None,2174.520503381995,None,2174.520503381995,None,2175.587824486982,None,1,0.701626640977338,2175.587824486982,None,118,2176.3060648909886,None,136,A,1,2021_May_31_1329,GazeFlow,2020.1.2,59.87258801923946,
15,Block514.xls,A,14,4,106,46,22,incongruent,Left,Right,Left,35,33,2,yellow,2,5,/home/docky/apps/exp/images/35Yi.jpeg,/home/docky/apps/exp/images/33Y.jpeg,0,14,14,14,0,3,3,3,2177.30845949598,None,2177.30845949598,None,1,6.279278004978551,2177.30845949598,None,2183.623058196972,None,2183.623058196972,None,2186.1245933129976,None,2186.1245933129976,None,1.8187268839974422,2187.9273471509805,None,2187.9273471509805,None,5,1,1.2686934959783684,2189.732995888975,None,2189.732995888975,None,2189.732995888975,None,2191.0181971249986,None,1,0.8018885040073656,2191.0181971249986,None,120,2191.8363283659855,None,136,A,1,2021_May_31_1329,GazeFlow,2020.1.2,59.87258801923946,
15,Block514.xls,A,14,5,109,49,22,incongruent,Left,Right,Left,39,38,1,yellow,2,5,/home/docky/apps/exp/images/39Yi.jpeg,/home/docky/apps/exp/images/38Y.jpeg,0,14,14,14,0,4,4,4,2192.8389946059906,None,2192.8389946059906,None,1,6.797244543005945,2192.8389946059906,None,2199.669616631989,None,2199.669616631989,None,2202.172967305989,None,2202.172967305989,None,2.035469739988912,2203.9756187219755,None,2203.9756187219755,None,5,1,1.1348728430166375,2205.9982462969783,None,2205.9982462969783,None,2205.9982462969783,None,2207.1497983509907,None,1,0.7015695859736297,2207.1497983509907,None,122,2207.8676776489883,None,136,A,1,2021_May_31_1329,GazeFlow,2020.1.2,59.87258801923946,
15,Block514.xls,A,14,6,89,29,21,incongruent,Right,Left,Right,79,82,3,yellow,2,6,/home/docky/apps/exp/images/79Yi.jpeg,/home/docky/apps/exp/images/80Y.jpeg,0,14,14,14,0,5,5,5,2208.8703219119925,None,2208.8703219119925,None,1,8.683928812999511,2208.8703219119925,None,2217.588102984999,None,2217.588102984999,None,2220.0906107109913,None,2220.0906107109913,None,2.4701233489904553,2221.8942735129967,None,2221.8942735129967,None,6,1,1.2519308929913677,2224.367217486986,None,2224.367217486986,None,2224.367217486986,None,2225.6360597419844,None,1,0.7852524099871516,2225.6360597419844,None,124,2226.4378484499757,None,136,A,1,2021_May_31_1329,GazeFlow,2020.1.2,59.87258801923946,
15,Block514.xls,A,14,7,91,31,22,incongruent,Left,Right,Left,19,16,3,blue,2,5,/home/docky/apps/exp/images/19Bi.jpeg,/home/docky/apps/exp/images/16B.jpeg,0,14,14,14,0,6,6,6,2227.4399755479826,None,2227.4399755479826,None,1,5.561040194996167,2227.4399755479826,None,2233.0348498099775,None,2233.0348498099775,None,2235.5380220969964,None,2235.5380220969964,None,0.7832247269980144,2237.3414184249996,None,2237.3414184249996,None,5,1,1.0518989500124007,2238.111018181982,None,2238.111018181982,None,2238.111018181982,None,2239.1790666079905,None,1,0.6856512749800459,2239.1790666079905,None,126,2239.880916796974,None,136,A,1,2021_May_31_1329,GazeFlow,2020.1.2,59.87258801923946,
15,Block514.xls,A,14,8,79,19,21,incongruent,Right,Left,Right,62,65,3,yellow,2,6,/home/docky/apps/exp/images/38B.jpeg,/home/docky/apps/exp/images/35Bi.jpeg,0,14,14,14,0,7,7,7,2240.882370139996,None,2240.882370139996,None,1,6.346675722976215,2240.882370139996,None,2247.26287881998,None,2247.26287881998,None,2249.7712117919873,None,2249.7712117919873,None,2.487140040000668,2251.5689741359965,None,2251.5689741359965,None,6,1,1.019438180985162,2254.057604564994,None,2254.057604564994,None,2254.057604564994,None,2255.09356874699,None,1,0.7682970059977379,2255.09356874699,None,128,2255.8784492869745,None,136,A,1,2021_May_31_1329,GazeFlow,2020.1.2,59.87258801923946,
15,Block514.xls,A,,,,,,,,,,,,,,,,,,0,14,14,14,,,,,,,,,,,,,,,,,,,,,,,,,,,,,,,,,,,,,,,,,,,,136,A,1,2021_May_31_1329,GazeFlow,2020.1.2,59.87258801923946,
