Nblock,condsFile,grouping,Block,TrialBlock,N,trialN,trialCond,gazeCon,gazedirR,corrBinR,corrBinP,valLBY,valRBY,diff,colorCube,feedbacktext,corrAns,imageL,imageR,SelBlocks.thisRepN,SelBlocks.thisTrialN,SelBlocks.thisN,SelBlocks.thisIndex,Trials.thisRepN,Trials.thisTrialN,Trials.thisN,Trials.thisIndex,waitCube.started,waitCube.stopped,text_3.started,text_3.stopped,StartKeyPress.keys,StartKeyPress.rt,StartKeyPress.started,StartKeyPress.stopped,StimL.started,StimL.stopped,StimR.started,StimR.stopped,imageStim2L.started,imageStim2L.stopped,imageStim2R.started,imageStim2R.stopped,RTkeyRelease,imageStim3L.started,imageStim3L.stopped,imageStim3R.started,imageStim3R.stopped,dropResp.keys,dropResp.corr,dropResp.rt,dropResp.started,dropResp.stopped,imageStim5L.started,imageStim5L.stopped,imageStim5R.started,imageStim5R.stopped,text_2.started,text_2.stopped,ReturnSpace.keys,ReturnSpace.rt,ReturnSpace.started,ReturnSpace.stopped,totalpoints,textFeedback.started,textFeedback.stopped,participant,group,session,date,expName,psychopyVersion,frameRate,
1,Block809.xls,B,9,1,93,93,None,congruent,Right,Right,Left,80,79,1,yellow,2,5,/home/docky/apps/exp/images/80Y.jpeg,/home/docky/apps/exp/images/79Yi.jpeg,0,0,0,0,0,0,0,0,47.713969344011275,None,47.713969344011275,None,1,5.799699538009008,47.713969344011275,None,53.54144001900568,None,53.54144001900568,None,56.06179094300023,None,56.06179094300023,None,1.767611996998312,57.86258795802132,None,57.86258795802132,None,5,1,1.3689422699972056,59.617362955003045,None,59.617362955003045,None,59.617362955003045,None,61.00260471602087,None,1,1.186620959022548,61.00260471602087,None,2,62.20571844201186,None,137,B,1,2021_May_31_1453,GazeFlow,2020.1.2,59.85046517055436,
1,Block809.xls,B,9,2,15,15,None,congruent,Left,Left,Right,38,39,1,blue,2,6,/home/docky/apps/exp/images/38B.jpeg,/home/docky/apps/exp/images/39Bi.jpeg,0,0,0,0,0,1,1,1,63.20745465400978,None,63.20745465400978,None,1,5.6283351099991705,63.20745465400978,None,68.86901188400225,None,68.86901188400225,None,71.37777921502129,None,71.37777921502129,None,2.8375928179884795,73.175867612008,None,73.175867612008,None,5,0,2.7402580180205405,76.01479036401724,None,76.01479036401724,None,76.01479036401724,None,78.77101116999984,None,1,1.1861376599990763,78.77101116999984,None,0,79.97342260699952,None,137,B,1,2021_May_31_1453,GazeFlow,2020.1.2,59.85046517055436,
1,Block809.xls,B,9,3,117,21,None,incongruent,Left,Right,Left,39,38,1,yellow,2,5,/home/docky/apps/exp/images/39Yi.jpeg,/home/docky/apps/exp/images/38Y.jpeg,0,0,0,0,0,2,2,2,80.97533430100884,None,80.97533430100884,None,1,6.162208927999018,80.97533430100884,None,87.17279761901591,None,87.17279761901591,None,89.67617257501115,None,89.67617257501115,None,1.7182874940044712,91.47808406502008,None,91.47808406502008,None,6,0,1.9362884900183417,93.18259574600961,None,93.18259574600961,None,93.18259574600961,None,95.13556975399842,None,1,0.9856995889858808,95.13556975399842,None,-2,96.1377810210106,None,137,B,1,2021_May_31_1453,GazeFlow,2020.1.2,59.85046517055436,
1,Block809.xls,B,9,4,94,94,None,congruent,Right,Right,Left,80,79,1,yellow,2,5,/home/docky/apps/exp/images/80Y.jpeg,/home/docky/apps/exp/images/79Yi.jpeg,0,0,0,0,0,3,3,3,97.14018367399694,None,97.14018367399694,None,1,5.660939841007348,97.14018367399694,None,102.834975492995,None,102.834975492995,None,105.33805102901533,None,105.33805102901533,None,2.1191862899868283,107.14163467800245,None,107.14163467800245,None,5,1,1.7197269549942575,109.2470028079988,None,109.2470028079988,None,109.2470028079988,None,110.98315971999546,None,1,1.0364761679957155,110.98315971999546,None,0,112.03575510901283,None,137,B,1,2021_May_31_1453,GazeFlow,2020.1.2,59.85046517055436,
1,Block809.xls,B,9,5,41,41,None,congruent,Right,Right,Left,79,76,3,blue,2,5,/home/docky/apps/exp/images/79Bi.jpeg,/home/docky/apps/exp/images/76B.jpeg,0,0,0,0,0,4,4,4,113.03776437300257,None,113.03776437300257,None,1,6.2123578239989,113.03776437300257,None,119.28382235899335,None,119.28382235899335,None,121.78864999601501,None,121.78864999601501,None,2.2192000020004343,123.59258737901109,None,123.59258737901109,None,5,1,1.986765490990365,125.79616725500091,None,125.79616725500091,None,125.79616725500091,None,127.79905395201058,None,1,0.8192634589795489,127.79905395201058,None,2,128.6346698590205,None,137,B,1,2021_May_31_1453,GazeFlow,2020.1.2,59.85046517055436,
1,Block809.xls,B,9,6,36,36,None,congruent,Right,Right,Left,79,73,6,blue,2,5,/home/docky/apps/exp/images/79Bi.jpeg,/home/docky/apps/exp/images/73B.jpeg,0,0,0,0,0,5,5,5,129.6366695490142,None,129.6366695490142,None,1,6.3297122929943725,129.6366695490142,None,135.99959247300285,None,135.99959247300285,None,138.50264720700216,None,138.50264720700216,None,1.467604734993074,140.30669199701515,None,140.30669199701515,None,5,1,1.786647961998824,141.76034722299664,None,141.76034722299664,None,141.76034722299664,None,143.56328227100312,None,1,1.2696114520076662,143.56328227100312,None,4,144.84955854600412,None,137,B,1,2021_May_31_1453,GazeFlow,2020.1.2,59.85046517055436,
1,Block809.xls,B,9,7,78,78,None,congruent,Right,Right,Left,39,38,1,yellow,2,5,/home/docky/apps/exp/images/39Yi.jpeg,/home/docky/apps/exp/images/38Y.jpeg,0,0,0,0,0,6,6,6,145.85155933900387,None,145.85155933900387,None,1,6.796847346005961,145.85155933900387,None,152.6804773840122,None,152.6804773840122,None,155.18521445599617,None,155.18521445599617,None,1.8519483229902107,156.98913679501857,None,156.98913679501857,None,5,1,2.0871653920039535,158.82695252500707,None,158.82695252500707,None,158.82695252500707,None,160.9304937100096,None,1,1.1027362550084945,160.9304937100096,None,6,162.0499119720189,None,137,B,1,2021_May_31_1453,GazeFlow,2020.1.2,59.85046517055436,
1,Block809.xls,B,9,8,29,29,None,congruent,Right,Right,Left,38,35,3,blue,2,5,/home/docky/apps/exp/images/38B.jpeg,/home/docky/apps/exp/images/35Bi.jpeg,0,0,0,0,0,7,7,7,163.0516791450209,None,163.0516791450209,None,1,6.396391192014562,163.0516791450209,None,169.48157265401096,None,169.48157265401096,None,171.98608069401234,None,171.98608069401234,None,1.4008481259807013,173.78252981501282,None,173.78252981501282,None,5,1,1.719452786986949,175.1753824170155,None,175.1753824170155,None,175.1753824170155,None,176.91165593199548,None,1,1.0349727009888738,176.91165593199548,None,8,177.9635092249955,None,137,B,1,2021_May_31_1453,GazeFlow,2020.1.2,59.85046517055436,
1,Block809.xls,B,,,,,,,,,,,,,,,,,,0,0,0,0,,,,,,,,,,,,,,,,,,,,,,,,,,,,,,,,,,,,,,,,,,,,137,B,1,2021_May_31_1453,GazeFlow,2020.1.2,59.85046517055436,
2,Block805.xls,B,5,1,16,16,None,congruent,Left,Left,Right,73,76,3,blue,2,6,/home/docky/apps/exp/images/73B.jpeg,/home/docky/apps/exp/images/76Bi.jpeg,0,1,1,1,0,0,0,0,198.5057646050118,None,198.5057646050118,None,1,8.173891051992541,198.5057646050118,None,206.704240460007,None,206.704240460007,None,209.22559068299597,None,209.22559068299597,None,1.1493897369946353,211.02906535600778,None,211.02906535600778,None,6,1,2.1036055579897948,212.1639524580096,None,212.1639524580096,None,212.1639524580096,None,214.28427324802033,None,1,0.9352549010072835,214.28427324802033,None,10,215.2362504969933,None,137,B,1,2021_May_31_1453,GazeFlow,2020.1.2,59.85046517055436,
2,Block805.xls,B,5,2,2,2,None,congruent,Left,Left,Right,16,19,3,blue,2,6,/home/docky/apps/exp/images/16B.jpeg,/home/docky/apps/exp/images/19Bi.jpeg,0,1,1,1,0,1,1,1,216.2385715720011,None,216.2385715720011,None,1,6.228911456011701,216.2385715720011,None,222.50141145201633,None,222.50141145201633,None,225.00437298201723,None,225.00437298201723,None,1.7015712360152975,226.80262817500625,None,226.80262817500625,None,6,1,1.3521229150064755,228.49592825799482,None,228.49592825799482,None,228.49592825799482,None,229.864733918017,None,1,1.4692461419908796,229.864733918017,None,12,231.35131634501158,None,137,B,1,2021_May_31_1453,GazeFlow,2020.1.2,59.85046517055436,
2,Block805.xls,B,5,3,64,64,None,congruent,Left,Left,Right,69,76,7,yellow,2,6,/home/docky/apps/exp/images/69Y.jpeg,/home/docky/apps/exp/images/76Yi.jpeg,0,1,1,1,0,2,2,2,232.3531056010106,None,232.3531056010106,None,1,5.961748367990367,232.3531056010106,None,238.34887491201516,None,238.34887491201516,None,240.8537088650046,None,240.8537088650046,None,1.9353367039875593,242.65562768600648,None,242.65562768600648,None,6,1,1.5860264800139703,244.57716562302085,None,244.57716562302085,None,244.57716562302085,None,246.17963523700018,None,1,0.9688985869870521,246.17963523700018,None,14,247.16505680899718,None,137,B,1,2021_May_31_1453,GazeFlow,2020.1.2,59.85046517055436,
2,Block805.xls,B,5,4,61,61,None,congruent,Left,Left,Right,38,39,1,yellow,2,6,/home/docky/apps/exp/images/38Yi.jpeg,/home/docky/apps/exp/images/39Y.jpeg,0,1,1,1,0,3,3,3,248.16716007201467,None,248.16716007201467,None,1,7.331409051024821,248.16716007201467,None,255.53054175601574,None,255.53054175601574,None,258.03706740401685,None,258.03706740401685,None,1.5675408400129527,259.83373028301867,None,259.83373028301867,None,6,1,1.7027578499983065,261.3932610290067,None,261.3932610290067,None,261.3932610290067,None,263.1126335200097,None,1,1.0858772229985334,263.1126335200097,None,16,264.2147889450134,None,137,B,1,2021_May_31_1453,GazeFlow,2020.1.2,59.85046517055436,
2,Block805.xls,B,5,5,23,23,None,congruent,Left,Left,Right,80,83,3,blue,2,6,/home/docky/apps/exp/images/80B.jpeg,/home/docky/apps/exp/images/83Bi.jpeg,0,1,1,1,0,4,4,4,265.2171538610128,None,265.2171538610128,None,1,7.031044616975123,265.2171538610128,None,272.28110799301066,None,272.28110799301066,None,274.78504889199394,None,274.78504889199394,None,1.8009480859909672,276.59240350301843,None,276.59240350301843,None,6,1,1.385711293987697,278.37607979102177,None,278.37607979102177,None,278.37607979102177,None,279.7784081530117,None,1,1.1021971209847834,279.7784081530117,None,18,280.8974774160015,None,137,B,1,2021_May_31_1453,GazeFlow,2020.1.2,59.85046517055436,
2,Block805.xls,B,5,6,87,87,None,congruent,Right,Right,Left,76,69,7,yellow,2,5,/home/docky/apps/exp/images/76Yi.jpeg,/home/docky/apps/exp/images/69Y.jpeg,0,1,1,1,0,5,5,5,281.8996675760136,None,281.8996675760136,None,1,6.095941606996348,281.8996675760136,None,288.02902029501274,None,288.02902029501274,None,290.5366865910182,None,290.5366865910182,None,1.4509902079880703,292.3372230490204,None,292.3372230490204,None,5,1,1.4030191260098945,293.7731404810038,None,293.7731404810038,None,293.7731404810038,None,295.19195490400307,None,1,1.2688449059787672,295.19195490400307,None,20,296.4777008969977,None,137,B,1,2021_May_31_1453,GazeFlow,2020.1.2,59.85046517055436,
2,Block805.xls,B,5,7,4,4,None,congruent,Left,Left,Right,35,38,3,blue,2,6,/home/docky/apps/exp/images/35B.jpeg,/home/docky/apps/exp/images/38Bi.jpeg,0,1,1,1,0,6,6,6,297.480035621993,None,297.480035621993,None,1,6.94742169600795,297.480035621993,None,304.4604032789939,None,304.4604032789939,None,306.9641465320019,None,306.9641465320019,None,2.5200363920012023,308.7619036010001,None,308.7619036010001,None,6,1,2.6401931820146274,311.28858536301414,None,311.28858536301414,None,311.28858536301414,None,313.9453538689995,None,1,0.9017682599951513,313.9453538689995,None,22,314.86376676001237,None,137,B,1,2021_May_31_1453,GazeFlow,2020.1.2,59.85046517055436,
2,Block805.xls,B,5,8,114,18,None,incongruent,Right,Left,Right,79,82,3,yellow,2,6,/home/docky/apps/exp/images/79Y.jpeg,/home/docky/apps/exp/images/80Yi.jpeg,0,1,1,1,0,7,7,7,315.86585169201135,None,315.86585169201135,None,1,6.696458245016402,315.86585169201135,None,322.5964581849985,None,322.5964581849985,None,325.1010149370122,None,325.1010149370122,None,1.6346927770064212,326.89809076700476,None,326.89809076700476,None,6,1,1.953396947006695,328.5236842340091,None,328.5236842340091,None,328.5236842340091,None,330.49378137500025,None,1,0.8183187620015815,330.49378137500025,None,24,331.32869456801564,None,137,B,1,2021_May_31_1453,GazeFlow,2020.1.2,59.85046517055436,
2,Block805.xls,B,,,,,,,,,,,,,,,,,,0,1,1,1,,,,,,,,,,,,,,,,,,,,,,,,,,,,,,,,,,,,,,,,,,,,137,B,1,2021_May_31_1453,GazeFlow,2020.1.2,59.85046517055436,
3,Block804.xls,B,4,1,95,95,None,congruent,Right,Right,Left,80,79,1,yellow,2,5,/home/docky/apps/exp/images/80Yi.jpeg,/home/docky/apps/exp/images/79Y.jpeg,0,2,2,2,0,0,0,0,353.7745568540122,None,353.7745568540122,None,1,9.17101228798856,353.7745568540122,None,362.9783847250219,None,362.9783847250219,None,365.4960917250137,None,365.4960917250137,None,2.619945220008958,367.2996297570062,None,367.2996297570062,None,5,1,1.802837910974631,369.92152369601536,None,369.92152369601536,None,369.92152369601536,None,371.7407445270219,None,1,0.7857005959958769,371.7407445270219,None,26,372.54272935100016,None,137,B,1,2021_May_31_1453,GazeFlow,2020.1.2,59.85046517055436,
3,Block804.xls,B,4,2,107,11,None,incongruent,Left,Right,Left,83,80,3,blue,2,5,/home/docky/apps/exp/images/83Bi.jpeg,/home/docky/apps/exp/images/80B.jpeg,0,2,2,2,0,1,1,1,373.54476119499304,None,373.54476119499304,None,1,6.730445038003381,373.54476119499304,None,380.3092990239966,None,380.3092990239966,None,382.81294643,None,382.81294643,None,1.734637893998297,384.61478198401164,None,384.61478198401164,None,5,1,1.3357043900177814,386.33592459201463,None,386.33592459201463,None,386.33592459201463,None,387.68825181401917,None,1,0.7849070899828803,387.68825181401917,None,28,388.48954793499433,None,137,B,1,2021_May_31_1453,GazeFlow,2020.1.2,59.85046517055436,
3,Block804.xls,B,4,3,27,27,None,congruent,Right,Right,Left,19,16,3,blue,2,5,/home/docky/apps/exp/images/19Bi.jpeg,/home/docky/apps/exp/images/16B.jpeg,0,2,2,2,0,2,2,2,389.4919955590158,None,389.4919955590158,None,1,7.064190499018878,389.4919955590158,None,396.5896433799935,None,396.5896433799935,None,399.09276867701556,None,399.09276867701556,None,2.1355782489990816,400.890312892996,None,400.890312892996,None,5,1,1.5525541930110194,403.0179662120063,None,403.0179662120063,None,403.0179662120063,None,404.587244808994,None,1,0.8351757059863303,404.587244808994,None,30,405.4391213930212,None,137,B,1,2021_May_31_1453,GazeFlow,2020.1.2,59.85046517055436,
3,Block804.xls,B,4,4,101,5,None,incongruent,Right,Left,Right,76,79,3,blue,2,6,/home/docky/apps/exp/images/76B.jpeg,/home/docky/apps/exp/images/79Bi.jpeg,0,2,2,2,0,3,3,3,406.4410703419999,None,406.4410703419999,None,1,6.095113296993077,406.4410703419999,None,412.57489345700014,None,412.57489345700014,None,415.07503620901844,None,415.07503620901844,None,1.4176885630004108,416.8712376950134,None,416.8712376950134,None,6,1,1.3360239020257723,418.28079377501854,None,418.28079377501854,None,418.28079377501854,None,419.63304330201936,None,1,0.884716582018882,419.63304330201936,None,32,420.53442428499693,None,137,B,1,2021_May_31_1453,GazeFlow,2020.1.2,59.85046517055436,
3,Block804.xls,B,4,5,47,47,None,congruent,Right,Right,Left,39,38,1,blue,2,5,/home/docky/apps/exp/images/39Bi.jpeg,/home/docky/apps/exp/images/38B.jpeg,0,2,2,2,0,4,4,4,421.53675802701036,None,421.53675802701036,None,1,5.844886301987572,421.53675802701036,None,427.4151581140177,None,427.4151581140177,None,429.91995820301236,None,429.91995820301236,None,1.534553136996692,431.72126630399725,None,431.72126630399725,None,5,1,1.7193047670007218,433.2428181290161,None,433.2428181290161,None,433.2428181290161,None,434.9787278120057,None,1,0.8519510289770551,434.9787278120057,None,34,435.8471458319982,None,137,B,1,2021_May_31_1453,GazeFlow,2020.1.2,59.85046517055436,
3,Block804.xls,B,4,6,90,90,None,congruent,Right,Right,Left,77,72,5,yellow,2,5,/home/docky/apps/exp/images/77Yi.jpeg,/home/docky/apps/exp/images/72Y.jpeg,0,2,2,2,0,5,5,5,436.8495602559997,None,436.8495602559997,None,1,7.949258779000957,436.8495602559997,None,444.8347190240165,None,444.8347190240165,None,447.3354938880075,None,447.3354938880075,None,1.5340875209949445,449.14058131200727,None,449.14058131200727,None,5,1,1.6195382659789175,450.65926538201165,None,450.65926538201165,None,450.65926538201165,None,452.2956012620125,None,1,0.8518638430105057,452.2956012620125,None,36,453.16385413499665,None,137,B,1,2021_May_31_1453,GazeFlow,2020.1.2,59.85046517055436,
3,Block804.xls,B,4,7,12,12,None,congruent,Left,Left,Right,38,39,1,blue,2,6,/home/docky/apps/exp/images/38B.jpeg,/home/docky/apps/exp/images/39Bi.jpeg,0,2,2,2,0,6,6,6,454.16610695101554,None,454.16610695101554,None,1,7.147706202988047,454.16610695101554,None,461.34718409599736,None,461.34718409599736,None,463.8503389329999,None,463.8503389329999,None,1.5011549679911695,465.6532597350015,None,465.6532597350015,None,5,0,1.7192857199988794,467.1412524500047,None,467.1412524500047,None,467.1412524500047,None,468.8775393520191,None,1,1.051806620991556,468.8775393520191,None,34,469.9458937330055,None,137,B,1,2021_May_31_1453,GazeFlow,2020.1.2,59.85046517055436,
3,Block804.xls,B,4,8,20,20,None,congruent,Left,Left,Right,76,79,3,blue,2,6,/home/docky/apps/exp/images/76Bi.jpeg,/home/docky/apps/exp/images/79B.jpeg,0,2,2,2,0,7,7,7,470.9483216929948,None,470.9483216929948,None,1,7.43167831399478,470.9483216929948,None,478.41311666101683,None,478.41311666101683,None,480.91644140699646,None,480.91644140699646,None,1.4175751190050505,482.7201740730088,None,482.7201740730088,None,6,1,1.7527925989998039,484.123853882018,None,484.123853882018,None,484.123853882018,None,485.8934973269934,None,1,0.8516446970170364,485.8934973269934,None,36,486.76227380300406,None,137,B,1,2021_May_31_1453,GazeFlow,2020.1.2,59.85046517055436,
3,Block804.xls,B,,,,,,,,,,,,,,,,,,0,2,2,2,,,,,,,,,,,,,,,,,,,,,,,,,,,,,,,,,,,,,,,,,,,,137,B,1,2021_May_31_1453,GazeFlow,2020.1.2,59.85046517055436,
4,Block814.xls,B,14,1,99,3,None,incongruent,Right,Left,Right,65,66,1,blue,2,6,/home/docky/apps/exp/images/35Yi.jpeg,/home/docky/apps/exp/images/66B.jpeg,0,3,3,3,0,0,0,0,508.87123659902136,None,508.87123659902136,None,1,8.306449716008501,508.87123659902136,None,517.2049117420102,None,517.2049117420102,None,519.724523219018,None,519.724523219018,None,1.417308675008826,521.5280939840013,None,521.5280939840013,None,5,0,2.0869335460010916,522.9317992950091,None,522.9317992950091,None,522.9317992950091,None,525.0352495550178,None,1,1.2528434550040402,525.0352495550178,None,34,526.3046213840134,None,137,B,1,2021_May_31_1453,GazeFlow,2020.1.2,59.85046517055436,
4,Block814.xls,B,14,2,34,34,None,congruent,Right,Right,Left,66,65,1,blue,2,5,/home/docky/apps/exp/images/66B.jpeg,/home/docky/apps/exp/images/35Yi.jpeg,0,3,3,3,0,1,1,1,527.306696789019,None,527.306696789019,None,1,6.279100775980623,527.306696789019,None,533.6194163820182,None,533.6194163820182,None,536.124065267999,None,536.124065267999,None,1.9689913970069028,537.9206465470197,None,537.9206465470197,None,6,0,2.020439770014491,539.8809627800074,None,539.8809627800074,None,539.8809627800074,None,541.9176373220107,None,1,0.8694596470159013,541.9176373220107,None,32,542.8029246930091,None,137,B,1,2021_May_31_1453,GazeFlow,2020.1.2,59.85046517055436,
4,Block814.xls,B,14,3,91,91,None,congruent,Right,Right,Left,77,72,5,yellow,2,5,/home/docky/apps/exp/images/77Yi.jpeg,/home/docky/apps/exp/images/72Y.jpeg,0,3,3,3,0,2,2,2,543.8050587280013,None,543.8050587280013,None,1,6.0452831689908635,543.8050587280013,None,549.8844202280161,None,549.8844202280161,None,552.3887862850097,None,552.3887862850097,None,1.317552419990534,554.1907817890169,None,554.1907817890169,None,5,1,1.4355794209986925,555.494345804007,None,555.494345804007,None,555.494345804007,None,556.9467199430219,None,1,0.834942464978667,556.9467199430219,None,34,557.7982792459952,None,137,B,1,2021_May_31_1453,GazeFlow,2020.1.2,59.85046517055436,
4,Block814.xls,B,14,4,68,68,None,congruent,Left,Left,Right,72,77,5,yellow,2,6,/home/docky/apps/exp/images/72Yi.jpeg,/home/docky/apps/exp/images/77Y.jpeg,0,3,3,3,0,3,3,3,558.8005883909937,None,558.8005883909937,None,1,6.91363237000769,558.8005883909937,None,565.7489251999941,None,565.7489251999941,None,568.252757454,None,568.252757454,None,1.9350587789958809,570.0546891410195,None,570.0546891410195,None,6,1,1.619291960989358,571.9762042140064,None,571.9762042140064,None,571.9762042140064,None,573.6121745060082,None,1,0.8347405829990748,573.6121745060082,None,36,574.4637114450161,None,137,B,1,2021_May_31_1453,GazeFlow,2020.1.2,59.85046517055436,
4,Block814.xls,B,14,5,66,66,None,congruent,Left,Left,Right,69,76,7,yellow,2,6,/home/docky/apps/exp/images/69Yi.jpeg,/home/docky/apps/exp/images/76Y.jpeg,0,3,3,3,0,4,4,4,575.4660928170197,None,575.4660928170197,None,1,7.598374659020919,575.4660928170197,None,583.0986257159966,None,583.0986257159966,None,585.6014796630188,None,585.6014796630188,None,1.1504952000104822,587.4045724839962,None,587.4045724839962,None,6,1,1.8198450400086585,588.5414835870033,None,588.5414835870033,None,588.5414835870033,None,590.377483239019,None,1,0.8185012379835825,590.377483239019,None,38,591.2126046119956,None,137,B,1,2021_May_31_1453,GazeFlow,2020.1.2,59.85046517055436,
4,Block814.xls,B,14,6,115,19,None,incongruent,Left,Right,Left,80,79,1,yellow,2,5,/home/docky/apps/exp/images/80Yi.jpeg,/home/docky/apps/exp/images/79Y.jpeg,0,3,3,3,0,5,5,5,592.214955183008,None,592.214955183008,None,1,7.097612562996801,592.214955183008,None,599.3468829400081,None,599.3468829400081,None,601.850599774014,None,601.850599774014,None,2.035609150014352,603.6527349410171,None,603.6527349410171,None,5,1,1.853351865982404,605.6746089600201,None,605.6746089600201,None,605.6746089600201,None,607.543856208009,None,1,0.8025895399914589,607.543856208009,None,40,608.3627024530142,None,137,B,1,2021_May_31_1453,GazeFlow,2020.1.2,59.85046517055436,
4,Block814.xls,B,14,7,9,9,None,congruent,Left,Left,Right,65,66,1,blue,2,6,/home/docky/apps/exp/images/35Yi.jpeg,/home/docky/apps/exp/images/66B.jpeg,0,3,3,3,0,6,6,6,609.3645549830107,None,609.3645549830107,None,1,9.001503925013822,609.3645549830107,None,618.3992648590065,None,618.3992648590065,None,620.9040993450035,None,620.9040993450035,None,1.5331213000172284,622.7078466480016,None,622.7078466480016,None,6,1,3.1223084710072726,624.2269507580204,None,624.2269507580204,None,624.2269507580204,None,627.3655979979958,None,1,0.8187744009774178,627.3655979979958,None,42,628.2010906500218,None,137,B,1,2021_May_31_1453,GazeFlow,2020.1.2,59.85046517055436,
4,Block814.xls,B,14,8,14,14,None,congruent,Left,Left,Right,38,39,1,blue,2,6,/home/docky/apps/exp/images/38Bi.jpeg,/home/docky/apps/exp/images/39B.jpeg,0,3,3,3,0,7,7,7,629.2029786750209,None,629.2029786750209,None,1,6.946928104996914,629.2029786750209,None,636.1823123180075,None,636.1823123180075,None,638.68671111,None,638.68671111,None,1.9181537730037235,640.490459780005,None,640.490459780005,None,6,1,1.702864277001936,642.3951870710007,None,642.3951870710007,None,642.3951870710007,None,644.1145470110059,None,1,0.801779900008114,644.1145470110059,None,44,644.9327617780073,None,137,B,1,2021_May_31_1453,GazeFlow,2020.1.2,59.85046517055436,
4,Block814.xls,B,,,,,,,,,,,,,,,,,,0,3,3,3,,,,,,,,,,,,,,,,,,,,,,,,,,,,,,,,,,,,,,,,,,,,137,B,1,2021_May_31_1453,GazeFlow,2020.1.2,59.85046517055436,
5,Block812.xls,B,12,1,18,18,None,congruent,Left,Left,Right,73,76,3,blue,2,6,/home/docky/apps/exp/images/73B.jpeg,/home/docky/apps/exp/images/76Bi.jpeg,0,4,4,4,0,0,0,0,684.7601523089979,None,684.7601523089979,None,1,9.660519391007256,684.7601523089979,None,694.4535933590087,None,694.4535933590087,None,696.9674790040008,None,696.9674790040008,None,1.383450705994619,698.7650522400218,None,698.7650522400218,None,6,1,1.8367801500135101,700.1396516610112,None,700.1396516610112,None,700.1396516610112,None,701.9928302800108,None,1,0.7350933259876911,701.9928302800108,None,46,702.7443795480067,None,137,B,1,2021_May_31_1453,GazeFlow,2020.1.2,59.85046517055436,
5,Block812.xls,B,12,2,3,3,None,congruent,Left,Left,Right,16,19,3,blue,2,6,/home/docky/apps/exp/images/16Bi.jpeg,/home/docky/apps/exp/images/19B.jpeg,0,4,4,4,0,1,1,1,703.7467275939998,None,703.7467275939998,None,1,6.396763971977634,703.7467275939998,None,710.1767150700034,None,710.1767150700034,None,712.6811369110073,None,712.6811369110073,None,1.518053047999274,714.4829834109987,None,714.4829834109987,None,6,1,1.7865236600046046,715.9872107389965,None,715.9872107389965,None,715.9872107389965,None,717.7900250950188,None,1,1.3866464819875546,717.7900250950188,None,48,719.1932308700052,None,137,B,1,2021_May_31_1453,GazeFlow,2020.1.2,59.85046517055436,
5,Block812.xls,B,12,3,56,56,None,congruent,Left,Left,Right,62,65,3,yellow,2,6,/home/docky/apps/exp/images/38Bi.jpeg,/home/docky/apps/exp/images/35B.jpeg,0,4,4,4,0,2,2,2,720.1952033810085,None,720.1952033810085,None,1,5.244000431994209,720.1952033810085,None,725.4726452759933,None,725.4726452759933,None,727.9757936030219,None,727.9757936030219,None,1.517603954009246,729.7744412129978,None,729.7744412129978,None,6,1,1.8197940700047184,731.2831529090181,None,731.2831529090181,None,731.2831529090181,None,733.1197101740108,None,1,0.7849234350142069,733.1197101740108,None,50,733.9212994030095,None,137,B,1,2021_May_31_1453,GazeFlow,2020.1.2,59.85046517055436,
5,Block812.xls,B,12,4,11,11,None,congruent,Left,Left,Right,38,39,1,blue,2,6,/home/docky/apps/exp/images/38B.jpeg,/home/docky/apps/exp/images/39Bi.jpeg,0,4,4,4,0,3,3,3,734.9235546360142,None,734.9235546360142,None,1,6.663609932002146,734.9235546360142,None,741.6205043450173,None,741.6205043450173,None,744.1231921350118,None,744.1231921350118,None,1.4007573949929792,745.9216909680108,None,745.9216909680108,None,5,0,1.7528617659991141,747.3143223430088,None,747.3143223430088,None,747.3143223430088,None,749.0835942490085,None,1,0.8523016580147669,749.0835942490085,None,48,749.9530176590197,None,137,B,1,2021_May_31_1453,GazeFlow,2020.1.2,59.85046517055436,
5,Block812.xls,B,12,5,116,20,None,incongruent,Left,Right,Left,35,33,2,yellow,2,5,/home/docky/apps/exp/images/35Yi.jpeg,/home/docky/apps/exp/images/33Y.jpeg,0,4,4,4,0,4,4,4,750.9543089520012,None,750.9543089520012,None,1,6.245921271998668,750.9543089520012,None,757.2340003460122,None,757.2340003460122,None,759.7372433050186,None,759.7372433050186,None,1.5683909909857903,761.5406368279946,None,761.5406368279946,None,6,0,1.60286848701071,763.0948377799941,None,763.0948377799941,None,763.0948377799941,None,764.7139945560193,None,1,0.8521086890250444,764.7139945560193,None,46,765.5822742420132,None,137,B,1,2021_May_31_1453,GazeFlow,2020.1.2,59.85046517055436,
5,Block812.xls,B,12,6,40,40,None,congruent,Right,Right,Left,79,76,3,blue,2,5,/home/docky/apps/exp/images/79Bi.jpeg,/home/docky/apps/exp/images/76B.jpeg,0,4,4,4,0,5,5,5,766.584747528017,None,766.584747528017,None,1,6.345868722011801,766.584747528017,None,772.964427310013,None,772.964427310013,None,775.4669880580041,None,775.4669880580041,None,1.4677863300021272,777.2707480450044,None,777.2707480450044,None,5,1,1.5190350119955838,778.7250861600041,None,778.7250861600041,None,778.7250861600041,None,780.260765029001,None,1,0.6012379990133923,780.260765029001,None,48,780.8786326319969,None,137,B,1,2021_May_31_1453,GazeFlow,2020.1.2,59.85046517055436,
5,Block812.xls,B,12,7,76,76,None,congruent,Right,Right,Left,39,38,1,yellow,2,5,/home/docky/apps/exp/images/39Yi.jpeg,/home/docky/apps/exp/images/38Y.jpeg,0,4,4,4,0,6,6,6,781.8809323949972,None,781.8809323949972,None,1,5.527646419999655,781.8809323949972,None,787.4421169620182,None,787.4421169620182,None,789.9469945949968,None,789.9469945949968,None,1.1172799060004763,791.7491181429941,None,791.7491181429941,None,5,1,1.4199781479837839,792.8523062540044,None,792.8523062540044,None,792.8523062540044,None,794.288333125005,None,1,0.5841290790122002,794.288333125005,None,50,794.8888706750004,None,137,B,1,2021_May_31_1453,GazeFlow,2020.1.2,59.85046517055436,
5,Block812.xls,B,12,8,77,77,None,congruent,Right,Right,Left,39,38,1,yellow,2,5,/home/docky/apps/exp/images/39Y.jpeg,/home/docky/apps/exp/images/38Yi.jpeg,0,4,4,4,0,7,7,7,795.890887874004,None,795.890887874004,None,1,6.029085309011862,795.890887874004,None,801.9540359009989,None,801.9540359009989,None,804.4600836099999,None,804.4600836099999,None,1.0836387970193755,806.2601899889996,None,806.2601899889996,None,5,1,1.3025601740228012,807.3302639269968,None,807.3302639269968,None,807.3302639269968,None,808.6495238710195,None,1,0.6005125530064106,808.6495238710195,None,52,809.2667247640202,None,137,B,1,2021_May_31_1453,GazeFlow,2020.1.2,59.85046517055436,
5,Block812.xls,B,,,,,,,,,,,,,,,,,,0,4,4,4,,,,,,,,,,,,,,,,,,,,,,,,,,,,,,,,,,,,,,,,,,,,137,B,1,2021_May_31_1453,GazeFlow,2020.1.2,59.85046517055436,
6,Block803.xls,B,3,1,84,84,None,congruent,Right,Right,Left,75,69,6,yellow,2,5,/home/docky/apps/exp/images/76Yi.jpeg,/home/docky/apps/exp/images/69Y.jpeg,0,5,5,5,0,0,0,0,835.2365973670094,None,835.2365973670094,None,1,7.437738781009102,835.2365973670094,None,842.6965775559947,None,842.6965775559947,None,845.2209949740209,None,845.2209949740209,None,1.1329753159952816,847.0245128310053,None,847.0245128310053,None,5,1,1.452480926993303,848.142551944009,None,848.142551944009,None,848.142551944009,None,849.6113959659997,None,1,0.7015249709947966,849.6113959659997,None,54,850.3296042210131,None,137,B,1,2021_May_31_1453,GazeFlow,2020.1.2,59.85046517055436,
6,Block803.xls,B,3,2,82,82,None,congruent,Right,Right,Left,66,65,1,yellow,2,5,/home/docky/apps/exp/images/66Y.jpeg,/home/docky/apps/exp/images/35Bi.jpeg,0,5,5,5,0,1,1,1,851.3318703240075,None,851.3318703240075,None,1,5.844793996016961,851.3318703240075,None,857.2102966679959,None,857.2102966679959,None,859.7153978220013,None,859.7153978220013,None,1.5012071250239387,861.5172412460088,None,861.5172412460088,None,5,1,1.4192684409790672,863.0046346140152,None,863.0046346140152,None,863.0046346140152,None,864.4399488070048,None,1,0.6516224100196268,864.4399488070048,None,56,865.1082758410193,None,137,B,1,2021_May_31_1453,GazeFlow,2020.1.2,59.85046517055436,
6,Block803.xls,B,3,3,80,80,None,congruent,Right,Right,Left,66,65,1,yellow,2,5,/home/docky/apps/exp/images/66Yi.jpeg,/home/docky/apps/exp/images/35B.jpeg,0,5,5,5,0,2,2,2,866.1104855340091,None,866.1104855340091,None,1,2.121400909003569,866.1104855340091,None,868.2651714060048,None,868.2651714060048,None,870.7680049189948,None,870.7680049189948,None,3.6888723929878324,872.5739176800125,None,872.5739176800125,None,6,0,3.0052266679995228,876.2642830290133,None,876.2642830290133,None,876.2642830290133,None,879.2859397550055,None,1,0.6514759139972739,879.2859397550055,None,54,879.9539340280171,None,137,B,1,2021_May_31_1453,GazeFlow,2020.1.2,59.85046517055436,
6,Block803.xls,B,3,4,79,79,None,congruent,Right,Right,Left,66,65,1,yellow,2,5,/home/docky/apps/exp/images/66Y.jpeg,/home/docky/apps/exp/images/35Bi.jpeg,0,5,5,5,0,3,3,3,880.9559831700171,None,880.9559831700171,None,1,5.861903589015128,880.9559831700171,None,886.849965469999,None,886.849965469999,None,889.3541519769933,None,889.3541519769933,None,1.3841193609987386,891.1579859070189,None,891.1579859070189,None,6,0,1.2527193040004931,892.5281926339958,None,892.5281926339958,None,892.5281926339958,None,893.797444980999,None,1,0.7176482249924447,893.797444980999,None,52,894.5312928810017,None,137,B,1,2021_May_31_1453,GazeFlow,2020.1.2,59.85046517055436,
6,Block803.xls,B,3,5,92,92,None,congruent,Right,Right,Left,77,72,5,yellow,2,5,/home/docky/apps/exp/images/77Y.jpeg,/home/docky/apps/exp/images/72Yi.jpeg,0,5,5,5,0,4,4,4,895.5342769620183,None,895.5342769620183,None,1,7.497935599996708,895.5342769620183,None,903.0642039780214,None,903.0642039780214,None,905.5767697080155,None,905.5767697080155,None,1.6514841789903585,907.3720364820038,None,907.3720364820038,None,5,1,1.585927730979165,909.0103162860032,None,909.0103162860032,None,909.0103162860032,None,910.6126206250046,None,1,0.6682002530142199,910.6126206250046,None,54,911.297450226004,None,137,B,1,2021_May_31_1453,GazeFlow,2020.1.2,59.85046517055436,
6,Block803.xls,B,3,6,106,10,None,incongruent,Left,Right,Left,79,76,3,blue,2,5,/home/docky/apps/exp/images/79Bi.jpeg,/home/docky/apps/exp/images/76B.jpeg,0,5,5,5,0,5,5,5,912.2998940219986,None,912.2998940219986,None,1,5.944936749001499,912.2998940219986,None,918.2787839609955,None,918.2787839609955,None,920.783584423014,None,920.783584423014,None,1.4674538990075234,922.5871575229976,None,922.5871575229976,None,5,1,1.5191009769914672,924.0394394260074,None,924.0394394260074,None,924.0394394260074,None,925.5749885140103,None,1,0.7515932589885779,925.5749885140103,None,56,926.3433173560188,None,137,B,1,2021_May_31_1453,GazeFlow,2020.1.2,59.85046517055436,
6,Block803.xls,B,3,7,25,25,None,congruent,Right,Right,Left,19,16,3,blue,2,5,/home/docky/apps/exp/images/19Bi.jpeg,/home/docky/apps/exp/images/16B.jpeg,0,5,5,5,0,6,6,6,927.3456683300028,None,927.3456683300028,None,1,6.713557548995595,927.3456683300028,None,934.0926980780205,None,934.0926980780205,None,936.5956968420069,None,936.5956968420069,None,1.2170886470121332,938.3991215740098,None,938.3991215740098,None,5,1,1.3689641329983715,939.6027464770013,None,939.6027464770013,None,939.6027464770013,None,940.9881483149948,None,1,0.6848548690031748,940.9881483149948,None,58,941.6896827750024,None,137,B,1,2021_May_31_1453,GazeFlow,2020.1.2,59.85046517055436,
6,Block803.xls,B,3,8,46,46,None,congruent,Right,Right,Left,39,38,1,blue,2,5,/home/docky/apps/exp/images/39B.jpeg,/home/docky/apps/exp/images/38Bi.jpeg,0,5,5,5,0,7,7,7,942.6920172170212,None,942.6920172170212,None,1,5.595437432988547,942.6920172170212,None,948.3199904180074,None,948.3199904180074,None,950.8229168149992,None,950.8229168149992,None,1.2502987350162584,952.6265889820061,None,952.6265889820061,None,5,1,1.2028042550082318,953.8637160980143,None,953.8637160980143,None,953.8637160980143,None,955.0826542809955,None,1,0.5174192130216397,955.0826542809955,None,60,955.6165814750129,None,137,B,1,2021_May_31_1453,GazeFlow,2020.1.2,59.85046517055436,
6,Block803.xls,B,,,,,,,,,,,,,,,,,,0,5,5,5,,,,,,,,,,,,,,,,,,,,,,,,,,,,,,,,,,,,,,,,,,,,137,B,1,2021_May_31_1453,GazeFlow,2020.1.2,59.85046517055436,
7,Block810.xls,B,10,1,119,23,None,incongruent,Left,Right,Left,76,69,7,yellow,2,5,/home/docky/apps/exp/images/76Yi.jpeg,/home/docky/apps/exp/images/69Y.jpeg,0,6,6,6,0,0,0,0,979.1983333209937,None,979.1983333209937,None,1,7.049685216974467,979.1983333209937,None,986.2733135409944,None,986.2733135409944,None,988.7986005010025,None,988.7986005010025,None,1.6006409770052414,990.602275215002,None,990.602275215002,None,5,1,1.2193228579999413,992.1878585969971,None,992.1878585969971,None,992.1878585969971,None,993.423550484993,None,1,0.9179510110116098,993.423550484993,None,62,994.3583135880181,None,137,B,1,2021_May_31_1453,GazeFlow,2020.1.2,59.85046517055436,
7,Block810.xls,B,10,2,43,43,None,congruent,Right,Right,Left,83,80,3,blue,2,5,/home/docky/apps/exp/images/83B.jpeg,/home/docky/apps/exp/images/80Bi.jpeg,0,6,6,6,0,1,1,1,995.3605466019944,None,995.3605466019944,None,1,7.5319545149977785,995.3605466019944,None,1002.9270166420029,None,1002.9270166420029,None,1005.4307964070176,None,1005.4307964070176,None,1.2171199430013075,1007.232714045007,None,1007.232714045007,None,5,1,1.3359112220059615,1008.4359393219929,None,1008.4359393219929,None,1008.4359393219929,None,1009.788101454993,None,1,0.6012877380126156,1009.788101454993,None,64,1010.4059547540091,None,137,B,1,2021_May_31_1453,GazeFlow,2020.1.2,59.85046517055436,
7,Block810.xls,B,10,3,53,53,None,congruent,Left,Left,Right,65,66,1,yellow,2,6,/home/docky/apps/exp/images/35Bi.jpeg,/home/docky/apps/exp/images/66Y.jpeg,0,6,6,6,0,2,2,2,1011.4078727830201,None,1011.4078727830201,None,1,5.678418124007294,1011.4078727830201,None,1017.1185385140125,None,1017.1185385140125,None,1019.6250781330164,None,1019.6250781330164,None,1.9350896000105422,1021.4269327149959,None,1021.4269327149959,None,5,0,1.2687272450129967,1023.3481894430006,None,1023.3481894430006,None,1023.3481894430006,None,1024.6334314970009,None,1,1.0690782039891928,1024.6334314970009,None,62,1025.7195315370045,None,137,B,1,2021_May_31_1453,GazeFlow,2020.1.2,59.85046517055436,
7,Block810.xls,B,10,4,74,74,None,congruent,Right,Right,Left,35,33,2,yellow,2,5,/home/docky/apps/exp/images/35Y.jpeg,/home/docky/apps/exp/images/33Yi.jpeg,0,6,6,6,0,3,3,3,1026.7231622950057,None,1026.7231622950057,None,1,5.860095123003703,1026.7231622950057,None,1032.6169360289932,None,1032.6169360289932,None,1035.1201358260005,None,1035.1201358260005,None,1.4507560810016003,1036.9195969449938,None,1036.9195969449938,None,5,1,1.5691816250036936,1038.3606380940182,None,1038.3606380940182,None,1038.3606380940182,None,1039.9464135979943,None,1,1.4862789699982386,1039.9464135979943,None,64,1041.4495992230077,None,137,B,1,2021_May_31_1453,GazeFlow,2020.1.2,59.85046517055436,
7,Block810.xls,B,10,5,21,21,None,congruent,Left,Left,Right,76,79,3,blue,2,6,/home/docky/apps/exp/images/76B.jpeg,/home/docky/apps/exp/images/79Bi.jpeg,0,6,6,6,0,4,4,4,1042.451856279018,None,1042.451856279018,None,1,5.811812430998543,1042.451856279018,None,1048.2973079750082,None,1048.2973079750082,None,1050.8001295610156,None,1050.8001295610156,None,2.1858525550051127,1052.6037939030211,None,1052.6037939030211,None,6,1,1.3021970269910526,1054.7757183450158,None,1054.7757183450158,None,1054.7757183450158,None,1056.0943327220157,None,1,0.651499037980102,1056.0943327220157,None,66,1056.7622156350117,None,137,B,1,2021_May_31_1453,GazeFlow,2020.1.2,59.85046517055436,
7,Block810.xls,B,10,6,85,85,None,congruent,Right,Right,Left,75,69,6,yellow,2,5,/home/docky/apps/exp/images/76Y.jpeg,/home/docky/apps/exp/images/69Yi.jpeg,0,6,6,6,0,5,5,5,1057.7648543640098,None,1057.7648543640098,None,1,4.826532865990885,1057.7648543640098,None,1062.6246888939932,None,1062.6246888939932,None,1065.1300191850169,None,1065.1300191850169,None,1.083543761022156,1066.9265788010089,None,1066.9265788010089,None,5,1,1.2522342070005834,1068.0017253250116,None,1068.0017253250116,None,1068.0017253250116,None,1069.2704076170048,None,1,0.6174403920012992,1069.2704076170048,None,68,1069.904505693994,None,137,B,1,2021_May_31_1453,GazeFlow,2020.1.2,59.85046517055436,
7,Block810.xls,B,10,7,49,49,None,congruent,Left,Left,Right,33,35,2,yellow,2,6,/home/docky/apps/exp/images/33Yi.jpeg,/home/docky/apps/exp/images/35Y.jpeg,0,6,6,6,0,6,6,6,1070.9062425160082,None,1070.9062425160082,None,1,5.745434162992751,1070.9062425160082,None,1076.683597062016,None,1076.683597062016,None,1079.1883769950073,None,1079.1883769950073,None,1.1841511160018854,1080.9917048990028,None,1080.9917048990028,None,6,1,1.4030760789755732,1082.1623496579996,None,1082.1623496579996,None,1082.1623496579996,None,1083.5815137720201,None,1,1.252051647985354,1083.5815137720201,None,70,1084.850516873994,None,137,B,1,2021_May_31_1453,GazeFlow,2020.1.2,59.85046517055436,
7,Block810.xls,B,10,8,63,63,None,congruent,Left,Left,Right,38,39,1,yellow,2,6,/home/docky/apps/exp/images/38Y.jpeg,/home/docky/apps/exp/images/39Yi.jpeg,0,6,6,6,0,7,7,7,1085.852653583017,None,1085.852653583017,None,1,5.694355102983536,1085.852653583017,None,1091.5811031820194,None,1091.5811031820194,None,1094.0845502100128,None,1094.0845502100128,None,1.6013075030059554,1095.882085485995,None,1095.882085485995,None,5,0,1.2692222199984826,1097.4752431510133,None,1097.4752431510133,None,1097.4752431510133,None,1098.7608741360018,None,1,0.7180682060134131,1098.7608741360018,None,68,1099.4956115630048,None,137,B,1,2021_May_31_1453,GazeFlow,2020.1.2,59.85046517055436,
7,Block810.xls,B,,,,,,,,,,,,,,,,,,0,6,6,6,,,,,,,,,,,,,,,,,,,,,,,,,,,,,,,,,,,,,,,,,,,,137,B,1,2021_May_31_1453,GazeFlow,2020.1.2,59.85046517055436,
8,Block801.xls,B,1,1,1,1,None,congruent,Left,Left,Right,16,19,3,blue,2,6,/home/docky/apps/exp/images/16Bi.jpeg,/home/docky/apps/exp/images/19B.jpeg,0,7,7,7,0,0,0,0,1126.015802060021,None,1126.015802060021,None,1,7.137432394985808,1126.015802060021,None,1133.1744826380163,None,1133.1744826380163,None,1135.6999415750033,None,1135.6999415750033,None,1.5339486610027961,1137.5035913280153,None,1137.5035913280153,None,6,1,1.6191771729791071,1139.0225518220104,None,1139.0225518220104,None,1139.0225518220104,None,1140.6581474360137,None,1,0.7851214029942639,1140.6581474360137,None,70,1141.459721095016,None,137,B,1,2021_May_31_1453,GazeFlow,2020.1.2,59.85046517055436,
8,Block801.xls,B,1,2,105,9,None,incongruent,Left,Right,Left,79,73,6,blue,2,5,/home/docky/apps/exp/images/79B.jpeg,/home/docky/apps/exp/images/73Bi.jpeg,0,7,7,7,0,1,1,1,1142.4623758360103,None,1142.4623758360103,None,1,5.243842814990785,1142.4623758360103,None,1147.7379415619944,None,1147.7379415619944,None,1150.2422497250082,None,1150.2422497250082,None,1.7682585610018577,1152.0464503150142,None,1152.0464503150142,None,5,1,1.6691960920288693,1153.801352940005,None,1153.801352940005,None,1153.801352940005,None,1155.487198007002,None,1,0.8517594239965547,1155.487198007002,None,72,1156.3556697989989,None,137,B,1,2021_May_31_1453,GazeFlow,2020.1.2,59.85046517055436,
8,Block801.xls,B,1,3,62,62,None,congruent,Left,Left,Right,38,39,1,yellow,2,6,/home/docky/apps/exp/images/38Y.jpeg,/home/docky/apps/exp/images/39Yi.jpeg,0,7,7,7,0,2,2,2,1157.357975062012,None,1157.357975062012,None,1,5.861634733999381,1157.357975062012,None,1163.2532127150043,None,1163.2532127150043,None,1165.7582161390164,None,1165.7582161390164,None,1.6347437929944135,1167.560020096018,None,1167.560020096018,None,5,0,1.3693083320104051,1169.180771290994,None,1169.180771290994,None,1169.180771290994,None,1170.5663354860153,None,1,0.8351997070130892,1170.5663354860153,None,70,1171.4182570039993,None,137,B,1,2021_May_31_1453,GazeFlow,2020.1.2,59.85046517055436,
8,Block801.xls,B,1,4,38,38,None,congruent,Right,Right,Left,79,73,6,blue,2,5,/home/docky/apps/exp/images/79B.jpeg,/home/docky/apps/exp/images/73Bi.jpeg,0,7,7,7,0,3,3,3,1172.4205470090092,None,1172.4205470090092,None,1,7.314796791994013,1172.4205470090092,None,1179.7682220879942,None,1179.7682220879942,None,1182.2716539459943,None,1182.2716539459943,None,1.1508438310120255,1184.0747777940123,None,1184.0747777940123,None,5,1,1.3190899920009542,1185.2123010140203,None,1185.2123010140203,None,1185.2123010140203,None,1186.5478717320075,None,1,0.5842406259907875,1186.5478717320075,None,72,1187.148495616013,None,137,B,1,2021_May_31_1453,GazeFlow,2020.1.2,59.85046517055436,
8,Block801.xls,B,1,5,6,6,None,congruent,Left,Left,Right,35,38,3,blue,2,6,/home/docky/apps/exp/images/35Bi.jpeg,/home/docky/apps/exp/images/38B.jpeg,0,7,7,7,0,4,4,4,1188.1507545930217,None,1188.1507545930217,None,1,5.19382235899684,1188.1507545930217,None,1193.3768869370106,None,1193.3768869370106,None,1195.881742586993,None,1195.881742586993,None,1.2507295150135178,1197.6870344619965,None,1197.6870344619965,None,6,1,1.2362471639935393,1198.9219636140042,None,1198.9219636140042,None,1198.9219636140042,None,1200.1743001800205,None,1,0.6342123380163684,1200.1743001800205,None,74,1200.8250441160053,None,137,B,1,2021_May_31_1453,GazeFlow,2020.1.2,59.85046517055436,
8,Block801.xls,B,1,6,51,51,None,congruent,Left,Left,Right,33,35,2,yellow,2,6,/home/docky/apps/exp/images/33Yi.jpeg,/home/docky/apps/exp/images/35Y.jpeg,0,7,7,7,0,5,5,5,1201.8272052740213,None,1201.8272052740213,None,1,4.175342197006103,1201.8272052740213,None,1206.0363469420117,None,1206.0363469420117,None,1208.5393242760038,None,1208.5393242760038,None,1.0335511229932308,1210.3431426729949,None,1210.3431426729949,None,6,1,1.3027826189936604,1211.3628807720088,None,1211.3628807720088,None,1211.3628807720088,None,1212.6820373060182,None,1,0.8007203929882962,1212.6820373060182,None,76,1213.4995111260214,None,137,B,1,2021_May_31_1453,GazeFlow,2020.1.2,59.85046517055436,
8,Block801.xls,B,1,7,73,73,None,congruent,Right,Right,Left,35,33,2,yellow,2,5,/home/docky/apps/exp/images/35Yi.jpeg,/home/docky/apps/exp/images/33Y.jpeg,0,7,7,7,0,6,6,6,1214.501606676,None,1214.501606676,None,1,4.994275168981403,1214.501606676,None,1219.5292506180122,None,1219.5292506180122,None,1222.0169680230028,None,1222.0169680230028,None,1.0505110200028867,1223.8304805020161,None,1223.8304805020161,None,5,1,1.252581964014098,1224.872457215999,None,1224.872457215999,None,1224.872457215999,None,1226.1412831869966,None,1,0.5346247779962141,1226.1412831869966,None,78,1226.6923212340043,None,137,B,1,2021_May_31_1453,GazeFlow,2020.1.2,59.85046517055436,
8,Block801.xls,B,1,8,96,96,None,congruent,Right,Right,Left,80,79,1,yellow,2,5,/home/docky/apps/exp/images/80Yi.jpeg,/home/docky/apps/exp/images/79Y.jpeg,0,7,7,7,0,7,7,7,1227.694125353999,None,1227.694125353999,None,1,5.060756574996049,1227.694125353999,None,1232.7882906960149,None,1232.7882906960149,None,1235.2931304330123,None,1235.2931304330123,None,0.9499121550179552,1237.0952944850142,None,1237.0952944850142,None,5,1,1.4029908179945778,1238.0310697020032,None,1238.0310697020032,None,1238.0310697020032,None,1239.4506103270105,None,1,0.5671763099962845,1239.4506103270105,None,80,1240.0342720590124,None,137,B,1,2021_May_31_1453,GazeFlow,2020.1.2,59.85046517055436,
8,Block801.xls,B,,,,,,,,,,,,,,,,,,0,7,7,7,,,,,,,,,,,,,,,,,,,,,,,,,,,,,,,,,,,,,,,,,,,,137,B,1,2021_May_31_1453,GazeFlow,2020.1.2,59.85046517055436,
9,Block802.xls,B,2,1,30,30,None,congruent,Right,Right,Left,38,35,3,blue,2,5,/home/docky/apps/exp/images/38B.jpeg,/home/docky/apps/exp/images/35Bi.jpeg,0,8,8,8,0,0,0,0,1262.3448884560203,None,1262.3448884560203,None,1,8.82346599700395,1262.3448884560203,None,1271.1992172040045,None,1271.1992172040045,None,1273.7174497870146,None,1273.7174497870146,None,1.0663387849926949,1275.5193655670155,None,1275.5193655670155,None,5,1,1.18526345200371,1276.5724995460187,None,1276.5724995460187,None,1276.5724995460187,None,1277.7743264500168,None,1,0.7348621319979429,1277.7743264500168,None,82,1278.5259567169996,None,137,B,1,2021_May_31_1453,GazeFlow,2020.1.2,59.85046517055436,
9,Block802.xls,B,2,2,5,5,None,congruent,Left,Left,Right,35,38,3,blue,2,6,/home/docky/apps/exp/images/35B.jpeg,/home/docky/apps/exp/images/38Bi.jpeg,0,8,8,8,0,1,1,1,1279.5277583920106,None,1279.5277583920106,None,1,6.563446746004047,1279.5277583920106,None,1286.1250955809955,None,1286.1250955809955,None,1288.6298221930047,None,1288.6298221930047,None,1.0338387100200634,1290.4318249869975,None,1290.4318249869975,None,6,1,1.1348664710239973,1291.4516506970103,None,1291.4516506970103,None,1291.4516506970103,None,1292.6032721679949,None,1,0.5519533409969881,1292.6032721679949,None,84,1293.1713680539979,None,137,B,1,2021_May_31_1453,GazeFlow,2020.1.2,59.85046517055436,
9,Block802.xls,B,2,3,103,7,None,incongruent,Left,Right,Left,19,16,3,blue,2,5,/home/docky/apps/exp/images/19Bi.jpeg,/home/docky/apps/exp/images/16B.jpeg,0,8,8,8,0,2,2,2,1294.1730090689962,None,1294.1730090689962,None,1,5.027483240002766,1294.1730090689962,None,1299.2338700600085,None,1299.2338700600085,None,1301.7361597010167,None,1301.7361597010167,None,1.8856504900031723,1303.53964899102,None,1303.53964899102,None,5,1,1.6025564750016201,1305.4118499790202,None,1305.4118499790202,None,1305.4118499790202,None,1307.0311347800016,None,1,0.7519517260079738,1307.0311347800016,None,86,1307.7993207850086,None,137,B,1,2021_May_31_1453,GazeFlow,2020.1.2,59.85046517055436,
9,Block802.xls,B,2,4,35,35,None,congruent,Right,Right,Left,66,65,1,blue,2,5,/home/docky/apps/exp/images/66B.jpeg,/home/docky/apps/exp/images/35Yi.jpeg,0,8,8,8,0,3,3,3,1308.8017351090093,None,1308.8017351090093,None,1,6.245725437998772,1308.8017351090093,None,1315.081026927015,None,1315.081026927015,None,1317.5841294690035,None,1317.5841294690035,None,1.6347698780009523,1319.387268218008,None,1319.387268218008,None,6,0,1.3524182900146116,1321.0089240370144,None,1321.0089240370144,None,1321.0089240370144,None,1322.377766421996,None,1,0.7515017260157038,1322.377766421996,None,84,1323.1457598330162,None,137,B,1,2021_May_31_1453,GazeFlow,2020.1.2,59.85046517055436,
9,Block802.xls,B,2,5,42,42,None,congruent,Right,Right,Left,83,80,3,blue,2,5,/home/docky/apps/exp/images/83Bi.jpeg,/home/docky/apps/exp/images/80B.jpeg,0,8,8,8,0,4,4,4,1324.1479513570084,None,1324.1479513570084,None,1,7.0141528290114366,1324.1479513570084,None,1331.1957034509978,None,1331.1957034509978,None,1333.7005214760138,None,1333.7005214760138,None,1.2505813940078951,1335.501854983013,None,1335.501854983013,None,5,1,1.4360477360023651,1336.7394493600004,None,1336.7394493600004,None,1336.7394493600004,None,1338.192034820997,None,1,0.68448202800937,1338.192034820997,None,86,1338.892956729018,None,137,B,1,2021_May_31_1453,GazeFlow,2020.1.2,59.85046517055436,
9,Block802.xls,B,2,6,104,8,None,incongruent,Left,Right,Left,38,35,3,blue,2,5,/home/docky/apps/exp/images/38B.jpeg,/home/docky/apps/exp/images/35Bi.jpeg,0,8,8,8,0,5,5,5,1339.8953664879955,None,1339.8953664879955,None,1,4.8430579229898285,1339.8953664879955,None,1344.772116164997,None,1344.772116164997,None,1347.2753892950132,None,1347.2753892950132,None,1.634853624011157,1349.0786687390064,None,1349.0786687390064,None,5,1,1.252438739000354,1350.7001076400047,None,1350.7001076400047,None,1350.7001076400047,None,1351.968770795007,None,1,1.018305967998458,1351.968770795007,None,88,1353.00370497501,None,137,B,1,2021_May_31_1453,GazeFlow,2020.1.2,59.85046517055436,
9,Block802.xls,B,2,7,22,22,None,congruent,Left,Left,Right,80,83,3,blue,2,6,/home/docky/apps/exp/images/80Bi.jpeg,/home/docky/apps/exp/images/83B.jpeg,0,8,8,8,0,6,6,6,1354.0061553739943,None,1354.0061553739943,None,1,5.76147455201135,1354.0061553739943,None,1359.8009914790164,None,1359.8009914790164,None,1362.303879064013,None,1362.303879064013,None,1.5513366619998123,1364.107540505007,None,1364.107540505007,None,6,1,1.2357147189904936,1365.645502719999,None,1365.645502719999,None,1365.645502719999,None,1366.897744329006,None,1,0.5845213090069592,1366.897744329006,None,90,1367.4984666380042,None,137,B,1,2021_May_31_1453,GazeFlow,2020.1.2,59.85046517055436,
9,Block802.xls,B,2,8,54,54,None,congruent,Left,Left,Right,65,66,1,yellow,2,6,/home/docky/apps/exp/images/35Bi.jpeg,/home/docky/apps/exp/images/66Y.jpeg,0,8,8,8,0,7,7,7,1368.5004834379943,None,1368.5004834379943,None,1,4.476036364008905,1368.5004834379943,None,1373.0103552830114,None,1373.0103552830114,None,1375.5127581660054,None,1375.5127581660054,None,1.3509181599947624,1377.3161465880112,None,1377.3161465880112,None,6,1,1.3527459739998449,1378.654080672015,None,1378.654080672015,None,1378.654080672015,None,1380.0235566600168,None,1,0.70058742800029,1380.0235566600168,None,92,1380.7408309449966,None,137,B,1,2021_May_31_1453,GazeFlow,2020.1.2,59.85046517055436,
9,Block802.xls,B,,,,,,,,,,,,,,,,,,0,8,8,8,,,,,,,,,,,,,,,,,,,,,,,,,,,,,,,,,,,,,,,,,,,,137,B,1,2021_May_31_1453,GazeFlow,2020.1.2,59.85046517055436,
10,Block813.xls,B,13,1,70,70,None,congruent,Left,Left,Right,79,82,3,yellow,2,6,/home/docky/apps/exp/images/79Yi.jpeg,/home/docky/apps/exp/images/80Y.jpeg,0,9,9,9,0,0,0,0,1403.1020466500195,None,1403.1020466500195,None,1,6.801750707003521,1403.1020466500195,None,1409.9298038629931,None,1409.9298038629931,None,1412.4537272760062,None,1412.4537272760062,None,1.1826671689923387,1414.2570452640066,None,1414.2570452640066,None,6,1,1.3865499290113803,1415.4255049140193,None,1415.4255049140193,None,1415.4255049140193,None,1416.8279548860155,None,1,0.6007747999974526,1416.8279548860155,None,94,1417.445439075993,None,137,B,1,2021_May_31_1453,GazeFlow,2020.1.2,59.85046517055436,
10,Block813.xls,B,13,2,60,60,None,congruent,Left,Left,Right,38,39,1,yellow,2,6,/home/docky/apps/exp/images/38Yi.jpeg,/home/docky/apps/exp/images/39Y.jpeg,0,9,9,9,0,1,1,1,1418.4476496620046,None,1418.4476496620046,None,1,6.380249718000414,1418.4476496620046,None,1424.8621823840076,None,1424.8621823840076,None,1427.3637860600138,None,1427.3637860600138,None,1.1332387329894118,1429.1671147820016,None,1429.1671147820016,None,6,1,1.2195532630139496,1430.2877222080133,None,1430.2877222080133,None,1430.2877222080133,None,1431.5234013519948,None,1,1.0014576930261683,1431.5234013519948,None,96,1432.5414557500044,None,137,B,1,2021_May_31_1453,GazeFlow,2020.1.2,59.85046517055436,
10,Block813.xls,B,13,3,81,81,None,congruent,Right,Right,Left,66,65,1,yellow,2,5,/home/docky/apps/exp/images/66Y.jpeg,/home/docky/apps/exp/images/35Bi.jpeg,0,9,9,9,0,2,2,2,1433.5439194880018,None,1433.5439194880018,None,1,4.792796238005394,1433.5439194880018,None,1438.3703764880192,None,1438.3703764880192,None,1440.873921174003,None,1440.873921174003,None,1.2175099499872886,1442.6771405549953,None,1442.6771405549953,None,6,0,2.153863186016679,1443.8808382870047,None,1443.8808382870047,None,1443.8808382870047,None,1446.050927200995,None,1,0.9188663899840321,1446.050927200995,None,94,1446.986502079002,None,137,B,1,2021_May_31_1453,GazeFlow,2020.1.2,59.85046517055436,
10,Block813.xls,B,13,4,110,14,None,incongruent,Right,Left,Right,65,66,1,yellow,2,6,/home/docky/apps/exp/images/35B.jpeg,/home/docky/apps/exp/images/66Yi.jpeg,0,9,9,9,0,3,3,3,1447.9885657849954,None,1447.9885657849954,None,1,6.095949617010774,1447.9885657849954,None,1454.1180162609962,None,1454.1180162609962,None,1456.6205672220094,None,1456.6205672220094,None,1.5343116670264862,1458.4243538670125,None,1458.4243538670125,None,6,1,1.4849869729951024,1459.9456200780114,None,1459.9456200780114,None,1459.9456200780114,None,1461.4474070610013,None,1,0.6013655220158398,1461.4474070610013,None,96,1462.06541289101,None,137,B,1,2021_May_31_1453,GazeFlow,2020.1.2,59.85046517055436,
10,Block813.xls,B,13,5,17,17,None,congruent,Left,Left,Right,73,76,3,blue,2,6,/home/docky/apps/exp/images/73Bi.jpeg,/home/docky/apps/exp/images/76B.jpeg,0,9,9,9,0,4,4,4,1463.0678683200094,None,1463.0678683200094,None,1,4.559539535985095,1463.0678683200094,None,1467.6607471980096,None,1467.6607471980096,None,1470.1671382510103,None,1470.1671382510103,None,1.217342809017282,1471.9647280500212,None,1471.9647280500212,None,6,1,1.369127614016179,1473.170991135994,None,1473.170991135994,None,1473.170991135994,None,1474.5567848150095,None,1,0.6009222049906384,1474.5567848150095,None,98,1475.1742836119956,None,137,B,1,2021_May_31_1453,GazeFlow,2020.1.2,59.85046517055436,
10,Block813.xls,B,13,6,111,15,None,incongruent,Right,Left,Right,62,65,3,yellow,2,6,/home/docky/apps/exp/images/38B.jpeg,/home/docky/apps/exp/images/35Bi.jpeg,0,9,9,9,0,5,5,5,1476.1767108979984,None,1476.1767108979984,None,1,4.492218476982089,1476.1767108979984,None,1480.7028324500134,None,1480.7028324500134,None,1483.207428743015,None,1483.207428743015,None,1.7683150710072368,1485.0091750300198,None,1485.0091750300198,None,6,1,1.3854306009889115,1486.7640371489979,None,1486.7640371489979,None,1486.7640371489979,None,1488.1664094870212,None,1,0.5675350310048088,1488.1664094870212,None,100,1488.750778289017,None,137,B,1,2021_May_31_1453,GazeFlow,2020.1.2,59.85046517055436,
10,Block813.xls,B,13,7,55,55,None,congruent,Left,Left,Right,65,66,1,yellow,2,6,/home/docky/apps/exp/images/35B.jpeg,/home/docky/apps/exp/images/66Yi.jpeg,0,9,9,9,0,6,6,6,1489.7529970759933,None,1489.7529970759933,None,1,5.260404689004645,1489.7529970759933,None,1495.0455502950063,None,1495.0455502950063,None,1497.5504125519947,None,1497.5504125519947,None,1.7184882259753067,1499.3538155010028,None,1499.3538155010028,None,6,1,1.2688799240277149,1501.058468113013,None,1501.058468113013,None,1501.058468113013,None,1502.3439395310124,None,1,0.5678212839993648,1502.3439395310124,None,102,1502.9284823540074,None,137,B,1,2021_May_31_1453,GazeFlow,2020.1.2,59.85046517055436,
10,Block813.xls,B,13,8,26,26,None,congruent,Right,Right,Left,19,16,3,blue,2,5,/home/docky/apps/exp/images/19B.jpeg,/home/docky/apps/exp/images/16Bi.jpeg,0,9,9,9,0,7,7,7,1503.9302827109932,None,1503.9302827109932,None,1,5.4276706379896495,1503.9302827109932,None,1509.3916590550216,None,1509.3916590550216,None,1511.8968774050009,None,1511.8968774050009,None,1.6013204220216721,1513.698184930021,None,1513.698184930021,None,5,1,1.2523942569969222,1515.2861829860194,None,1515.2861829860194,None,1515.2861829860194,None,1516.5549375150003,None,1,0.5841804080118891,1516.5549375150003,None,104,1517.155836910999,None,137,B,1,2021_May_31_1453,GazeFlow,2020.1.2,59.85046517055436,
10,Block813.xls,B,,,,,,,,,,,,,,,,,,0,9,9,9,,,,,,,,,,,,,,,,,,,,,,,,,,,,,,,,,,,,,,,,,,,,137,B,1,2021_May_31_1453,GazeFlow,2020.1.2,59.85046517055436,
11,Block806.xls,B,6,1,10,10,None,congruent,Left,Left,Right,65,66,1,blue,2,6,/home/docky/apps/exp/images/35Y.jpeg,/home/docky/apps/exp/images/66Bi.jpeg,0,10,10,10,0,0,0,0,1545.7974494470109,None,1545.7974494470109,None,1,7.149899089010432,1545.7974494470109,None,1552.9777273749933,None,1552.9777273749933,None,1555.4976286629972,None,1555.4976286629972,None,1.2332300909911282,1557.2998152520158,None,1557.2998152520158,None,6,1,1.1519379910023417,1558.5201854810002,None,1558.5201854810002,None,1558.5201854810002,None,1559.688494600996,None,1,0.6848306079918984,1559.688494600996,None,106,1560.389906432014,None,137,B,1,2021_May_31_1453,GazeFlow,2020.1.2,59.85046517055436,
11,Block806.xls,B,6,2,89,89,None,congruent,Right,Right,Left,76,69,7,yellow,2,5,/home/docky/apps/exp/images/76Yi.jpeg,/home/docky/apps/exp/images/69Y.jpeg,0,10,10,10,0,1,1,1,1561.3918783469999,None,1561.3918783469999,None,1,4.859719750995282,1561.3918783469999,None,1566.2855258769996,None,1566.2855258769996,None,1568.7890435710142,None,1568.7890435710142,None,1.4012188079941552,1570.593972732022,None,1570.593972732022,None,5,1,1.2525122039951384,1571.979585240013,None,1571.979585240013,None,1571.979585240013,None,1573.2482584910176,None,1,0.6507884900202043,1573.2482584910176,None,108,1573.9158518920012,None,137,B,1,2021_May_31_1453,GazeFlow,2020.1.2,59.85046517055436,
11,Block806.xls,B,6,3,88,88,None,congruent,Right,Right,Left,76,69,7,yellow,2,5,/home/docky/apps/exp/images/76Y.jpeg,/home/docky/apps/exp/images/69Yi.jpeg,0,10,10,10,0,2,2,2,1574.91830595801,None,1574.91830595801,None,1,4.843055822013412,1574.91830595801,None,1579.7950405169977,None,1579.7950405169977,None,1582.2980535350216,None,1582.2980535350216,None,1.2510297269909643,1584.1020512710093,None,1584.1020512710093,None,5,1,1.2190200129989535,1585.3389854790003,None,1585.3389854790003,None,1585.3389854790003,None,1586.5743939920212,None,1,0.7174603719904553,1586.5743939920212,None,110,1587.3085963860212,None,137,B,1,2021_May_31_1453,GazeFlow,2020.1.2,59.85046517055436,
11,Block806.xls,B,6,4,109,13,None,incongruent,Right,Left,Right,33,35,2,yellow,2,6,/home/docky/apps/exp/images/33Yi.jpeg,/home/docky/apps/exp/images/35Y.jpeg,0,10,10,10,0,3,3,3,1588.3104234990024,None,1588.3104234990024,None,1,5.0947365969768725,1588.3104234990024,None,1593.4384771159966,None,1593.4384771159966,None,1595.9431564749975,None,1595.9431564749975,None,1.5845611770055257,1597.7447766720143,None,1597.7447766720143,None,6,1,1.4353808260057122,1599.3161765010154,None,1599.3161765010154,None,1599.3161765010154,None,1600.7679989580065,None,1,0.6514619310037233,1600.7679989580065,None,112,1601.4359112130187,None,137,B,1,2021_May_31_1453,GazeFlow,2020.1.2,59.85046517055436,
11,Block806.xls,B,6,5,37,37,None,congruent,Right,Right,Left,79,73,6,blue,2,5,/home/docky/apps/exp/images/79Bi.jpeg,/home/docky/apps/exp/images/73B.jpeg,0,10,10,10,0,4,4,4,1602.4386383590172,None,1602.4386383590172,None,1,5.644472439016681,1602.4386383590172,None,1608.1196040350187,None,1608.1196040350187,None,1610.6197713710135,None,1610.6197713710135,None,1.7681529679975938,1612.4235800650204,None,1612.4235800650204,None,5,1,1.719810556009179,1614.1780885519984,None,1614.1780885519984,None,1614.1780885519984,None,1615.9141833780159,None,1,0.768298140988918,1615.9141833780159,None,114,1616.699125751009,None,137,B,1,2021_May_31_1453,GazeFlow,2020.1.2,59.85046517055436,
11,Block806.xls,B,6,6,108,12,None,incongruent,Left,Right,Left,39,38,1,blue,2,5,/home/docky/apps/exp/images/39Bi.jpeg,/home/docky/apps/exp/images/38B.jpeg,0,10,10,10,0,5,5,5,1617.7013962450146,None,1617.7013962450146,None,1,6.630156013008673,1617.7013962450146,None,1624.3649496780126,None,1624.3649496780126,None,1626.8683679499954,None,1626.8683679499954,None,1.3510260349721648,1628.6709519610158,None,1628.6709519610158,None,6,0,1.2365301910031121,1630.0088732110162,None,1630.0088732110162,None,1630.0088732110162,None,1631.2611451859993,None,1,0.700989094999386,1631.2611451859993,None,112,1631.978627286997,None,137,B,1,2021_May_31_1453,GazeFlow,2020.1.2,59.85046517055436,
11,Block806.xls,B,6,7,52,52,None,congruent,Left,Left,Right,65,66,1,yellow,2,6,/home/docky/apps/exp/images/35B.jpeg,/home/docky/apps/exp/images/66Yi.jpeg,0,10,10,10,0,6,6,6,1632.9808045840182,None,1632.9808045840182,None,1,6.0128028340113815,1632.9808045840182,None,1639.0252099280187,None,1639.0252099280187,None,1641.5321229849942,None,1641.5321229849942,None,1.200721330998931,1643.3333973459958,None,1643.3333973459958,None,6,1,1.2696898030117154,1644.520406249998,None,1644.520406249998,None,1644.520406249998,None,1645.8060639839969,None,1,0.48394723201636225,1645.8060639839969,None,114,1646.3063957809936,None,137,B,1,2021_May_31_1453,GazeFlow,2020.1.2,59.85046517055436,
11,Block806.xls,B,6,8,75,75,None,congruent,Right,Right,Left,35,33,2,yellow,2,5,/home/docky/apps/exp/images/35Yi.jpeg,/home/docky/apps/exp/images/33Y.jpeg,0,10,10,10,0,7,7,7,1647.3085864729946,None,1647.3085864729946,None,1,4.860554757004138,1647.3085864729946,None,1652.2026016010204,None,1652.2026016010204,None,1654.7073380649963,None,1654.7073380649963,None,1.6850666730024386,1656.5088582900062,None,1656.5088582900062,None,5,1,1.2356689799926244,1658.1805092240102,None,1658.1805092240102,None,1658.1805092240102,None,1659.4321551769972,None,1,0.6180852150137071,1659.4321551769972,None,116,1660.066885053995,None,137,B,1,2021_May_31_1453,GazeFlow,2020.1.2,59.85046517055436,
11,Block806.xls,B,,,,,,,,,,,,,,,,,,0,10,10,10,,,,,,,,,,,,,,,,,,,,,,,,,,,,,,,,,,,,,,,,,,,,137,B,1,2021_May_31_1453,GazeFlow,2020.1.2,59.85046517055436,
12,Block811.xls,B,11,1,86,86,None,congruent,Right,Right,Left,75,69,6,yellow,2,5,/home/docky/apps/exp/images/76Y.jpeg,/home/docky/apps/exp/images/69Yi.jpeg,0,11,11,11,0,0,0,0,1689.2738499520055,None,1689.2738499520055,None,1,8.221992948994739,1689.2738499520055,None,1697.5208100519958,None,1697.5208100519958,None,1700.0460382360034,None,1700.0460382360034,None,1.6005929980019573,1701.84251622,None,1701.84251622,None,5,1,1.2692113730008714,1703.4349161559949,None,1703.4349161559949,None,1703.4349161559949,None,1704.7205862810079,None,1,0.8178686350001954,1704.7205862810079,None,118,1705.555458465009,None,137,B,1,2021_May_31_1453,GazeFlow,2020.1.2,59.85046517055436,
12,Block811.xls,B,11,2,83,83,None,congruent,Right,Right,Left,75,69,6,yellow,2,5,/home/docky/apps/exp/images/76Yi.jpeg,/home/docky/apps/exp/images/69Y.jpeg,0,11,11,11,0,1,1,1,1706.5575810150185,None,1706.5575810150185,None,1,6.3962656799994875,1706.5575810150185,None,1712.9874756660138,None,1712.9874756660138,None,1715.4902375689999,None,1715.4902375689999,None,1.484169421979459,1717.295408089005,None,1717.295408089005,None,5,1,1.5527209490246605,1718.7644792840001,None,1718.7644792840001,None,1718.7644792840001,None,1720.333727627003,None,1,0.7681740700209048,1720.333727627003,None,120,1721.118767439999,None,137,B,1,2021_May_31_1453,GazeFlow,2020.1.2,59.85046517055436,
12,Block811.xls,B,11,3,28,28,None,congruent,Right,Right,Left,38,35,3,blue,2,5,/home/docky/apps/exp/images/38Bi.jpeg,/home/docky/apps/exp/images/35B.jpeg,0,11,11,11,0,2,2,2,1722.1211994170153,None,1722.1211994170153,None,1,7.448317442002008,1722.1211994170153,None,1729.6032152989937,None,1729.6032152989937,None,1732.1076884370123,None,1732.1076884370123,None,4.975164005998522,1733.9038315360085,None,1733.9038315360085,None,5,1,3.1888771780068055,1738.8877691230155,None,1738.8877691230155,None,1738.8877691230155,None,1742.0932328350027,None,1,1.1857052510022186,1742.0932328350027,None,122,1743.2953316289932,None,137,B,1,2021_May_31_1453,GazeFlow,2020.1.2,59.85046517055436,
12,Block811.xls,B,11,4,58,58,None,congruent,Left,Left,Right,62,65,3,yellow,2,6,/home/docky/apps/exp/images/38B.jpeg,/home/docky/apps/exp/images/35Bi.jpeg,0,11,11,11,0,3,3,3,1744.297540279018,None,1744.297540279018,None,1,7.348263074993156,1744.297540279018,None,1751.6791536160163,None,1751.6791536160163,None,1754.1894500220078,None,1754.1894500220078,None,1.5844908830185886,1755.984966509015,None,1755.984966509015,None,6,1,1.2691912309965119,1757.5568473150197,None,1757.5568473150197,None,1757.5568473150197,None,1758.8425511370006,None,1,0.5672631709894631,1758.8425511370006,None,124,1759.4264900099952,None,137,B,1,2021_May_31_1453,GazeFlow,2020.1.2,59.85046517055436,
12,Block811.xls,B,11,5,32,32,None,congruent,Right,Right,Left,66,65,1,blue,2,5,/home/docky/apps/exp/images/66Bi.jpeg,/home/docky/apps/exp/images/35Y.jpeg,0,11,11,11,0,4,4,4,1760.4285357860208,None,1760.4285357860208,None,1,6.513229830976343,1760.4285357860208,None,1766.9754936380195,None,1766.9754936380195,None,1769.483582048997,None,1769.483582048997,None,1.2505653440020978,1771.2837108290114,None,1771.2837108290114,None,5,1,1.2196260310010985,1772.5189994960092,None,1772.5189994960092,None,1772.5189994960092,None,1773.7546654350008,None,1,0.500760936003644,1773.7546654350008,None,126,1774.27195918301,None,137,B,1,2021_May_31_1453,GazeFlow,2020.1.2,59.85046517055436,
12,Block811.xls,B,11,6,67,67,None,congruent,Left,Left,Right,72,77,5,yellow,2,6,/home/docky/apps/exp/images/72Y.jpeg,/home/docky/apps/exp/images/77Yi.jpeg,0,11,11,11,0,5,5,5,1775.2737761659955,None,1775.2737761659955,None,1,6.947676114010392,1775.2737761659955,None,1782.255368854996,None,1782.255368854996,None,1784.7584380840126,None,1784.7584380840126,None,1.5343977129959967,1786.5617442250077,None,1786.5617442250077,None,6,1,1.3688385210116394,1788.0827539520105,None,1788.0827539520105,None,1788.0827539520105,None,1789.468214819004,None,1,0.7184001529822126,1789.468214819004,None,128,1790.203013819002,None,137,B,1,2021_May_31_1453,GazeFlow,2020.1.2,59.85046517055436,
12,Block811.xls,B,11,7,120,24,None,incongruent,Left,Right,Left,77,72,5,yellow,2,5,/home/docky/apps/exp/images/77Y.jpeg,/home/docky/apps/exp/images/72Yi.jpeg,0,11,11,11,0,6,6,6,1791.2055389180023,None,1791.2055389180023,None,1,4.6763624789891765,1791.2055389180023,None,1795.9149820090097,None,1795.9149820090097,None,1798.4198800850136,None,1798.4198800850136,None,1.534496139996918,1800.222108974005,None,1800.222108974005,None,5,1,1.3687358849856537,1801.742689969018,None,1801.742689969018,None,1801.742689969018,None,1803.1281561000214,None,1,0.7352491810161155,1803.1281561000214,None,130,1803.8795573330135,None,137,B,1,2021_May_31_1453,GazeFlow,2020.1.2,59.85046517055436,
12,Block811.xls,B,11,8,57,57,None,congruent,Left,Left,Right,62,65,3,yellow,2,6,/home/docky/apps/exp/images/38Bi.jpeg,/home/docky/apps/exp/images/35B.jpeg,0,11,11,11,0,7,7,7,1804.8817683499947,None,1804.8817683499947,None,1,6.0287734040175565,1804.8817683499947,None,1810.944140772015,None,1810.944140772015,None,1813.4474092140154,None,1813.4474092140154,None,1.3506139040109701,1815.2512313270126,None,1815.2512313270126,None,6,1,1.3021685190033168,1816.588212142,None,1816.588212142,None,1816.588212142,None,1817.906778906996,None,1,0.6516681369976141,1817.906778906996,None,132,1818.5747723050008,None,137,B,1,2021_May_31_1453,GazeFlow,2020.1.2,59.85046517055436,
12,Block811.xls,B,,,,,,,,,,,,,,,,,,0,11,11,11,,,,,,,,,,,,,,,,,,,,,,,,,,,,,,,,,,,,,,,,,,,,137,B,1,2021_May_31_1453,GazeFlow,2020.1.2,59.85046517055436,
13,Block808.xls,B,8,1,118,22,None,incongruent,Left,Right,Left,75,69,6,yellow,2,5,/home/docky/apps/exp/images/76Y.jpeg,/home/docky/apps/exp/images/69Yi.jpeg,0,12,12,12,0,0,0,0,1844.0432296840008,None,1844.0432296840008,None,1,7.784645164007088,1844.0432296840008,None,1851.8595388950198,None,1851.8595388950198,None,1854.378614685993,None,1854.378614685993,None,1.5339585590118077,1856.1638516170206,None,1856.1638516170206,None,5,1,1.3860300630040001,1857.6848680840048,None,1857.6848680840048,None,1857.6848680840048,None,1859.087182896008,None,1,0.6347469050087966,1859.087182896008,None,134,1859.7380452149955,None,137,B,1,2021_May_31_1453,GazeFlow,2020.1.2,59.85046517055436,
13,Block808.xls,B,8,2,7,7,None,congruent,Left,Left,Right,65,66,1,blue,2,6,/home/docky/apps/exp/images/35Yi.jpeg,/home/docky/apps/exp/images/66B.jpeg,0,12,12,12,0,1,1,1,1860.7402169720153,None,1860.7402169720153,None,1,6.68024732201593,1860.7402169720153,None,1867.4540391100163,None,1867.4540391100163,None,1869.958781009016,None,1869.958781009016,None,1.1503185229958035,1871.7560271620168,None,1871.7560271620168,None,6,1,1.3527882259804755,1872.8975696090201,None,1872.8975696090201,None,1872.8975696090201,None,1874.2666274380172,None,1,0.4671879780071322,1874.2666274380172,None,136,1874.7505483429995,None,137,B,1,2021_May_31_1453,GazeFlow,2020.1.2,59.85046517055436,
13,Block808.xls,B,8,3,112,16,None,incongruent,Right,Left,Right,69,76,7,yellow,2,6,/home/docky/apps/exp/images/69Yi.jpeg,/home/docky/apps/exp/images/76Y.jpeg,0,12,12,12,0,2,2,2,1875.752586689021,None,1875.752586689021,None,1,5.661706506012706,1875.752586689021,None,1881.448161066015,None,1881.448161066015,None,1883.9509812949982,None,1883.9509812949982,None,1.8852154460037127,1885.7493353300088,None,1885.7493353300088,None,6,1,1.3021944710053504,1887.6262212690199,None,1887.6262212690199,None,1887.6262212690199,None,1888.9448830740002,None,1,0.8517371619818732,1888.9448830740002,None,138,1889.8135461450147,None,137,B,1,2021_May_31_1453,GazeFlow,2020.1.2,59.85046517055436,
13,Block808.xls,B,8,4,97,1,None,incongruent,Right,Left,Right,16,19,3,blue,2,6,/home/docky/apps/exp/images/16Bi.jpeg,/home/docky/apps/exp/images/19B.jpeg,0,12,12,12,0,3,3,3,1890.8156106950191,None,1890.8156106950191,None,1,5.677893293992383,1890.8156106950191,None,1896.5272564080078,None,1896.5272564080078,None,1899.0296604750038,None,1899.0296604750038,None,1.3510878210072406,1900.8289039260126,None,1900.8289039260126,None,6,1,1.3691345950064715,1902.171237781993,None,1902.171237781993,None,1902.171237781993,None,1903.5570994040172,None,1,0.6178195739921648,1903.5570994040172,None,140,1904.1911543860042,None,137,B,1,2021_May_31_1453,GazeFlow,2020.1.2,59.85046517055436,
13,Block808.xls,B,8,5,24,24,None,congruent,Left,Left,Right,80,83,3,blue,2,6,/home/docky/apps/exp/images/80Bi.jpeg,/home/docky/apps/exp/images/83B.jpeg,0,12,12,12,0,4,4,4,1905.1935716340085,None,1905.1935716340085,None,1,7.548653620004188,1905.1935716340085,None,1912.775725900021,None,1912.775725900021,None,1915.2781384060218,None,1915.2781384060218,None,2.0021481750009116,1917.082164032996,None,1917.082164032996,None,6,1,1.769739377021324,1919.070676206,None,1919.070676206,None,1919.070676206,None,1920.8566909430083,None,1,0.6854375620023347,1920.8566909430083,None,142,1921.5582882880117,None,137,B,1,2021_May_31_1453,GazeFlow,2020.1.2,59.85046517055436,
13,Block808.xls,B,8,6,13,13,None,congruent,Left,Left,Right,38,39,1,blue,2,6,/home/docky/apps/exp/images/38Bi.jpeg,/home/docky/apps/exp/images/39B.jpeg,0,12,12,12,0,5,5,5,1922.5606008250033,None,1922.5606008250033,None,1,5.5109790620044805,1922.5606008250033,None,1928.1054729940079,None,1928.1054729940079,None,1930.6081886409956,None,1930.6081886409956,None,1.083595192991197,1932.4115656640206,None,1932.4115656640206,None,6,1,1.2181829579931218,1933.4822875260143,None,1933.4822875260143,None,1933.4822875260143,None,1934.7172448030033,None,1,0.45160219198442064,1934.7172448030033,None,144,1935.1850987540092,None,137,B,1,2021_May_31_1453,GazeFlow,2020.1.2,59.85046517055436,
13,Block808.xls,B,8,7,8,8,None,congruent,Left,Left,Right,65,66,1,blue,2,6,/home/docky/apps/exp/images/35Y.jpeg,/home/docky/apps/exp/images/66Bi.jpeg,0,12,12,12,0,6,6,6,1936.1867993810156,None,1936.1867993810156,None,1,5.527993756986689,1936.1867993810156,None,1941.748587189999,None,1941.748587189999,None,1944.2516999560175,None,1944.2516999560175,None,1.0836837609822396,1946.0546189029992,None,1946.0546189029992,None,6,1,1.453109719994245,1947.1250810830097,None,1947.1250810830097,None,1947.1250810830097,None,1948.5944959280023,None,1,1.185212831973331,1948.5944959280023,None,146,1949.796604845993,None,137,B,1,2021_May_31_1453,GazeFlow,2020.1.2,59.85046517055436,
13,Block808.xls,B,8,8,31,31,None,congruent,Right,Right,Left,66,65,1,blue,2,5,/home/docky/apps/exp/images/66B.jpeg,/home/docky/apps/exp/images/35Yi.jpeg,0,12,12,12,0,7,7,7,1950.798990595009,None,1950.798990595009,None,1,5.995298144000117,1950.798990595009,None,1956.829813407996,None,1956.829813407996,None,1959.331371452019,None,1959.331371452019,None,1.6514982559892815,1961.1347653029952,None,1961.1347653029952,None,6,0,1.4689416110049933,1962.7722916690109,None,1962.7722916690109,None,1962.7722916690109,None,1964.2579322920064,None,1,0.6346572400070727,1964.2579322920064,None,144,1964.9091073519958,None,137,B,1,2021_May_31_1453,GazeFlow,2020.1.2,59.85046517055436,
13,Block808.xls,B,,,,,,,,,,,,,,,,,,0,12,12,12,,,,,,,,,,,,,,,,,,,,,,,,,,,,,,,,,,,,,,,,,,,,137,B,1,2021_May_31_1453,GazeFlow,2020.1.2,59.85046517055436,
14,Block815.xls,B,15,1,65,65,None,congruent,Left,Left,Right,69,76,7,yellow,2,6,/home/docky/apps/exp/images/69Yi.jpeg,/home/docky/apps/exp/images/76Y.jpeg,0,13,13,13,0,0,0,0,1986.7202060389973,None,1986.7202060389973,None,1,8.356796929001575,1986.7202060389973,None,1995.100064956001,None,1995.100064956001,None,1997.6236748289957,None,1997.6236748289957,None,2.068278149003163,1999.4276948870101,None,1999.4276948870101,None,6,1,1.2849782130215317,2001.4810602609941,None,2001.4810602609941,None,2001.4810602609941,None,2002.782803953014,None,1,0.7519031790143345,2002.782803953014,None,146,2003.5513627119944,None,137,B,1,2021_May_31_1453,GazeFlow,2020.1.2,59.85046517055436,
14,Block815.xls,B,15,2,102,6,None,incongruent,Right,Left,Right,80,83,3,blue,2,6,/home/docky/apps/exp/images/80B.jpeg,/home/docky/apps/exp/images/83Bi.jpeg,0,13,13,13,0,1,1,1,2004.5533922369941,None,2004.5533922369941,None,1,5.745190037996508,2004.5533922369941,None,2010.3319708570198,None,2010.3319708570198,None,2012.8368343900074,None,2012.8368343900074,None,1.5176765370124485,2014.6385156309989,None,2014.6385156309989,None,6,1,1.3527595999767072,2016.1427412870107,None,2016.1427412870107,None,2016.1427412870107,None,2017.5115205869952,None,1,0.5848426980082877,2017.5115205869952,None,148,2018.1126066050201,None,137,B,1,2021_May_31_1453,GazeFlow,2020.1.2,59.85046517055436,
14,Block815.xls,B,15,3,33,33,None,congruent,Right,Right,Left,66,65,1,blue,2,5,/home/docky/apps/exp/images/66Bi.jpeg,/home/docky/apps/exp/images/35Y.jpeg,0,13,13,13,0,2,2,2,2019.1145574600087,None,2019.1145574600087,None,1,7.615570605994435,2019.1145574600087,None,2026.7636793529964,None,2026.7636793529964,None,2029.2665861950081,None,2029.2665861950081,None,1.083484401984606,2031.069974136015,None,2031.069974136015,None,5,1,1.436769160995027,2032.1403705179982,None,2032.1403705179982,None,2032.1403705179982,None,2033.5930096149968,None,1,0.5510642919980455,2033.5930096149968,None,150,2034.1604023470136,None,137,B,1,2021_May_31_1453,GazeFlow,2020.1.2,59.85046517055436,
14,Block815.xls,B,15,4,72,72,None,congruent,Left,Left,Right,79,82,3,yellow,2,6,/home/docky/apps/exp/images/79Yi.jpeg,/home/docky/apps/exp/images/80Y.jpeg,0,13,13,13,0,3,3,3,2035.1626192060066,None,2035.1626192060066,None,1,6.11241491799592,2035.1626192060066,None,2041.3089241030102,None,2041.3089241030102,None,2043.8135800760065,None,2043.8135800760065,None,1.217070546001196,2045.6171570400184,None,2045.6171570400184,None,5,0,1.3696240650024265,2046.8188279290043,None,2046.8188279290043,None,2046.8188279290043,None,2048.2049486729957,None,1,0.7506908380019013,2048.2049486729957,None,148,2048.972617677995,None,137,B,1,2021_May_31_1453,GazeFlow,2020.1.2,59.85046517055436,
14,Block815.xls,B,15,5,100,4,None,incongruent,Right,Left,Right,73,76,3,blue,2,6,/home/docky/apps/exp/images/73B.jpeg,/home/docky/apps/exp/images/76Bi.jpeg,0,13,13,13,0,4,4,4,2049.9744865999965,None,2049.9744865999965,None,1,6.1126453960023355,2049.9744865999965,None,2056.121110288019,None,2056.121110288019,None,2058.624170113995,None,2058.624170113995,None,1.734950926998863,2060.427640058013,None,2060.427640058013,None,6,1,1.4525147159874905,2062.148585265997,None,2062.148585265997,None,2062.148585265997,None,2063.6179031860083,None,1,0.6511646999861114,2063.6179031860083,None,150,2064.2857411760197,None,137,B,1,2021_May_31_1453,GazeFlow,2020.1.2,59.85046517055436,
14,Block815.xls,B,15,6,45,45,None,congruent,Right,Right,Left,39,38,1,blue,2,5,/home/docky/apps/exp/images/39B.jpeg,/home/docky/apps/exp/images/38Bi.jpeg,0,13,13,13,0,5,5,5,2065.2881118810037,None,2065.2881118810037,None,1,4.675868040998466,2065.2881118810037,None,2069.99778059902,None,2069.99778059902,None,2072.5004291630175,None,2072.5004291630175,None,1.1337290680094156,2074.304173493001,None,2074.304173493001,None,5,1,1.3031148049922194,2075.424411629996,None,2075.424411629996,None,2075.424411629996,None,2076.743613797007,None,1,1.1019080410187598,2076.743613797007,None,152,2077.86199703702,None,137,B,1,2021_May_31_1453,GazeFlow,2020.1.2,59.85046517055436,
14,Block815.xls,B,15,7,98,2,None,incongruent,Right,Left,Right,35,38,3,blue,2,6,/home/docky/apps/exp/images/35Bi.jpeg,/home/docky/apps/exp/images/38B.jpeg,0,13,13,13,0,6,6,6,2078.8643266370054,None,2078.8643266370054,None,1,8.333747124008369,2078.8643266370054,None,2087.231493333995,None,2087.231493333995,None,2089.7347155119933,None,2089.7347155119933,None,1.2339949359884486,2091.53799154202,None,2091.53799154202,None,5,0,1.085251631011488,2092.758512884,None,2092.758512884,None,2092.758512884,None,2093.860356474004,None,1,0.6007349500141572,2093.860356474004,None,150,2094.477883890999,None,137,B,1,2021_May_31_1453,GazeFlow,2020.1.2,59.85046517055436,
14,Block815.xls,B,15,8,59,59,None,congruent,Left,Left,Right,38,39,1,yellow,2,6,/home/docky/apps/exp/images/38Yi.jpeg,/home/docky/apps/exp/images/39Y.jpeg,0,13,13,13,0,7,7,7,2095.479808459,None,2095.479808459,None,1,6.096368133003125,2095.479808459,None,2101.613731323014,None,2101.613731323014,None,2104.1127865590097,None,2104.1127865590097,None,1.066842454019934,2105.910626852012,None,2105.910626852012,None,6,1,1.0848355189955328,2106.969352244021,None,2106.969352244021,None,2106.969352244021,None,2108.071020105999,None,1,0.6186473320121877,2108.071020105999,None,152,2108.7059010230005,None,137,B,1,2021_May_31_1453,GazeFlow,2020.1.2,59.85046517055436,
14,Block815.xls,B,,,,,,,,,,,,,,,,,,0,13,13,13,,,,,,,,,,,,,,,,,,,,,,,,,,,,,,,,,,,,,,,,,,,,137,B,1,2021_May_31_1453,GazeFlow,2020.1.2,59.85046517055436,
15,Block807.xls,B,7,1,71,71,None,congruent,Left,Left,Right,79,82,3,yellow,2,6,/home/docky/apps/exp/images/79Y.jpeg,/home/docky/apps/exp/images/80Yi.jpeg,0,14,14,14,0,0,0,0,2131.302146453003,None,2131.302146453003,None,1,9.087811775010778,2131.302146453003,None,2140.419716127013,None,2140.419716127013,None,2142.9401360110205,None,2142.9401360110205,None,0.9827804919914342,2144.7434041259985,None,2144.7434041259985,None,6,1,1.2688893750018906,2145.7113446500152,None,2145.7113446500152,None,2145.7113446500152,None,2146.996518369997,None,1,0.5684655540098902,2146.996518369997,None,154,2147.581515305006,None,137,B,1,2021_May_31_1453,GazeFlow,2020.1.2,59.85046517055436,
15,Block807.xls,B,7,2,44,44,None,congruent,Right,Right,Left,83,80,3,blue,2,5,/home/docky/apps/exp/images/83Bi.jpeg,/home/docky/apps/exp/images/80B.jpeg,0,14,14,14,0,1,1,1,2148.5829973079963,None,2148.5829973079963,None,1,5.5954190290067345,2148.5829973079963,None,2154.2118709320202,None,2154.2118709320202,None,2156.714704885002,None,2156.714704885002,None,1.23376504497719,2158.518628367019,None,2158.518628367019,None,5,1,1.4520546739804558,2159.7386791790195,None,2159.7386791790195,None,2159.7386791790195,None,2161.207563856995,None,1,0.5342814640025608,2161.207563856995,None,156,2161.7585820850218,None,137,B,1,2021_May_31_1453,GazeFlow,2020.1.2,59.85046517055436,
15,Block807.xls,B,7,3,48,48,None,congruent,Right,Right,Left,39,38,1,blue,2,5,/home/docky/apps/exp/images/39Bi.jpeg,/home/docky/apps/exp/images/38B.jpeg,0,14,14,14,0,2,2,2,2162.760971362004,None,2162.760971362004,None,1,6.980907696997747,2162.760971362004,None,2169.7750063910207,None,2169.7750063910207,None,2172.2784845640126,None,2172.2784845640126,None,1.567784048995236,2174.0819588180166,None,2174.0819588180166,None,6,0,1.402039684006013,2175.636063990998,None,2175.636063990998,None,2175.636063990998,None,2177.054599958996,None,1,0.5682402949896641,2177.054599958996,None,154,2177.6391828990018,None,137,B,1,2021_May_31_1453,GazeFlow,2020.1.2,59.85046517055436,
15,Block807.xls,B,7,4,113,17,None,incongruent,Right,Left,Right,72,77,5,yellow,2,6,/home/docky/apps/exp/images/72Yi.jpeg,/home/docky/apps/exp/images/77Y.jpeg,0,14,14,14,0,3,3,3,2178.6413877220184,None,2178.6413877220184,None,1,5.862594240985345,2178.6413877220184,None,2184.537349181017,None,2184.537349181017,None,2187.0404710310104,None,2187.0404710310104,None,1.6180765760072973,2188.8390014500183,None,2188.8390014500183,None,6,1,1.2357159339881036,2190.4483211640036,None,2190.4483211640036,None,2190.4483211640036,None,2191.700492186006,None,1,0.6012822250195313,2191.700492186006,None,156,2192.3179307389946,None,137,B,1,2021_May_31_1453,GazeFlow,2020.1.2,59.85046517055436,
15,Block807.xls,B,7,5,69,69,None,congruent,Left,Left,Right,72,77,5,yellow,2,6,/home/docky/apps/exp/images/72Y.jpeg,/home/docky/apps/exp/images/77Yi.jpeg,0,14,14,14,0,4,4,4,2193.320654516021,None,2193.320654516021,None,1,5.995511806017021,2193.320654516021,None,2199.349351968005,None,2199.349351968005,None,2201.8522430970042,None,2201.8522430970042,None,1.5510683069878723,2203.6556554489944,None,2203.6556554489944,None,6,1,1.3193040509941056,2205.1935904700076,None,2205.1935904700076,None,2205.1935904700076,None,2206.5293428900186,None,1,0.5173549189930782,2206.5293428900186,None,158,2207.063387731003,None,137,B,1,2021_May_31_1453,GazeFlow,2020.1.2,59.85046517055436,
15,Block807.xls,B,7,6,39,39,None,congruent,Right,Right,Left,79,76,3,blue,2,5,/home/docky/apps/exp/images/79B.jpeg,/home/docky/apps/exp/images/76Bi.jpeg,0,14,14,14,0,5,5,5,2208.0652012870123,None,2208.0652012870123,None,1,6.029656678991159,2208.0652012870123,None,2214.129036487022,None,2214.129036487022,None,2216.631503167009,None,2216.631503167009,None,1.5849968080001418,2218.434911802993,None,2218.434911802993,None,5,1,1.2021596600243356,2220.005771505006,None,2220.005771505006,None,2220.005771505006,None,2221.224558359012,None,1,0.5172482059861068,2221.224558359012,None,160,2221.758538424998,None,137,B,1,2021_May_31_1453,GazeFlow,2020.1.2,59.85046517055436,
15,Block807.xls,B,7,7,50,50,None,congruent,Left,Left,Right,33,35,2,yellow,2,6,/home/docky/apps/exp/images/33Y.jpeg,/home/docky/apps/exp/images/35Yi.jpeg,0,14,14,14,0,6,6,6,2222.7607868009945,None,2222.7607868009945,None,1,5.928646551998099,2222.7607868009945,None,2228.723160902009,None,2228.723160902009,None,2231.226314808009,None,2231.226314808009,None,1.7014392830024008,2233.0299178230052,None,2233.0299178230052,None,5,0,1.2030469139863271,2234.7177019840165,None,2234.7177019840165,None,2234.7177019840165,None,2235.9366032580147,None,1,0.701078181999037,2235.9366032580147,None,158,2236.6539943730168,None,137,B,1,2021_May_31_1453,GazeFlow,2020.1.2,59.85046517055436,
15,Block807.xls,B,7,8,19,19,None,congruent,Left,Left,Right,76,79,3,blue,2,6,/home/docky/apps/exp/images/76B.jpeg,/home/docky/apps/exp/images/79Bi.jpeg,0,14,14,14,0,7,7,7,2237.656091279001,None,2237.656091279001,None,1,6.246248401002958,2237.656091279001,None,2243.936149892019,None,2243.936149892019,None,2246.441041383019,None,2246.441041383019,None,1.5678200690017547,2248.242866432003,None,2248.242866432003,None,6,1,1.5857635970169213,2249.7971360179945,None,2249.7971360179945,None,2249.7971360179945,None,2251.3997395000188,None,1,0.8012677069928031,2251.3997395000188,None,160,2252.217797276011,None,137,B,1,2021_May_31_1453,GazeFlow,2020.1.2,59.85046517055436,
15,Block807.xls,B,,,,,,,,,,,,,,,,,,0,14,14,14,,,,,,,,,,,,,,,,,,,,,,,,,,,,,,,,,,,,,,,,,,,,137,B,1,2021_May_31_1453,GazeFlow,2020.1.2,59.85046517055436,
