Nblock,condsFile,grouping,Block,TrialBlock,N,trialN,trialCond,gazeCon,gazedirR,corrBinR,corrBinP,valLBY,valRBY,diff,colorCube,feedbacktext,corrAns,imageL,imageR,SelBlocks.thisRepN,SelBlocks.thisTrialN,SelBlocks.thisN,SelBlocks.thisIndex,Trials.thisRepN,Trials.thisTrialN,Trials.thisN,Trials.thisIndex,waitCube.started,waitCube.stopped,text_3.started,text_3.stopped,StartKeyPress.keys,StartKeyPress.rt,StartKeyPress.started,StartKeyPress.stopped,StimL.started,StimL.stopped,StimR.started,StimR.stopped,imageStim2L.started,imageStim2L.stopped,imageStim2R.started,imageStim2R.stopped,RTkeyRelease,imageStim3L.started,imageStim3L.stopped,imageStim3R.started,imageStim3R.stopped,dropResp.keys,dropResp.corr,dropResp.rt,dropResp.started,dropResp.stopped,imageStim5L.started,imageStim5L.stopped,imageStim5R.started,imageStim5R.stopped,text_2.started,text_2.stopped,ReturnSpace.keys,ReturnSpace.rt,ReturnSpace.started,ReturnSpace.stopped,totalpoints,textFeedback.started,textFeedback.stopped,participant,group,session,date,expName,psychopyVersion,frameRate,
1,Block502.xls,A,2,1,93,33,22,incongruent,Left,Right,Left,38,35,3,blue,2,5,/home/docky/apps/exp/images/38B.jpeg,/home/docky/apps/exp/images/35Bi.jpeg,0,0,0,0,0,0,0,0,51.58968152900343,None,51.58968152900343,None,1,6.049059679004131,51.58968152900343,None,57.67531196100754,None,57.67531196100754,None,60.18941437601461,None,60.18941437601461,None,1.583667097002035,61.99321578099625,None,61.99321578099625,None,6,0,1.219105664989911,63.560017045994755,None,63.560017045994755,None,63.560017045994755,None,64.7956353490008,None,1,0.66749199401238,64.7956353490008,None,-2,65.480118159001,None,138,A,1,2021_May_31_1622,GazeFlow,2020.1.2,59.89756139244513,
1,Block502.xls,A,2,2,42,42,12,congruent,Right,Right,Left,83,80,3,blue,2,5,/home/docky/apps/exp/images/83Bi.jpeg,/home/docky/apps/exp/images/80B.jpeg,0,0,0,0,0,1,1,1,66.48172058298951,None,66.48172058298951,None,1,5.260983989021042,66.48172058298951,None,71.77656241800287,None,71.77656241800287,None,74.28116750801564,None,74.28116750801564,None,1.517814630002249,76.08318174799206,None,76.08318174799206,None,5,1,1.219537152996054,77.58714526501717,None,77.58714526501717,None,77.58714526501717,None,78.82274040899938,None,1,0.6843502529955003,78.82274040899938,None,0,79.52358608701616,None,138,A,1,2021_May_31_1622,GazeFlow,2020.1.2,59.89756139244513,
1,Block502.xls,A,2,3,9,9,11,congruent,Left,Left,Right,38,39,1,blue,2,6,/home/docky/apps/exp/images/38Bi.jpeg,/home/docky/apps/exp/images/39B.jpeg,0,0,0,0,0,2,2,2,80.52594969599159,None,80.52594969599159,None,1,4.876483168016421,80.52594969599159,None,85.43688412400661,None,85.43688412400661,None,87.94126268301625,None,87.94126268301625,None,1.5514618240122218,89.74464934298885,None,89.74464934298885,None,6,1,1.736725854978431,91.2805113499926,None,91.2805113499926,None,91.2805113499926,None,93.03349222999532,None,1,0.8350742119946517,93.03349222999532,None,2,93.88524139299989,None,138,A,1,2021_May_31_1622,GazeFlow,2020.1.2,59.89756139244513,
1,Block502.xls,A,2,4,23,23,11,congruent,Left,Left,Right,38,39,1,yellow,2,6,/home/docky/apps/exp/images/38Yi.jpeg,/home/docky/apps/exp/images/39Y.jpeg,0,0,0,0,0,3,3,3,94.8874197230034,None,94.8874197230034,None,1,5.026677896006731,94.8874197230034,None,99.94796788101667,None,99.94796788101667,None,102.4507632679888,None,102.4507632679888,None,1.1167585480143316,104.25470109601156,None,104.25470109601156,None,6,1,1.201807228004327,105.35783347900724,None,105.35783347900724,None,105.35783347900724,None,106.57593535399064,None,1,0.8687878309865482,106.57593535399064,None,4,107.46121538500302,None,138,A,1,2021_May_31_1622,GazeFlow,2020.1.2,59.89756139244513,
1,Block502.xls,A,2,5,57,57,12,congruent,Right,Right,Left,77,72,5,yellow,2,5,/home/docky/apps/exp/images/77Y.jpeg,/home/docky/apps/exp/images/72Yi.jpeg,0,0,0,0,0,4,4,4,108.46311009800411,None,108.46311009800411,None,1,4.77687274501659,108.46311009800411,None,113.27386064801249,None,113.27386064801249,None,115.77689357899362,None,115.77689357899362,None,1.4342433699930552,117.5746001189982,None,117.5746001189982,None,5,1,1.453001417015912,119.00125768600265,None,119.00125768600265,None,119.00125768600265,None,120.47028167301323,None,1,0.7516023920034058,120.47028167301323,None,6,121.23807056600344,None,138,A,1,2021_May_31_1622,GazeFlow,2020.1.2,59.89756139244513,
1,Block502.xls,A,2,6,118,58,22,incongruent,Left,Right,Left,80,79,1,yellow,2,5,/home/docky/apps/exp/images/80Yi.jpeg,/home/docky/apps/exp/images/79Y.jpeg,0,0,0,0,0,5,5,5,122.2403864270018,None,122.2403864270018,None,1,5.043854217976332,122.2403864270018,None,127.31767051201314,None,127.31767051201314,None,129.82238596701063,None,129.82238596701063,None,2.1022929530008696,131.6195896799909,None,131.6195896799909,None,5,1,1.4857860019837972,133.7127371300012,None,133.7127371300012,None,133.7127371300012,None,135.21507652601576,None,1,0.6515533259953372,135.21507652601576,None,8,135.8832617829903,None,138,A,1,2021_May_31_1622,GazeFlow,2020.1.2,59.89756139244513,
1,Block502.xls,A,2,7,101,41,22,incongruent,Left,Right,Left,83,80,3,blue,2,5,/home/docky/apps/exp/images/83Bi.jpeg,/home/docky/apps/exp/images/80B.jpeg,0,0,0,0,0,6,6,6,136.88563718099613,None,136.88563718099613,None,1,5.460751664999407,136.88563718099613,None,142.3802040030132,None,142.3802040030132,None,144.88349012398976,None,144.88349012398976,None,1.9187032070185523,146.6883544739976,None,146.6883544739976,None,5,1,1.3850925930019002,148.59191102301702,None,148.59191102301702,None,148.59191102301702,None,149.99390610301634,None,1,0.6178174279921222,149.99390610301634,None,10,150.62827960099094,None,138,A,1,2021_May_31_1622,GazeFlow,2020.1.2,59.89756139244513,
1,Block502.xls,A,2,8,69,9,21,incongruent,Right,Left,Right,73,76,3,blue,2,6,/home/docky/apps/exp/images/73B.jpeg,/home/docky/apps/exp/images/76Bi.jpeg,0,0,0,0,0,7,7,7,151.63113975399756,None,151.63113975399756,None,1,5.677563525998266,151.63113975399756,None,157.34287196799414,None,157.34287196799414,None,159.84603221600992,None,159.84603221600992,None,1.4343008849828038,161.64484043300035,None,161.64484043300035,None,6,1,1.2861656019813381,163.06998639801168,None,163.06998639801168,None,163.06998639801168,None,164.37224475399125,None,1,0.6676776369858999,164.37224475399125,None,12,165.0566273239965,None,138,A,1,2021_May_31_1622,GazeFlow,2020.1.2,59.89756139244513,
1,Block502.xls,A,,,,,,,,,,,,,,,,,,0,0,0,0,,,,,,,,,,,,,,,,,,,,,,,,,,,,,,,,,,,,,,,,,,,,138,A,1,2021_May_31_1622,GazeFlow,2020.1.2,59.89756139244513,
2,Block506.xls,A,6,1,120,60,22,incongruent,Left,Right,Left,80,79,1,yellow,2,5,/home/docky/apps/exp/images/80Yi.jpeg,/home/docky/apps/exp/images/79Y.jpeg,0,1,1,1,0,0,0,0,184.36277279700153,None,184.36277279700153,None,1,10.443319329991937,184.36277279700153,None,194.83597025301424,None,194.83597025301424,None,197.35363222201704,None,197.35363222201704,None,1.8844075130182318,199.1556486139889,None,199.1556486139889,None,5,1,1.352098876988748,201.02691524699912,None,201.02691524699912,None,201.02691524699912,None,202.39592624499346,None,1,0.6347386119887233,202.39592624499346,None,14,203.04681703599636,None,138,A,1,2021_May_31_1622,GazeFlow,2020.1.2,59.89756139244513,
2,Block506.xls,A,6,2,51,51,12,congruent,Right,Right,Left,66,65,1,yellow,2,5,/home/docky/apps/exp/images/66Y.jpeg,/home/docky/apps/exp/images/35Bi.jpeg,0,1,1,1,0,1,1,1,204.049380173994,None,204.049380173994,None,1,5.110190550010884,204.049380173994,None,209.19334147000336,None,209.19334147000336,None,211.69616123099695,None,211.69616123099695,None,1.3174421490111854,213.49505820899503,None,213.49505820899503,None,6,0,1.4695004129898734,214.8038042219996,None,214.8038042219996,None,214.8038042219996,None,216.28977069299435,None,1,0.6008700520033017,216.28977069299435,None,12,216.9075328920153,None,138,A,1,2021_May_31_1622,GazeFlow,2020.1.2,59.89756139244513,
2,Block506.xls,A,6,3,119,59,22,incongruent,Left,Right,Left,80,79,1,yellow,2,5,/home/docky/apps/exp/images/80Y.jpeg,/home/docky/apps/exp/images/79Yi.jpeg,0,1,1,1,0,2,2,2,217.90946107401396,None,217.90946107401396,None,1,5.0604325190070085,217.90946107401396,None,223.00349962498876,None,223.00349962498876,None,225.5123031870171,None,225.5123031870171,None,2.837718777009286,227.30975023598876,None,227.30975023598876,None,5,1,1.9545541339903139,230.1488047360035,None,230.1488047360035,None,230.1488047360035,None,232.12018428501324,None,1,0.6018170909956098,232.12018428501324,None,14,232.73842475999845,None,138,A,1,2021_May_31_1622,GazeFlow,2020.1.2,59.89756139244513,
2,Block506.xls,A,6,4,28,28,11,congruent,Left,Left,Right,72,77,5,yellow,2,6,/home/docky/apps/exp/images/72Y.jpeg,/home/docky/apps/exp/images/77Yi.jpeg,0,1,1,1,0,3,3,3,233.74053702599485,None,233.74053702599485,None,1,5.110438364994479,233.74053702599485,None,238.88427082501585,None,238.88427082501585,None,241.3890140450094,None,241.3890140450094,None,1.201047545997426,243.19083648800733,None,243.19083648800733,None,6,1,1.3029647899966221,244.3778300200065,None,244.3778300200065,None,244.3778300200065,None,245.69694605300901,None,1,0.6844128190132324,245.69694605300901,None,16,246.39787606798927,None,138,A,1,2021_May_31_1622,GazeFlow,2020.1.2,59.89756139244513,
2,Block506.xls,A,6,5,85,25,21,incongruent,Right,Left,Right,69,75,6,yellow,2,6,/home/docky/apps/exp/images/69Y.jpeg,/home/docky/apps/exp/images/76Yi.jpeg,0,1,1,1,0,4,4,4,247.39952903901576,None,247.39952903901576,None,1,4.54347979198792,247.39952903901576,None,251.97668746701675,None,251.97668746701675,None,254.481384239014,None,254.481384239014,None,1.3177369630138855,256.28335355600575,None,256.28335355600575,None,6,1,1.2187207599927206,257.5868882359937,None,257.5868882359937,None,257.5868882359937,None,258.8218238950067,None,1,0.4844832980015781,258.8218238950067,None,18,259.3228442349937,None,138,A,1,2021_May_31_1622,GazeFlow,2020.1.2,59.89756139244513,
2,Block506.xls,A,6,6,71,11,21,incongruent,Right,Left,Right,76,79,3,blue,2,6,/home/docky/apps/exp/images/76B.jpeg,/home/docky/apps/exp/images/79Bi.jpeg,0,1,1,1,0,5,5,5,260.3249908570142,None,260.3249908570142,None,1,4.526446749980096,260.3249908570142,None,264.88477468301426,None,264.88477468301426,None,267.38948425100534,None,267.38948425100534,None,1.8183442519803066,269.19183053300367,None,269.19183053300367,None,6,1,1.2520253410039004,270.9961492170114,None,270.9961492170114,None,270.9961492170114,None,272.26443451599334,None,1,0.5678958110220265,272.26443451599334,None,20,272.84903488101554,None,138,A,1,2021_May_31_1622,GazeFlow,2020.1.2,59.89756139244513,
2,Block506.xls,A,6,7,56,56,12,congruent,Right,Right,Left,76,69,7,yellow,2,5,/home/docky/apps/exp/images/76Yi.jpeg,/home/docky/apps/exp/images/69Y.jpeg,0,1,1,1,0,6,6,6,273.85175167699344,None,273.85175167699344,None,1,4.208767463016557,273.85175167699344,None,278.097592361999,None,278.097592361999,None,280.5986989219964,None,280.5986989219964,None,1.0166638739756308,282.40218365201144,None,282.40218365201144,None,5,1,1.1013317049946636,283.4038862840098,None,283.4038862840098,None,283.4038862840098,None,284.52194996899925,None,1,0.6183196310012136,284.52194996899925,None,22,285.15685432299506,None,138,A,1,2021_May_31_1622,GazeFlow,2020.1.2,59.89756139244513,
2,Block506.xls,A,6,8,33,33,12,congruent,Right,Right,Left,38,35,3,blue,2,5,/home/docky/apps/exp/images/38B.jpeg,/home/docky/apps/exp/images/35Bi.jpeg,0,1,1,1,0,7,7,7,286.15835067699663,None,286.15835067699663,None,1,5.228101082000649,286.15835067699663,None,291.4195988640131,None,291.4195988640131,None,293.9228401220171,None,293.9228401220171,None,2.2361903819837607,295.7264736169891,None,295.7264736169891,None,5,1,1.1351032450038474,297.9484375999891,None,297.9484375999891,None,297.9484375999891,None,299.10025801399024,None,1,0.5014868649886921,299.10025801399024,None,24,299.61764560599113,None,138,A,1,2021_May_31_1622,GazeFlow,2020.1.2,59.89756139244513,
2,Block506.xls,A,,,,,,,,,,,,,,,,,,0,1,1,1,,,,,,,,,,,,,,,,,,,,,,,,,,,,,,,,,,,,,,,,,,,,138,A,1,2021_May_31_1622,GazeFlow,2020.1.2,59.89756139244513,
3,Block505.xls,A,5,1,1,1,11,congruent,Left,Left,Right,16,19,3,blue,2,6,/home/docky/apps/exp/images/16Bi.jpeg,/home/docky/apps/exp/images/19B.jpeg,0,2,2,2,0,0,0,0,322.13049992499873,None,322.13049992499873,None,1,6.168484499998158,322.13049992499873,None,328.33198890899075,None,328.33198890899075,None,330.84637946699513,None,330.84637946699513,None,1.4003570040222257,332.64397474,None,332.64397474,None,6,1,1.3359269899956416,334.035723923007,None,334.035723923007,None,334.035723923007,None,335.38775435101707,None,1,0.5006545049836859,335.38775435101707,None,26,335.9049429820152,None,138,A,1,2021_May_31_1622,GazeFlow,2020.1.2,59.89756139244513,
3,Block505.xls,A,5,2,10,10,11,congruent,Left,Left,Right,73,76,3,blue,2,6,/home/docky/apps/exp/images/73B.jpeg,/home/docky/apps/exp/images/76Bi.jpeg,0,2,2,2,0,1,1,1,336.90711978598847,None,336.90711978598847,None,1,4.509333402005723,336.90711978598847,None,341.45028605501284,None,341.45028605501284,None,343.9552823220147,None,343.9552823220147,None,2.235855898994487,345.75718349800445,None,345.75718349800445,None,5,0,1.319119784020586,347.9791281890066,None,347.9791281890066,None,347.9791281890066,None,349.31440783198923,None,1,0.4675291239982471,349.31440783198923,None,24,349.79877017301624,None,138,A,1,2021_May_31_1622,GazeFlow,2020.1.2,59.89756139244513,
3,Block505.xls,A,5,3,95,35,22,incongruent,Left,Right,Left,66,65,1,blue,2,5,/home/docky/apps/exp/images/66B.jpeg,/home/docky/apps/exp/images/35Yi.jpeg,0,2,2,2,0,2,2,2,350.80110323400004,None,350.80110323400004,None,1,5.2604320620012,350.80110323400004,None,356.09514811099507,None,356.09514811099507,None,358.59820025600493,None,358.59820025600493,None,2.436441844998626,360.4017897460144,None,360.4017897460144,None,6,0,1.284666154999286,362.8252462520031,None,362.8252462520031,None,362.8252462520031,None,364.1263881959894,None,1,0.4347931759839412,364.1263881959894,None,22,364.5777962130087,None,138,A,1,2021_May_31_1622,GazeFlow,2020.1.2,59.89756139244513,
3,Block505.xls,A,5,4,46,46,12,congruent,Right,Right,Left,35,33,2,yellow,2,5,/home/docky/apps/exp/images/35Yi.jpeg,/home/docky/apps/exp/images/33Y.jpeg,0,2,2,2,0,3,3,3,365.579750186007,None,365.579750186007,None,1,4.893153262004489,365.579750186007,None,370.50665986700915,None,370.50665986700915,None,373.00980383201386,None,373.00980383201386,None,1.4342447200033348,374.813158673991,None,374.813158673991,None,5,1,1.1518277559953276,376.2341096890159,None,376.2341096890159,None,376.2341096890159,None,377.4027853629959,None,1,0.45053355101845227,377.4027853629959,None,24,377.869737541012,None,138,A,1,2021_May_31_1622,GazeFlow,2020.1.2,59.89756139244513,
3,Block505.xls,A,5,5,78,18,21,incongruent,Right,Left,Right,65,66,1,yellow,2,6,/home/docky/apps/exp/images/35Bi.jpeg,/home/docky/apps/exp/images/66Y.jpeg,0,2,2,2,0,4,4,4,378.8717669720063,None,378.8717669720063,None,1,4.810619272000622,378.8717669720063,None,383.7156805279956,None,383.7156805279956,None,386.21895939001115,None,386.21895939001115,None,1.350860690989066,388.0215915259905,None,388.0215915259905,None,5,0,1.2184095020056702,389.3594727650052,None,389.3594727650052,None,389.3594727650052,None,390.59449645801215,None,1,0.5010744879837148,390.59449645801215,None,22,391.11231560999295,None,138,A,1,2021_May_31_1622,GazeFlow,2020.1.2,59.89756139244513,
3,Block505.xls,A,5,6,43,43,12,congruent,Right,Right,Left,83,80,3,blue,2,5,/home/docky/apps/exp/images/83B.jpeg,/home/docky/apps/exp/images/80Bi.jpeg,0,2,2,2,0,5,5,5,392.11409128500964,None,392.11409128500964,None,1,6.363241817976814,392.11409128500964,None,398.51084377401276,None,398.51084377401276,None,401.0142947860004,None,401.0142947860004,None,1.3172504309914075,402.81949148801505,None,402.81949148801505,None,5,1,2.2037346099969,404.1214169540035,None,404.1214169540035,None,404.1214169540035,None,406.3417730520014,None,1,0.5678315619879868,406.3417730520014,None,24,406.9262748530018,None,138,A,1,2021_May_31_1622,GazeFlow,2020.1.2,59.89756139244513,
3,Block505.xls,A,5,7,44,44,12,congruent,Right,Right,Left,39,38,1,blue,2,5,/home/docky/apps/exp/images/39Bi.jpeg,/home/docky/apps/exp/images/38B.jpeg,0,2,2,2,0,6,6,6,407.92872347700177,None,407.92872347700177,None,1,5.611154422018444,407.92872347700177,None,413.57866575499065,None,413.57866575499065,None,416.07703533099266,None,416.07703533099266,None,2.8876672979968134,417.8799072300026,None,417.8799072300026,None,6,0,1.3537092470214702,420.7688304409967,None,420.7688304409967,None,420.7688304409967,None,422.1391415790131,None,1,0.4340494089992717,422.1391415790131,None,22,422.59024367600796,None,138,A,1,2021_May_31_1622,GazeFlow,2020.1.2,59.89756139244513,
3,Block505.xls,A,5,8,116,56,22,incongruent,Left,Right,Left,77,72,5,yellow,2,5,/home/docky/apps/exp/images/77Y.jpeg,/home/docky/apps/exp/images/72Y.jpeg,0,2,2,2,0,7,7,7,423.59244649199536,None,423.59244649199536,None,1,4.843422189995181,423.59244649199536,None,428.47343440700206,None,428.47343440700206,None,430.9721922780154,None,430.9721922780154,None,0.9504481159965508,432.7751108579978,None,432.7751108579978,None,6,0,1.3689035789866466,433.71203727799,None,433.71203727799,None,433.71203727799,None,435.09809446899453,None,1,0.23404266900615767,435.09809446899453,None,20,435.3486103969917,None,138,A,1,2021_May_31_1622,GazeFlow,2020.1.2,59.89756139244513,
3,Block505.xls,A,,,,,,,,,,,,,,,,,,0,2,2,2,,,,,,,,,,,,,,,,,,,,,,,,,,,,,,,,,,,,,,,,,,,,138,A,1,2021_May_31_1622,GazeFlow,2020.1.2,59.89756139244513,
4,Block509.xls,A,9,1,34,34,12,congruent,Right,Right,Left,38,35,3,blue,2,5,/home/docky/apps/exp/images/38Bi.jpeg,/home/docky/apps/exp/images/35B.jpeg,0,3,3,3,0,0,0,0,458.5437121189898,None,458.5437121189898,None,1,6.435938709997572,458.5437121189898,None,465.0132568060071,None,465.0132568060071,None,467.5285442979948,None,467.5285442979948,None,2.0350944779929705,469.33226934599224,None,469.33226934599224,None,5,1,1.2185662510164548,471.3519244279887,None,471.3519244279887,None,471.3519244279887,None,472.5871090540022,None,1,0.5008751789864618,472.5871090540022,None,22,473.10477653500857,None,138,A,1,2021_May_31_1622,GazeFlow,2020.1.2,59.89756139244513,
4,Block509.xls,A,9,2,7,7,11,congruent,Left,Left,Right,65,66,1,blue,2,6,/home/docky/apps/exp/images/35Yi.jpeg,/home/docky/apps/exp/images/66B.jpeg,0,3,3,3,0,1,1,1,474.1073955539905,None,474.1073955539905,None,1,5.077136606996646,474.1073955539905,None,479.2176810379897,None,479.2176810379897,None,481.7226731289993,None,481.7226731289993,None,1.8184229329926893,483.5189968759951,None,483.5189968759951,None,5,0,2.1704516989993863,485.3292796809983,None,485.3292796809983,None,485.3292796809983,None,487.51603561401134,None,1,0.5012301520036999,487.51603561401134,None,20,488.03381748101674,None,138,A,1,2021_May_31_1622,GazeFlow,2020.1.2,59.89756139244513,
4,Block509.xls,A,9,3,74,14,21,incongruent,Right,Left,Right,80,83,3,blue,2,6,/home/docky/apps/exp/images/80B.jpeg,/home/docky/apps/exp/images/83Bi.jpeg,0,3,3,3,0,2,2,2,489.03630514699034,None,489.03630514699034,None,1,6.128855371003738,489.03630514699034,None,495.1989197200164,None,495.1989197200164,None,497.7022533619893,None,497.7022533619893,None,1.7013378900010139,499.50089947500965,None,499.50089947500965,None,6,1,1.3019788860110566,501.19345701500424,None,501.19345701500424,None,501.19345701500424,None,502.5119825080037,None,1,0.8183598339965101,502.5119825080037,None,22,503.34681820400874,None,138,A,1,2021_May_31_1622,GazeFlow,2020.1.2,59.89756139244513,
4,Block509.xls,A,9,4,19,19,11,congruent,Left,Left,Right,65,66,1,yellow,2,6,/home/docky/apps/exp/images/35Bi.jpeg,/home/docky/apps/exp/images/66Y.jpeg,0,3,3,3,0,3,3,3,504.34920043699094,None,504.34920043699094,None,1,4.592684318020474,504.34920043699094,None,508.97503970199614,None,508.97503970199614,None,511.4786944219959,None,511.4786944219959,None,2.753946420009015,513.2822183840035,None,513.2822183840035,None,6,1,1.2538305529742502,516.0371857910068,None,516.0371857910068,None,516.0371857910068,None,517.3073012380046,None,1,0.384478127991315,517.3073012380046,None,24,517.7081070179993,None,138,A,1,2021_May_31_1622,GazeFlow,2020.1.2,59.89756139244513,
4,Block509.xls,A,9,5,60,60,12,congruent,Right,Right,Left,80,79,1,yellow,2,5,/home/docky/apps/exp/images/80Yi.jpeg,/home/docky/apps/exp/images/79Y.jpeg,0,3,3,3,0,4,4,4,518.7105805230094,None,518.7105805230094,None,1,4.442026564996922,518.7105805230094,None,523.1866095729929,None,523.1866095729929,None,525.6897386820056,None,525.6897386820056,None,1.3506135609932244,527.4877219700138,None,527.4877219700138,None,5,1,1.1357919720176142,528.8304753559933,None,528.8304753559933,None,528.8304753559933,None,529.9824800789938,None,1,0.5169221969845239,529.9824800789938,None,26,530.5164646810153,None,138,A,1,2021_May_31_1622,GazeFlow,2020.1.2,59.89756139244513,
4,Block509.xls,A,9,6,83,23,21,incongruent,Right,Left,Right,38,39,1,yellow,2,6,/home/docky/apps/exp/images/38Yi.jpeg,/home/docky/apps/exp/images/39Y.jpeg,0,3,3,3,0,5,5,5,531.5183652540145,None,531.5183652540145,None,1,5.3615444480092265,531.5183652540145,None,536.9131735010014,None,536.9131735010014,None,539.4165940879902,None,539.4165940879902,None,1.7518664240196813,541.2199116369884,None,541.2199116369884,None,6,1,1.368859912006883,542.9578175620118,None,542.9578175620118,None,542.9578175620118,None,544.3432192699984,None,1,0.40077221899991855,544.3432192699984,None,28,544.7606851900055,None,138,A,1,2021_May_31_1622,GazeFlow,2020.1.2,59.89756139244513,
4,Block509.xls,A,9,7,4,4,11,congruent,Left,Left,Right,35,38,3,blue,2,6,/home/docky/apps/exp/images/35B.jpeg,/home/docky/apps/exp/images/38Bi.jpeg,0,3,3,3,0,6,6,6,545.7631034500082,None,545.7631034500082,None,1,4.659722811018582,545.7631034500082,None,550.4562622109952,None,550.4562622109952,None,552.9594541859988,None,552.9594541859988,None,1.6848224319983274,554.7629167080158,None,554.7629167080158,None,6,1,1.0854551910015289,556.4340638430149,None,556.4340638430149,None,556.4340638430149,None,557.5359257940145,None,1,0.4842275510018226,557.5359257940145,None,30,558.0368502819911,None,138,A,1,2021_May_31_1622,GazeFlow,2020.1.2,59.89756139244513,
4,Block509.xls,A,9,8,24,24,11,congruent,Left,Left,Right,38,39,1,yellow,2,6,/home/docky/apps/exp/images/38Y.jpeg,/home/docky/apps/exp/images/39Yi.jpeg,0,3,3,3,0,7,7,7,559.0390151499887,None,559.0390151499887,None,1,3.9578862549969926,559.0390151499887,None,563.0307195270143,None,563.0307195270143,None,565.5355983049958,None,565.5355983049958,None,1.9851443149964325,567.3376860760036,None,567.3376860760036,None,6,1,1.2186858390050475,569.3088206720131,None,569.3088206720131,None,569.3088206720131,None,570.5441167870013,None,1,0.3506883869995363,570.5441167870013,None,32,570.9116763779894,None,138,A,1,2021_May_31_1622,GazeFlow,2020.1.2,59.89756139244513,
4,Block509.xls,A,,,,,,,,,,,,,,,,,,0,3,3,3,,,,,,,,,,,,,,,,,,,,,,,,,,,,,,,,,,,,,,,,,,,,138,A,1,2021_May_31_1622,GazeFlow,2020.1.2,59.89756139244513,
5,Block504.xls,A,4,1,11,11,11,congruent,Left,Left,Right,73,76,3,blue,2,6,/home/docky/apps/exp/images/73Bi.jpeg,/home/docky/apps/exp/images/76B.jpeg,0,4,4,4,0,0,0,0,591.418379367009,None,591.418379367009,None,1,6.036115931987297,591.418379367009,None,597.4852455910004,None,597.4852455910004,None,600.0024132870021,None,600.0024132870021,None,1.600693002983462,601.8041172999947,None,601.8041172999947,None,6,1,1.81971863398212,603.39205622999,None,603.39205622999,None,603.39205622999,None,605.2280943490041,None,1,0.41739774501184,605.2280943490041,None,34,605.6623832850019,None,138,A,1,2021_May_31_1622,GazeFlow,2020.1.2,59.89756139244513,
5,Block504.xls,A,4,2,87,27,21,incongruent,Right,Left,Right,72,77,5,yellow,2,6,/home/docky/apps/exp/images/72Y.jpeg,/home/docky/apps/exp/images/77Yi.jpeg,0,4,4,4,0,1,1,1,606.664749078016,None,606.664749078016,None,1,4.375499378016684,606.664749078016,None,611.0738319949887,None,611.0738319949887,None,613.5772021320008,None,613.5772021320008,None,1.4513327580061741,615.3797917769989,None,615.3797917769989,None,6,1,1.2024677389999852,616.8180325329886,None,616.8180325329886,None,616.8180325329886,None,618.0368023359915,None,1,0.3671519729832653,618.0368023359915,None,36,618.4206441050046,None,138,A,1,2021_May_31_1622,GazeFlow,2020.1.2,59.89756139244513,
5,Block504.xls,A,4,3,48,48,12,congruent,Right,Right,Left,39,38,1,yellow,2,5,/home/docky/apps/exp/images/39Yi.jpeg,/home/docky/apps/exp/images/38Y.jpeg,0,4,4,4,0,2,2,2,619.4225745119911,None,619.4225745119911,None,1,4.008715536998352,619.4225745119911,None,623.4645059820032,None,623.4645059820032,None,625.967708696,None,625.967708696,None,2.0188321139721666,627.7711002390133,None,627.7711002390133,None,6,0,1.3854845949972514,629.7765334339929,None,629.7765334339929,None,629.7765334339929,None,631.1786229939898,None,1,0.36740836198441684,631.1786229939898,None,34,631.5625682600075,None,138,A,1,2021_May_31_1622,GazeFlow,2020.1.2,59.89756139244513,
5,Block504.xls,A,4,4,38,38,12,congruent,Right,Right,Left,79,73,6,blue,2,5,/home/docky/apps/exp/images/79B.jpeg,/home/docky/apps/exp/images/73Bi.jpeg,0,4,4,4,0,3,3,3,632.5651428870042,None,632.5651428870042,None,1,4.34238861798076,632.5651428870042,None,636.940960189997,None,636.940960189997,None,639.4433710080048,None,639.4433710080048,None,1.0503052540007047,641.2468487180013,None,641.2468487180013,None,5,1,1.2185125169926323,642.2841973530012,None,642.2841973530012,None,642.2841973530012,None,643.5194708339986,None,1,0.518467543006409,643.5194708339986,None,36,644.054035239009,None,138,A,1,2021_May_31_1622,GazeFlow,2020.1.2,59.89756139244513,
5,Block504.xls,A,4,5,2,2,11,congruent,Left,Left,Right,16,19,3,blue,2,6,/home/docky/apps/exp/images/16B.jpeg,/home/docky/apps/exp/images/19Bi.jpeg,0,4,4,4,0,4,4,4,645.0555122919905,None,645.0555122919905,None,1,4.877334090997465,645.0555122919905,None,649.9662548709894,None,649.9662548709894,None,652.4691739359987,None,652.4691739359987,None,1.1002541499910876,654.2722799589974,None,654.2722799589974,None,6,1,3.8406343960086815,655.3595479489886,None,655.3595479489886,None,655.3595479489886,None,659.2169811440108,None,1,1.7535425170208327,659.2169811440108,None,38,660.9869407520164,None,138,A,1,2021_May_31_1622,GazeFlow,2020.1.2,59.89756139244513,
5,Block504.xls,A,4,6,73,13,21,incongruent,Right,Left,Right,80,83,3,blue,2,6,/home/docky/apps/exp/images/80Bi.jpeg,/home/docky/apps/exp/images/83B.jpeg,0,4,4,4,0,5,5,5,661.988941566,None,661.988941566,None,1,5.377691595000215,661.988941566,None,667.4026243519911,None,667.4026243519911,None,669.9031006809964,None,669.9031006809964,None,1.9186982109968085,671.7067254130088,None,671.7067254130088,None,6,1,1.2687918390147388,673.6115772060002,None,673.6115772060002,None,673.6115772060002,None,674.8970048610063,None,1,0.4340558009862434,674.8970048610063,None,40,675.3476212449896,None,138,A,1,2021_May_31_1622,GazeFlow,2020.1.2,59.89756139244513,
5,Block504.xls,A,4,7,63,3,21,incongruent,Right,Left,Right,35,38,3,blue,2,6,/home/docky/apps/exp/images/35B.jpeg,/home/docky/apps/exp/images/38Bi.jpeg,0,4,4,4,0,6,6,6,676.3500750809908,None,676.3500750809908,None,1,4.409349350986304,676.3500750809908,None,680.7910107999924,None,680.7910107999924,None,683.2962766799901,None,683.2962766799901,None,2.42017770500388,685.0997041120136,None,685.0997041120136,None,6,1,6.5286172539927065,687.5228410150157,None,687.5228410150157,None,687.5228410150157,None,694.0677917930007,None,1,0.6853981309977826,694.0677917930007,None,42,694.7691762149916,None,138,A,1,2021_May_31_1622,GazeFlow,2020.1.2,59.89756139244513,
5,Block504.xls,A,4,8,86,26,21,incongruent,Right,Left,Right,72,77,5,yellow,2,6,/home/docky/apps/exp/images/72Yi.jpeg,/home/docky/apps/exp/images/77Y.jpeg,0,4,4,4,0,7,7,7,695.7712264180009,None,695.7712264180009,None,1,5.226975334982853,695.7712264180009,None,701.032212118007,None,701.032212118007,None,703.5356434390123,None,703.5356434390123,None,1.9186960560036823,705.3379896380065,None,705.3379896380065,None,6,1,2.3374875280132983,707.2436937550083,None,707.2436937550083,None,707.2436937550083,None,709.5979482379917,None,1,0.8189407610043418,709.5979482379917,None,44,710.4330481819925,None,138,A,1,2021_May_31_1622,GazeFlow,2020.1.2,59.89756139244513,
5,Block504.xls,A,,,,,,,,,,,,,,,,,,0,4,4,4,,,,,,,,,,,,,,,,,,,,,,,,,,,,,,,,,,,,,,,,,,,,138,A,1,2021_May_31_1622,GazeFlow,2020.1.2,59.89756139244513,
6,Block511.xls,A,11,1,15,15,11,congruent,Left,Left,Right,80,83,3,blue,2,6,/home/docky/apps/exp/images/80Bi.jpeg,/home/docky/apps/exp/images/83B.jpeg,0,5,5,5,0,0,0,0,747.4027769539971,None,747.4027769539971,None,1,5.502032753982348,747.4027769539971,None,752.9371546189941,None,752.9371546189941,None,755.4545756299922,None,755.4545756299922,None,1.4002575160120614,757.2580289420148,None,757.2580289420148,None,6,1,1.1186977319885045,758.6436284200172,None,758.6436284200172,None,758.6436284200172,None,759.7788774580113,None,1,0.6509336220042314,759.7788774580113,None,46,760.4463088930061,None,138,A,1,2021_May_31_1622,GazeFlow,2020.1.2,59.89756139244513,
6,Block511.xls,A,11,2,105,45,22,incongruent,Left,Right,Left,39,38,1,blue,2,5,/home/docky/apps/exp/images/39Bi.jpeg,/home/docky/apps/exp/images/38B.jpeg,0,5,5,5,0,1,1,1,761.4482147060044,None,761.4482147060044,None,1,5.328058543993393,761.4482147060044,None,766.813700432016,None,766.813700432016,None,769.3130285560037,None,769.3130285560037,None,1.3510203319892753,771.1163686370128,None,771.1163686370128,None,6,0,1.202230219001649,772.453782038996,None,772.453782038996,None,772.453782038996,None,773.6725232930039,None,1,0.5510578930261545,773.6725232930039,None,44,774.2396861340094,None,138,A,1,2021_May_31_1622,GazeFlow,2020.1.2,59.89756139244513,
6,Block511.xls,A,11,3,68,8,21,incongruent,Right,Left,Right,38,39,1,blue,2,6,/home/docky/apps/exp/images/38B.jpeg,/home/docky/apps/exp/images/39Bi.jpeg,0,5,5,5,0,2,2,2,775.241980819992,None,775.241980819992,None,1,5.060676923982101,775.241980819992,None,780.336153835,None,780.336153835,None,782.8385287139972,None,782.8385287139972,None,2.336429565009894,784.6374722960172,None,784.6374722960172,None,5,0,1.0540011800185312,786.9797579770093,None,786.9797579770093,None,786.9797579770093,None,788.0500704229926,None,1,0.584536117996322,788.0500704229926,None,42,788.6511628880107,None,138,A,1,2021_May_31_1622,GazeFlow,2020.1.2,59.89756139244513,
6,Block511.xls,A,11,4,80,20,21,incongruent,Right,Left,Right,62,65,3,yellow,2,6,/home/docky/apps/exp/images/38Bi.jpeg,/home/docky/apps/exp/images/35B.jpeg,0,5,5,5,0,3,3,3,789.6533913860039,None,789.6533913860039,None,1,5.461385536997113,789.6533913860039,None,795.1480640910158,None,795.1480640910158,None,797.6360360860126,None,797.6360360860126,None,2.971173930010991,799.4545486360148,None,799.4545486360148,None,5,0,3.8422706539859064,802.427188414993,None,802.427188414993,None,802.427188414993,None,806.2858956439886,None,1,0.5685828330169898,806.2858956439886,None,40,806.8703386159905,None,138,A,1,2021_May_31_1622,GazeFlow,2020.1.2,59.89756139244513,
6,Block511.xls,A,11,5,5,5,11,congruent,Left,Left,Right,65,66,1,blue,2,6,/home/docky/apps/exp/images/35Yi.jpeg,/home/docky/apps/exp/images/66B.jpeg,0,5,5,5,0,4,4,4,807.8724033920153,None,807.8724033920153,None,1,5.310497933998704,807.8724033920153,None,813.216622559994,None,813.216622559994,None,815.7199995760166,None,815.7199995760166,None,2.754064587992616,817.5185445770039,None,817.5185445770039,None,6,1,2.2036279960011598,820.2800577820162,None,820.2800577820162,None,820.2800577820162,None,822.5002566309995,None,1,0.4852938020194415,822.5002566309995,None,42,823.0016982220113,None,138,A,1,2021_May_31_1622,GazeFlow,2020.1.2,59.89756139244513,
6,Block511.xls,A,11,6,18,18,11,congruent,Left,Left,Right,65,66,1,yellow,2,6,/home/docky/apps/exp/images/35B.jpeg,/home/docky/apps/exp/images/66Yi.jpeg,0,5,5,5,0,5,5,5,824.0037047649967,None,824.0037047649967,None,1,4.425543392979307,824.0037047649967,None,828.4629460140131,None,828.4629460140131,None,830.9674417510105,None,830.9674417510105,None,2.419759532000171,832.769381769991,None,832.769381769991,None,6,1,1.3514806060120463,835.1760690110095,None,835.1760690110095,None,835.1760690110095,None,836.5443512859929,None,1,0.6179890409985092,836.5443512859929,None,44,837.1796098540071,None,138,A,1,2021_May_31_1622,GazeFlow,2020.1.2,59.89756139244513,
6,Block511.xls,A,11,7,25,25,11,congruent,Left,Left,Right,69,75,6,yellow,2,6,/home/docky/apps/exp/images/69Yi.jpeg,/home/docky/apps/exp/images/76Y.jpeg,0,5,5,5,0,6,6,6,838.1809964679996,None,838.1809964679996,None,1,4.475754036975559,838.1809964679996,None,842.6906872190011,None,842.6906872190011,None,845.1937641440018,None,845.1937641440018,None,1.7848913230118342,846.9972264789976,None,846.9972264789976,None,6,1,1.3521108590066433,848.768732505996,None,848.768732505996,None,848.768732505996,None,850.137508165004,None,1,0.5842629420221783,850.137508165004,None,46,850.7386923099984,None,138,A,1,2021_May_31_1622,GazeFlow,2020.1.2,59.89756139244513,
6,Block511.xls,A,11,8,3,3,11,congruent,Left,Left,Right,35,38,3,blue,2,6,/home/docky/apps/exp/images/35Bi.jpeg,/home/docky/apps/exp/images/38B.jpeg,0,5,5,5,0,7,7,7,851.7406356699939,None,851.7406356699939,None,1,5.310842663020594,851.7406356699939,None,857.0852944700164,None,857.0852944700164,None,859.591806114011,None,859.591806114011,None,1.2004806929908227,861.3917097760132,None,861.3917097760132,None,6,1,1.2523734610003885,862.5789124020084,None,862.5789124020084,None,862.5789124020084,None,863.8477237460029,None,1,0.6174891350092366,863.8477237460029,None,48,864.4818122620054,None,138,A,1,2021_May_31_1622,GazeFlow,2020.1.2,59.89756139244513,
6,Block511.xls,A,,,,,,,,,,,,,,,,,,0,5,5,5,,,,,,,,,,,,,,,,,,,,,,,,,,,,,,,,,,,,,,,,,,,,138,A,1,2021_May_31_1622,GazeFlow,2020.1.2,59.89756139244513,
7,Block508.xls,A,8,1,13,13,11,congruent,Left,Left,Right,76,79,3,blue,2,6,/home/docky/apps/exp/images/76Bi.jpeg,/home/docky/apps/exp/images/79B.jpeg,0,6,6,6,0,0,0,0,887.2784555699909,None,887.2784555699909,None,1,5.601243448996684,887.2784555699909,None,892.9088121300156,None,892.9088121300156,None,895.4274045840139,None,895.4274045840139,None,1.2495990359748248,897.2283539249911,None,897.2283539249911,None,6,1,1.2196296709880698,898.4649722960021,None,898.4649722960021,None,898.4649722960021,None,899.7004488749953,None,1,0.6177770200010855,899.7004488749953,None,50,900.3349451260001,None,138,A,1,2021_May_31_1622,GazeFlow,2020.1.2,59.89756139244513,
7,Block508.xls,A,8,2,21,21,11,congruent,Left,Left,Right,62,65,3,yellow,2,6,/home/docky/apps/exp/images/38B.jpeg,/home/docky/apps/exp/images/35Bi.jpeg,0,6,6,6,0,1,1,1,901.3364846789918,None,901.3364846789918,None,1,4.292711980990134,901.3364846789918,None,905.6629476239905,None,905.6629476239905,None,908.1678803070099,None,908.1678803070099,None,2.3355591710133012,909.9713007300161,None,909.9713007300161,None,5,0,1.7694710539944936,912.2921599510009,None,912.2921599510009,None,912.2921599510009,None,914.0780712510168,None,1,0.5345822410017718,914.0780712510168,None,48,914.6290709320165,None,138,A,1,2021_May_31_1622,GazeFlow,2020.1.2,59.89756139244513,
7,Block508.xls,A,8,3,99,39,22,incongruent,Left,Right,Left,79,76,3,blue,2,5,/home/docky/apps/exp/images/79Bi.jpeg,/home/docky/apps/exp/images/76B.jpeg,0,6,6,6,0,2,2,2,915.6318112839945,None,915.6318112839945,None,1,4.759366255020723,915.6318112839945,None,920.4249254339957,None,920.4249254339957,None,922.9281802680052,None,922.9281802680052,None,1.8855185729917139,924.7315754790034,None,924.7315754790034,None,5,1,1.3686515930166934,926.6032346930006,None,926.6032346930006,None,926.6032346930006,None,927.988794511999,None,1,0.567519842996262,927.988794511999,None,50,928.5731230590027,None,138,A,1,2021_May_31_1622,GazeFlow,2020.1.2,59.89756139244513,
7,Block508.xls,A,8,4,37,37,12,congruent,Right,Right,Left,66,65,1,blue,2,5,/home/docky/apps/exp/images/66Bi.jpeg,/home/docky/apps/exp/images/35Y.jpeg,0,6,6,6,0,3,3,3,929.5754822820018,None,929.5754822820018,None,1,4.943548581999494,929.5754822820018,None,934.5555846540083,None,934.5555846540083,None,937.0552531270077,None,937.0552531270077,None,2.0187798329861835,938.8582063739887,None,938.8582063739887,None,5,1,1.2686413350165822,940.8639186200162,None,940.8639186200162,None,940.8639186200162,None,942.1493345710041,None,1,0.5342150139913429,942.1493345710041,None,52,942.7002226719924,None,138,A,1,2021_May_31_1622,GazeFlow,2020.1.2,59.89756139244513,
7,Block508.xls,A,8,5,82,22,21,incongruent,Right,Left,Right,38,39,1,yellow,2,6,/home/docky/apps/exp/images/38Y.jpeg,/home/docky/apps/exp/images/39Yi.jpeg,0,6,6,6,0,4,4,4,943.7029140850063,None,943.7029140850063,None,1,4.776192882010946,943.7029140850063,None,948.5129511209961,None,948.5129511209961,None,951.0176340480102,None,951.0176340480102,None,3.0546699190163054,952.8189698829956,None,952.8189698829956,None,5,0,1.3198829239991028,955.8756295880012,None,955.8756295880012,None,955.8756295880012,None,957.2119470399921,None,1,0.4844308600004297,957.2119470399921,None,50,957.7128871419991,None,138,A,1,2021_May_31_1622,GazeFlow,2020.1.2,59.89756139244513,
7,Block508.xls,A,8,6,104,44,22,incongruent,Left,Right,Left,39,38,1,blue,2,5,/home/docky/apps/exp/images/39B.jpeg,/home/docky/apps/exp/images/38Bi.jpeg,0,6,6,6,0,5,5,5,958.7154016389977,None,958.7154016389977,None,1,5.210350973007735,958.7154016389977,None,963.9596638779913,None,963.9596638779913,None,966.4622055669897,None,966.4622055669897,None,3.1047094460227527,968.2657259580155,None,968.2657259580155,None,5,1,1.6383351410040632,971.3713784150023,None,971.3713784150023,None,971.3713784150023,None,973.0258707760077,None,1,0.5182583080022596,973.0258707760077,None,52,973.5604508219985,None,138,A,1,2021_May_31_1622,GazeFlow,2020.1.2,59.89756139244513,
7,Block508.xls,A,8,7,39,39,12,congruent,Right,Right,Left,79,73,6,blue,2,5,/home/docky/apps/exp/images/79B.jpeg,/home/docky/apps/exp/images/73Bi.jpeg,0,6,6,6,0,6,6,6,974.5628766500158,None,974.5628766500158,None,1,5.578248492995044,974.5628766500158,None,980.1739266999939,None,980.1739266999939,None,982.6773356560152,None,982.6773356560152,None,1.751691031997325,984.4754562219896,None,984.4754562219896,None,6,0,1.4190475050127134,986.2190154049895,None,986.2190154049895,None,986.2190154049895,None,987.6544672320015,None,1,0.5344899379997514,987.6544672320015,None,50,988.2054294300033,None,138,A,1,2021_May_31_1622,GazeFlow,2020.1.2,59.89756139244513,
7,Block508.xls,A,8,8,36,36,12,congruent,Right,Right,Left,66,65,1,blue,2,5,/home/docky/apps/exp/images/66B.jpeg,/home/docky/apps/exp/images/35Yi.jpeg,0,6,6,6,0,7,7,7,989.2082039680099,None,989.2082039680099,None,1,4.659584908018587,989.2082039680099,None,993.9010065710172,None,993.9010065710172,None,996.4041096119909,None,996.4041096119909,None,1.0836001650022808,998.2068790890044,None,998.2068790890044,None,5,1,1.202579772012541,999.2774630300119,None,999.2774630300119,None,999.2774630300119,None,1000.496616229997,None,1,0.5011373470188119,1000.496616229997,None,52,1001.0141981490015,None,138,A,1,2021_May_31_1622,GazeFlow,2020.1.2,59.89756139244513,
7,Block508.xls,A,,,,,,,,,,,,,,,,,,0,6,6,6,,,,,,,,,,,,,,,,,,,,,,,,,,,,,,,,,,,,,,,,,,,,138,A,1,2021_May_31_1622,GazeFlow,2020.1.2,59.89756139244513,
8,Block510.xls,A,10,1,102,42,22,incongruent,Left,Right,Left,83,80,3,blue,2,5,/home/docky/apps/exp/images/83B.jpeg,/home/docky/apps/exp/images/80Bi.jpeg,0,7,7,7,0,0,0,0,1022.2386587779911,None,1022.2386587779911,None,1,5.634513266995782,1022.2386587779911,None,1027.9025312309968,None,1027.9025312309968,None,1030.4222730100155,None,1030.4222730100155,None,1.0495345059898682,1032.2241708599904,None,1032.2241708599904,None,6,0,1.235401808982715,1033.2603687469964,None,1033.2603687469964,None,1033.2603687469964,None,1034.5122981760069,None,1,0.46812938500079326,1034.5122981760069,None,50,1034.996960671997,None,138,A,1,2021_May_31_1622,GazeFlow,2020.1.2,59.89756139244513,
8,Block510.xls,A,10,2,114,54,22,incongruent,Left,Right,Left,76,69,7,yellow,2,5,/home/docky/apps/exp/images/76Yi.jpeg,/home/docky/apps/exp/images/69Y.jpeg,0,7,7,7,0,1,1,1,1035.9984365979908,None,1035.9984365979908,None,1,4.710288154979935,1035.9984365979908,None,1040.742134486005,None,1040.742134486005,None,1043.246743604017,None,1043.246743604017,None,1.4008904449874535,1045.0484014620015,None,1045.0484014620015,None,5,1,1.403206601011334,1046.4359335810004,None,1046.4359335810004,None,1046.4359335810004,None,1047.8552913049934,None,1,0.5171688309928868,1047.8552913049934,None,52,1048.3889628420002,None,138,A,1,2021_May_31_1622,GazeFlow,2020.1.2,59.89756139244513,
8,Block510.xls,A,10,3,72,12,21,incongruent,Right,Left,Right,76,79,3,blue,2,6,/home/docky/apps/exp/images/76Bi.jpeg,/home/docky/apps/exp/images/79B.jpeg,0,7,7,7,0,2,2,2,1049.3912504999898,None,1049.3912504999898,None,1,5.377633506985148,1049.3912504999898,None,1054.8027670510055,None,1054.8027670510055,None,1057.3054021029966,None,1057.3054021029966,None,1.2507304540195037,1059.1096135050175,None,1059.1096135050175,None,6,1,1.2692963059816975,1060.3462651520094,None,1060.3462651520094,None,1060.3462651520094,None,1061.6317559269955,None,1,0.5175562040240038,1061.6317559269955,None,54,1062.1658850990061,None,138,A,1,2021_May_31_1622,GazeFlow,2020.1.2,59.89756139244513,
8,Block510.xls,A,10,4,112,52,22,incongruent,Left,Right,Left,75,69,6,yellow,2,5,/home/docky/apps/exp/images/76Y.jpeg,/home/docky/apps/exp/images/69Yi.jpeg,0,7,7,7,0,3,3,3,1063.167775392998,None,1063.167775392998,None,1,4.6097624270187225,1063.167775392998,None,1067.811944857007,None,1067.811944857007,None,1070.3163002940128,None,1070.3163002940128,None,0.9334548600018024,1072.1176680139906,None,1072.1176680139906,None,6,0,1.1519707620027475,1073.0377267650038,None,1073.0377267650038,None,1073.0377267650038,None,1074.2058458089887,None,1,0.48541855899384245,1074.2058458089887,None,52,1074.7074262950046,None,138,A,1,2021_May_31_1622,GazeFlow,2020.1.2,59.89756139244513,
8,Block510.xls,A,10,5,17,17,11,congruent,Left,Left,Right,33,35,2,yellow,2,6,/home/docky/apps/exp/images/33Y.jpeg,/home/docky/apps/exp/images/35Yi.jpeg,0,7,7,7,0,4,4,4,1075.709047190001,None,1075.709047190001,None,1,5.344300844997633,1075.709047190001,None,1081.0856445509999,None,1081.0856445509999,None,1083.5925006530015,None,1083.5925006530015,None,2.1857837549760006,1085.3931445009948,None,1085.3931445009948,None,5,0,1.9704430430138018,1087.5658723160159,None,1087.5658723160159,None,1087.5658723160159,None,1089.5527226770064,None,1,0.5505854939983692,1089.5527226770064,None,50,1090.1200549950008,None,138,A,1,2021_May_31_1622,GazeFlow,2020.1.2,59.89756139244513,
8,Block510.xls,A,10,6,31,31,12,congruent,Right,Right,Left,19,16,3,blue,2,5,/home/docky/apps/exp/images/19Bi.jpeg,/home/docky/apps/exp/images/16B.jpeg,0,7,7,7,0,5,5,5,1091.1225710510043,None,1091.1225710510043,None,1,5.360817551001674,1091.1225710510043,None,1096.5172610149893,None,1096.5172610149893,None,1099.0198594490066,None,1099.0198594490066,None,2.1185795679921284,1100.8235784640128,None,1100.8235784640128,None,5,1,1.318371320987353,1102.929125019,None,1102.929125019,None,1102.929125019,None,1104.2640581279993,None,1,0.551654934999533,1104.2640581279993,None,52,1104.832459894009,None,138,A,1,2021_May_31_1622,GazeFlow,2020.1.2,59.89756139244513,
8,Block510.xls,A,10,7,61,1,21,incongruent,Right,Left,Right,16,19,3,blue,2,6,/home/docky/apps/exp/images/16Bi.jpeg,/home/docky/apps/exp/images/19B.jpeg,0,7,7,7,0,6,6,6,1105.8345966709894,None,1105.8345966709894,None,1,6.128793274983764,1105.8345966709894,None,1111.9971063740086,None,1111.9971063740086,None,1114.5016682920104,None,1114.5016682920104,None,1.718517208006233,1116.303209250007,None,1116.303209250007,None,6,1,1.4690193439892028,1118.008359154017,None,1118.008359154017,None,1118.008359154017,None,1119.4938829989987,None,1,0.517880839004647,1119.4938829989987,None,54,1120.028406708996,None,138,A,1,2021_May_31_1622,GazeFlow,2020.1.2,59.89756139244513,
8,Block510.xls,A,10,8,94,34,22,incongruent,Left,Right,Left,38,35,3,blue,2,5,/home/docky/apps/exp/images/38Bi.jpeg,/home/docky/apps/exp/images/35B.jpeg,0,7,7,7,0,7,7,7,1121.0307805449993,None,1121.0307805449993,None,1,4.592591713997535,1121.0307805449993,None,1125.6590454760008,None,1125.6590454760008,None,1128.161916660989,None,1128.161916660989,None,3.104829208983574,1129.9652239849966,None,1129.9652239849966,None,5,1,1.2180752150015905,1133.0712487320125,None,1133.0712487320125,None,1133.0712487320125,None,1134.3060998329893,None,1,0.5346795879886486,1134.3060998329893,None,56,1134.8573680990085,None,138,A,1,2021_May_31_1622,GazeFlow,2020.1.2,59.89756139244513,
8,Block510.xls,A,,,,,,,,,,,,,,,,,,0,7,7,7,,,,,,,,,,,,,,,,,,,,,,,,,,,,,,,,,,,,,,,,,,,,138,A,1,2021_May_31_1622,GazeFlow,2020.1.2,59.89756139244513,
9,Block507.xls,A,7,1,110,50,22,incongruent,Left,Right,Left,66,65,1,yellow,2,5,/home/docky/apps/exp/images/66Y.jpeg,/home/docky/apps/exp/images/35Bi.jpeg,0,8,8,8,0,0,0,0,1157.235525910015,None,1157.235525910015,None,1,6.101578364992747,1157.235525910015,None,1163.3738228210132,None,1163.3738228210132,None,1165.8849279720162,None,1165.8849279720162,None,2.8368556200002786,1167.686697910016,None,1167.686697910016,None,6,0,1.8193653910129797,1170.5273799220158,None,1170.5273799220158,None,1170.5273799220158,None,1172.3631958680053,None,1,0.43473053301568143,1172.3631958680053,None,54,1172.8144606800051,None,138,A,1,2021_May_31_1622,GazeFlow,2020.1.2,59.89756139244513,
9,Block507.xls,A,7,2,90,30,22,incongruent,Right,Left,Right,16,19,3,blue,2,6,/home/docky/apps/exp/images/16Bi.jpeg,/home/docky/apps/exp/images/19B.jpeg,0,8,8,8,0,1,1,1,1173.8164696120075,None,1173.8164696120075,None,1,5.377907745016273,1173.8164696120075,None,1179.227499878005,None,1179.227499878005,None,1181.7324321460037,None,1181.7324321460037,None,1.6681971719954163,1183.5292776529968,None,1183.5292776529968,None,6,1,1.1859221069898922,1185.1884546100046,None,1185.1884546100046,None,1185.1884546100046,None,1186.3909056470147,None,1,0.5005221469909884,1186.3909056470147,None,56,1186.9079606170126,None,138,A,1,2021_May_31_1622,GazeFlow,2020.1.2,59.89756139244513,
9,Block507.xls,A,7,3,16,16,11,congruent,Left,Left,Right,33,35,2,yellow,2,6,/home/docky/apps/exp/images/33Yi.jpeg,/home/docky/apps/exp/images/35Y.jpeg,0,8,8,8,0,2,2,2,1187.9097577189968,None,1187.9097577189968,None,1,4.961012165003922,1187.9097577189968,None,1192.9045083550154,None,1192.9045083550154,None,1195.4074807089928,None,1195.4074807089928,None,1.651369255996542,1197.2106029040006,None,1197.2106029040006,None,6,1,1.235464775993023,1198.8485761810152,None,1198.8485761810152,None,1198.8485761810152,None,1200.1007646300131,None,1,0.5172681950207334,1200.1007646300131,None,58,1200.634896620002,None,138,A,1,2021_May_31_1622,GazeFlow,2020.1.2,59.89756139244513,
9,Block507.xls,A,7,4,117,57,22,incongruent,Left,Right,Left,77,72,5,yellow,2,5,/home/docky/apps/exp/images/77Y.jpeg,/home/docky/apps/exp/images/72Yi.jpeg,0,8,8,8,0,3,3,3,1201.6366095519916,None,1201.6366095519916,None,1,4.442715705983574,1201.6366095519916,None,1206.1112662219966,None,1206.1112662219966,None,1208.6177857239963,None,1208.6177857239963,None,1.8184820099850185,1210.4185051940149,None,1210.4185051940149,None,5,1,3.4403098250040784,1212.2242466699972,None,1212.2242466699972,None,1212.2242466699972,None,1215.6809611429926,None,1,0.5512939740146976,1215.6809611429926,None,60,1216.2488401739975,None,138,A,1,2021_May_31_1622,GazeFlow,2020.1.2,59.89756139244513,
9,Block507.xls,A,7,5,53,53,12,congruent,Right,Right,Left,75,69,6,yellow,2,5,/home/docky/apps/exp/images/76Yi.jpeg,/home/docky/apps/exp/images/69Y.jpeg,0,8,8,8,0,4,4,4,1217.2507117410132,None,1217.2507117410132,None,1,3.875155868008733,1217.2507117410132,None,1221.158985032991,None,1221.158985032991,None,1223.6624660800153,None,1223.6624660800153,None,1.4844343620061409,1225.4600816559978,None,1225.4600816559978,None,5,1,1.1693765190138947,1226.9362556489941,None,1226.9362556489941,None,1226.9362556489941,None,1228.1217224980064,None,1,0.6678163899923675,1228.1217224980064,None,62,1228.8059976380027,None,138,A,1,2021_May_31_1622,GazeFlow,2020.1.2,59.89756139244513,
9,Block507.xls,A,7,6,96,36,22,incongruent,Left,Right,Left,66,65,1,blue,2,5,/home/docky/apps/exp/images/66Bi.jpeg,/home/docky/apps/exp/images/35Y.jpeg,0,8,8,8,0,5,5,5,1229.807891984994,None,1229.807891984994,None,1,4.810068780003348,1229.807891984994,None,1234.651830015995,None,1234.651830015995,None,1237.157381697005,None,1237.157381697005,None,2.8377619149978273,1238.957940435008,None,1238.957940435008,None,5,1,1.169785074016545,1241.7974756410113,None,1241.7974756410113,None,1241.7974756410113,None,1242.9838505620137,None,1,0.5507626180187799,1242.9838505620137,None,64,1243.5513919889927,None,138,A,1,2021_May_31_1622,GazeFlow,2020.1.2,59.89756139244513,
9,Block507.xls,A,7,7,58,58,12,congruent,Right,Right,Left,77,72,5,yellow,2,5,/home/docky/apps/exp/images/77Yi.jpeg,/home/docky/apps/exp/images/72Y.jpeg,0,8,8,8,0,6,6,6,1244.5537498269987,None,1244.5537498269987,None,1,4.442349237011513,1244.5537498269987,None,1249.0296660769964,None,1249.0296660769964,None,1251.5350822219916,None,1251.5350822219916,None,1.5177746950066648,1253.3356101750105,None,1253.3356101750105,None,5,1,1.1186873700062279,1254.840451616008,None,1254.840451616008,None,1254.840451616008,None,1255.975845923007,None,1,0.5673975630197674,1255.975845923007,None,66,1256.5598469309916,None,138,A,1,2021_May_31_1622,GazeFlow,2020.1.2,59.89756139244513,
9,Block507.xls,A,7,8,41,41,12,congruent,Right,Right,Left,79,76,3,blue,2,5,/home/docky/apps/exp/images/79Bi.jpeg,/home/docky/apps/exp/images/76B.jpeg,0,8,8,8,0,7,7,7,1257.5618203209888,None,1257.5618203209888,None,1,4.810084040014772,1257.5618203209888,None,1262.4056343919947,None,1262.4056343919947,None,1264.9085969070147,None,1264.9085969070147,None,1.5011505919974297,1266.712455046014,None,1266.712455046014,None,5,1,1.0678981289966032,1268.1999335540168,None,1268.1999335540168,None,1268.1999335540168,None,1269.2846705639968,None,1,1.0021024839952588,1269.2846705639968,None,68,1270.303165320016,None,138,A,1,2021_May_31_1622,GazeFlow,2020.1.2,59.89756139244513,
9,Block507.xls,A,,,,,,,,,,,,,,,,,,0,8,8,8,,,,,,,,,,,,,,,,,,,,,,,,,,,,,,,,,,,,,,,,,,,,138,A,1,2021_May_31_1622,GazeFlow,2020.1.2,59.89756139244513,
10,Block515.xls,A,15,1,107,47,22,incongruent,Left,Right,Left,35,33,2,yellow,2,5,/home/docky/apps/exp/images/35Yi.jpeg,/home/docky/apps/exp/images/33Y.jpeg,0,9,9,9,0,0,0,0,1290.6273978060053,None,1290.6273978060053,None,1,6.636050595028792,1290.6273978060053,None,1297.294880772999,None,1297.294880772999,None,1299.8112575820123,None,1299.8112575820123,None,2.75336801802041,1301.60861462701,None,1301.60861462701,None,5,1,1.4517997440125328,1304.370407259994,None,1304.370407259994,None,1304.370407259994,None,1305.8387488269946,None,1,0.6010868309822399,1305.8387488269946,None,70,1306.4563634750084,None,138,A,1,2021_May_31_1622,GazeFlow,2020.1.2,59.89756139244513,
10,Block515.xls,A,15,2,55,55,12,congruent,Right,Right,Left,76,69,7,yellow,2,5,/home/docky/apps/exp/images/76Yi.jpeg,/home/docky/apps/exp/images/69Y.jpeg,0,9,9,9,0,1,1,1,1307.4591457940114,None,1307.4591457940114,None,1,4.843207734986208,1307.4591457940114,None,1312.3360128109925,None,1312.3360128109925,None,1314.8387140409905,None,1314.8387140409905,None,1.3508606499817688,1316.6366658500046,None,1316.6366658500046,None,5,1,1.5691913510090671,1317.979578272003,None,1317.979578272003,None,1317.979578272003,None,1319.5651115500077,None,1,0.6181501550017856,1319.5651115500077,None,72,1320.1996910909947,None,138,A,1,2021_May_31_1622,GazeFlow,2020.1.2,59.89756139244513,
10,Block515.xls,A,15,3,75,15,21,incongruent,Right,Left,Right,33,35,2,yellow,2,6,/home/docky/apps/exp/images/33Yi.jpeg,/home/docky/apps/exp/images/35Y.jpeg,0,9,9,9,0,2,2,2,1321.2023921660148,None,1321.2023921660148,None,1,4.725829922012053,1321.2023921660148,None,1325.9620875070104,None,1325.9620875070104,None,1328.4652724220068,None,1328.4652724220068,None,1.7515988149971236,1330.2684209730069,None,1330.2684209730069,None,6,1,1.3520415289967787,1332.0067628459947,None,1332.0067628459947,None,1332.0067628459947,None,1333.375678720011,None,1,0.4676538400235586,1333.375678720011,None,74,1333.859732498997,None,138,A,1,2021_May_31_1622,GazeFlow,2020.1.2,59.89756139244513,
10,Block515.xls,A,15,4,62,2,21,incongruent,Right,Left,Right,35,38,3,blue,2,6,/home/docky/apps/exp/images/35Bi.jpeg,/home/docky/apps/exp/images/38B.jpeg,0,9,9,9,0,3,3,3,1334.8620735330041,None,1334.8620735330041,None,1,4.609741928987205,1334.8620735330041,None,1339.5051143410092,None,1339.5051143410092,None,1342.0096566209977,None,1342.0096566209977,None,1.768382835027296,1343.811425360007,None,1343.811425360007,None,6,1,1.3520337639783975,1345.5664450839977,None,1345.5664450839977,None,1345.5664450839977,None,1346.9353336940112,None,1,0.5009378420072608,1346.9353336940112,None,76,1347.4528285670094,None,138,A,1,2021_May_31_1622,GazeFlow,2020.1.2,59.89756139244513,
10,Block515.xls,A,15,5,100,40,22,incongruent,Left,Right,Left,79,76,3,blue,2,5,/home/docky/apps/exp/images/79Bi.jpeg,/home/docky/apps/exp/images/76B.jpeg,0,9,9,9,0,4,4,4,1348.4554274799884,None,1348.4554274799884,None,1,4.4587483539944515,1348.4554274799884,None,1352.9465297849965,None,1352.9465297849965,None,1355.4506400510145,None,1355.4506400510145,None,2.068853554985253,1357.2540433469985,None,1357.2540433469985,None,5,1,1.3355224310071208,1359.309656277008,None,1359.309656277008,None,1359.309656277008,None,1360.6618974360172,None,1,0.6014359569817316,1360.6618974360172,None,78,1361.279755305004,None,138,A,1,2021_May_31_1622,GazeFlow,2020.1.2,59.89756139244513,
10,Block515.xls,A,15,6,108,48,22,incongruent,Left,Right,Left,39,38,1,yellow,2,5,/home/docky/apps/exp/images/39Y.jpeg,/home/docky/apps/exp/images/38Yi.jpeg,0,9,9,9,0,5,5,5,1362.2820559079992,None,1362.2820559079992,None,1,5.110644447995583,1362.2820559079992,None,1367.4279817689967,None,1367.4279817689967,None,1369.931103106006,None,1369.931103106006,None,3.0713868319871835,1371.7347195869952,None,1371.7347195869952,None,5,1,2.02096879700548,1374.8056270480156,None,1374.8056270480156,None,1374.8056270480156,None,1376.8433198750135,None,1,0.4852373090106994,1376.8433198750135,None,80,1377.3446722160152,None,138,A,1,2021_May_31_1622,GazeFlow,2020.1.2,59.89756139244513,
10,Block515.xls,A,15,7,59,59,12,congruent,Right,Right,Left,80,79,1,yellow,2,5,/home/docky/apps/exp/images/80Y.jpeg,/home/docky/apps/exp/images/79Yi.jpeg,0,9,9,9,0,6,6,6,1378.3466242559953,None,1378.3466242559953,None,1,4.892974953021621,1378.3466242559953,None,1383.2733723529964,None,1383.2733723529964,None,1385.7761159700167,None,1385.7761159700167,None,1.1336670379969291,1387.574115247,None,1387.574115247,None,5,1,1.135704618995078,1388.6999791520066,None,1388.6999791520066,None,1388.6999791520066,None,1389.8522555470117,None,1,0.6007752509904094,1389.8522555470117,None,82,1390.469552021008,None,138,A,1,2021_May_31_1622,GazeFlow,2020.1.2,59.89756139244513,
10,Block515.xls,A,15,8,8,8,11,congruent,Left,Left,Right,38,39,1,blue,2,6,/home/docky/apps/exp/images/38B.jpeg,/home/docky/apps/exp/images/39Bi.jpeg,0,9,9,9,0,7,7,7,1391.471643921017,None,1391.471643921017,None,1,3.875282920023892,1391.471643921017,None,1395.3801277989987,None,1395.3801277989987,None,1397.8836313110078,None,1397.8836313110078,None,3.4386894089984708,1399.6872402589943,None,1399.6872402589943,None,5,0,1.2029138070065528,1403.1270839440112,None,1403.1270839440112,None,1403.1270839440112,None,1404.3466318990104,None,1,0.5016604209959041,1404.3466318990104,None,80,1404.864599715016,None,138,A,1,2021_May_31_1622,GazeFlow,2020.1.2,59.89756139244513,
10,Block515.xls,A,,,,,,,,,,,,,,,,,,0,9,9,9,,,,,,,,,,,,,,,,,,,,,,,,,,,,,,,,,,,,,,,,,,,,138,A,1,2021_May_31_1622,GazeFlow,2020.1.2,59.89756139244513,
11,Block512.xls,A,12,1,30,30,11,congruent,Left,Left,Right,79,82,3,yellow,2,6,/home/docky/apps/exp/images/79Yi.jpeg,/home/docky/apps/exp/images/80Y.jpeg,0,10,10,10,0,0,0,0,1426.3745852030115,None,1426.3745852030115,None,1,4.846009889995912,1426.3745852030115,None,1431.2481251579884,None,1431.2481251579884,None,1433.7714049759961,None,1433.7714049759961,None,2.7367853980103973,1435.5688582879957,None,1435.5688582879957,None,5,0,1.251706306997221,1438.3136680980097,None,1438.3136680980097,None,1438.3136680980097,None,1439.5816861079948,None,1,0.5181145520182326,1439.5816861079948,None,78,1440.116324514005,None,138,A,1,2021_May_31_1622,GazeFlow,2020.1.2,59.89756139244513,
11,Block512.xls,A,12,2,115,55,22,incongruent,Left,Right,Left,76,69,7,yellow,2,5,/home/docky/apps/exp/images/76Yi.jpeg,/home/docky/apps/exp/images/69Y.jpeg,0,10,10,10,0,1,1,1,1441.118443031999,None,1441.118443031999,None,1,4.342115417006426,1441.118443031999,None,1445.4941616590077,None,1445.4941616590077,None,1447.9990472630016,None,1447.9990472630016,None,1.968691262009088,1449.8003944749944,None,1449.8003944749944,None,5,1,1.0846583360107616,1451.7558833209914,None,1451.7558833209914,None,1451.7558833209914,None,1452.8576834970154,None,1,0.5346189129923005,1452.8576834970154,None,80,1453.4085329989903,None,138,A,1,2021_May_31_1622,GazeFlow,2020.1.2,59.89756139244513,
11,Block512.xls,A,12,3,66,6,21,incongruent,Right,Left,Right,38,39,1,blue,2,6,/home/docky/apps/exp/images/38B.jpeg,/home/docky/apps/exp/images/39Bi.jpeg,0,10,10,10,0,2,2,2,1454.410802486993,None,1454.410802486993,None,1,4.175582341995323,1454.410802486993,None,1458.6175284709898,None,1458.6175284709898,None,1461.1224643570022,None,1461.1224643570022,None,2.3198104159964714,1462.9260066580027,None,1462.9260066580027,None,6,1,2.0533591249841265,1465.2492257750127,None,1465.2492257750127,None,1465.2492257750127,None,1467.3193486180098,None,1,0.43467519601108506,1467.3193486180098,None,82,1467.7701493689965,None,138,A,1,2021_May_31_1622,GazeFlow,2020.1.2,59.89756139244513,
11,Block512.xls,A,12,4,35,35,12,congruent,Right,Right,Left,66,65,1,blue,2,5,/home/docky/apps/exp/images/66B.jpeg,/home/docky/apps/exp/images/35Yi.jpeg,0,10,10,10,0,3,3,3,1468.7721111800056,None,1468.7721111800056,None,1,3.907794744009152,1468.7721111800056,None,1472.7141390030156,None,1472.7141390030156,None,1475.2168703940115,None,1475.2168703940115,None,2.9377881909895223,1477.0205818630056,None,1477.0205818630056,None,6,0,1.9532214609789662,1479.960924450017,None,1479.960924450017,None,1479.960924450017,None,1481.930754778994,None,1,0.46805961802601814,1481.930754778994,None,80,1482.4154406680027,None,138,A,1,2021_May_31_1622,GazeFlow,2020.1.2,59.89756139244513,
11,Block512.xls,A,12,5,40,40,12,congruent,Right,Right,Left,79,76,3,blue,2,5,/home/docky/apps/exp/images/79Bi.jpeg,/home/docky/apps/exp/images/76B.jpeg,0,10,10,10,0,4,4,4,1483.4172533590172,None,1483.4172533590172,None,1,4.5093947679852135,1483.4172533590172,None,1487.9598768040014,None,1487.9598768040014,None,1490.4623689140135,None,1490.4623689140135,None,1.2172863319865428,1492.2667490970052,None,1492.2667490970052,None,5,1,1.1187806089874357,1493.4702457459935,None,1493.4702457459935,None,1493.4702457459935,None,1494.6055982740072,None,1,0.6009110910235904,1494.6055982740072,None,82,1495.2229820539942,None,138,A,1,2021_May_31_1622,GazeFlow,2020.1.2,59.89756139244513,
11,Block512.xls,A,12,6,64,4,21,incongruent,Right,Left,Right,65,66,1,blue,2,6,/home/docky/apps/exp/images/35Yi.jpeg,/home/docky/apps/exp/images/66B.jpeg,0,10,10,10,0,5,5,5,1496.2248663000064,None,1496.2248663000064,None,1,4.49268010497326,1496.2248663000064,None,1500.7493701229978,None,1500.7493701229978,None,1503.2544991500035,None,1503.2544991500035,None,1.6015240599808749,1505.0573400490102,None,1505.0573400490102,None,5,0,1.1186789069906808,1506.6458084460173,None,1506.6458084460173,None,1506.6458084460173,None,1507.7811011250014,None,1,0.5175578509806655,1507.7811011250014,None,80,1508.3152191470144,None,138,A,1,2021_May_31_1622,GazeFlow,2020.1.2,59.89756139244513,
11,Block512.xls,A,12,7,12,12,11,congruent,Left,Left,Right,76,79,3,blue,2,6,/home/docky/apps/exp/images/76B.jpeg,/home/docky/apps/exp/images/79Bi.jpeg,0,10,10,10,0,6,6,6,1509.3171926290088,None,1509.3171926290088,None,1,4.308882301993435,1509.3171926290088,None,1513.6597729710047,None,1513.6597729710047,None,1516.1628962150135,None,1516.1628962150135,None,1.8517305569839664,1517.9683158000116,None,1517.9683158000116,None,6,1,1.1017156889720354,1519.8045425050077,None,1519.8045425050077,None,1519.8045425050077,None,1520.9228010489896,None,1,0.46758614701684564,1520.9228010489896,None,82,1521.4072371770162,None,138,A,1,2021_May_31_1622,GazeFlow,2020.1.2,59.89756139244513,
11,Block512.xls,A,12,8,49,49,12,congruent,Right,Right,Left,39,38,1,yellow,2,5,/home/docky/apps/exp/images/39Y.jpeg,/home/docky/apps/exp/images/38Yi.jpeg,0,10,10,10,0,7,7,7,1522.4093715659983,None,1522.4093715659983,None,1,3.6580830099992454,1522.4093715659983,None,1526.100782530004,None,1526.100782530004,None,1528.6051426630002,None,1528.6051426630002,None,1.7182544380193576,1530.4063494440052,None,1530.4063494440052,None,5,1,1.0523580260050949,1532.1119434309949,None,1532.1119434309949,None,1532.1119434309949,None,1533.1805152500165,None,1,0.48359750598319806,1533.1805152500165,None,84,1533.6806552199996,None,138,A,1,2021_May_31_1622,GazeFlow,2020.1.2,59.89756139244513,
11,Block512.xls,A,,,,,,,,,,,,,,,,,,0,10,10,10,,,,,,,,,,,,,,,,,,,,,,,,,,,,,,,,,,,,,,,,,,,,138,A,1,2021_May_31_1622,GazeFlow,2020.1.2,59.89756139244513,
12,Block503.xls,A,3,1,22,22,11,congruent,Left,Left,Right,62,65,3,yellow,2,6,/home/docky/apps/exp/images/38Bi.jpeg,/home/docky/apps/exp/images/35B.jpeg,0,11,11,11,0,0,0,0,1555.87596875499,None,1555.87596875499,None,1,5.515148020989727,1555.87596875499,None,1561.4270323599922,None,1561.4270323599922,None,1563.9392078919918,None,1563.9392078919918,None,2.8371026370150503,1565.7428098969976,None,1565.7428098969976,None,6,1,1.167298847984057,1568.583590825001,None,1568.583590825001,None,1568.583590825001,None,1569.7679571509943,None,1,0.467347375000827,1569.7679571509943,None,86,1570.2526687069912,None,138,A,1,2021_May_31_1622,GazeFlow,2020.1.2,59.89756139244513,
12,Block503.xls,A,3,2,65,5,21,incongruent,Right,Left,Right,65,66,1,blue,2,6,/home/docky/apps/exp/images/35Y.jpeg,/home/docky/apps/exp/images/66Bi.jpeg,0,11,11,11,0,1,1,1,1571.2544307450007,None,1571.2544307450007,None,1,4.1917029559845105,1571.2544307450007,None,1575.4798113970028,None,1575.4798113970028,None,1577.9859622920048,None,1577.9859622920048,None,1.6347727759857662,1579.7869141229894,None,1579.7869141229894,None,5,0,1.119200404995354,1581.4074738860072,None,1581.4074738860072,None,1581.4074738860072,None,1582.5429178249906,None,1,0.5171754750190303,1582.5429178249906,None,84,1583.0768326979887,None,138,A,1,2021_May_31_1622,GazeFlow,2020.1.2,59.89756139244513,
12,Block503.xls,A,3,3,76,16,21,incongruent,Right,Left,Right,33,35,2,yellow,2,6,/home/docky/apps/exp/images/33Y.jpeg,/home/docky/apps/exp/images/35Yi.jpeg,0,11,11,11,0,2,2,2,1584.0789552319911,None,1584.0789552319911,None,1,4.659602839994477,1584.0789552319911,None,1588.7725077710056,None,1588.7725077710056,None,1591.2771865859977,None,1591.2771865859977,None,1.735008943011053,1593.0788543949893,None,1593.0788543949893,None,6,1,1.235380328987958,1594.8001507059962,None,1594.8001507059962,None,1594.8001507059962,None,1596.051989360014,None,1,0.46764111099764705,1596.051989360014,None,86,1596.5361987419892,None,138,A,1,2021_May_31_1622,GazeFlow,2020.1.2,59.89756139244513,
12,Block503.xls,A,3,4,29,29,11,congruent,Left,Left,Right,79,82,3,yellow,2,6,/home/docky/apps/exp/images/79Y.jpeg,/home/docky/apps/exp/images/80Yi.jpeg,0,11,11,11,0,3,3,3,1597.5382909979962,None,1597.5382909979962,None,1,4.25900431300397,1597.5382909979962,None,1601.8312151150021,None,1601.8312151150021,None,1604.3344604790036,None,1604.3344604790036,None,2.887615282990737,1606.1368943690031,None,1606.1368943690031,None,6,1,1.8523216120083816,1609.0284735489986,None,1609.0284735489986,None,1609.0284735489986,None,1610.897779463994,None,1,0.41791869499138556,1610.897779463994,None,88,1611.3322217100067,None,138,A,1,2021_May_31_1622,GazeFlow,2020.1.2,59.89756139244513,
12,Block503.xls,A,3,5,103,43,22,incongruent,Left,Right,Left,39,38,1,blue,2,5,/home/docky/apps/exp/images/39Bi.jpeg,/home/docky/apps/exp/images/38B.jpeg,0,11,11,11,0,4,4,4,1612.3342085320037,None,1612.3342085320037,None,1,4.341918595018797,1612.3342085320037,None,1616.709717441001,None,1616.709717441001,None,1619.2132020129939,None,1619.2132020129939,None,1.3676239829801489,1621.016460927989,None,1621.016460927989,None,6,0,1.0522506670095026,1622.3703499909898,None,1622.3703499909898,None,1622.3703499909898,None,1623.4390278549981,None,1,0.43435704900184646,1623.4390278549981,None,86,1623.8900209229905,None,138,A,1,2021_May_31_1622,GazeFlow,2020.1.2,59.89756139244513,
12,Block503.xls,A,3,6,47,47,12,congruent,Right,Right,Left,35,33,2,yellow,2,5,/home/docky/apps/exp/images/35Yi.jpeg,/home/docky/apps/exp/images/33Y.jpeg,0,11,11,11,0,5,5,5,1624.8914968449972,None,1624.8914968449972,None,1,4.443029950984055,1624.8914968449972,None,1629.3679172619886,None,1629.3679172619886,None,1631.870334345993,None,1631.870334345993,None,2.8207067910116166,1633.6719935529982,None,1633.6719935529982,None,5,1,1.1011981909978203,1636.498289870011,None,1636.498289870011,None,1636.498289870011,None,1637.6161816499953,None,1,0.517752357001882,1637.6161816499953,None,88,1638.1502900030173,None,138,A,1,2021_May_31_1622,GazeFlow,2020.1.2,59.89756139244513,
12,Block503.xls,A,3,7,20,20,11,congruent,Left,Left,Right,65,66,1,yellow,2,6,/home/docky/apps/exp/images/35Bi.jpeg,/home/docky/apps/exp/images/66Y.jpeg,0,11,11,11,0,6,6,6,1639.152683688997,None,1639.152683688997,None,1,4.960662672005128,1639.152683688997,None,1644.1464962470054,None,1644.1464962470054,None,1646.6512381730136,None,1646.6512381730136,None,1.7850778959982563,1648.4476890969963,None,1648.4476890969963,None,5,0,1.1852723349875305,1650.2247144840076,None,1650.2247144840076,None,1650.2247144840076,None,1651.4261989560036,None,1,0.534985128993867,1651.4261989560036,None,86,1651.9772881669924,None,138,A,1,2021_May_31_1622,GazeFlow,2020.1.2,59.89756139244513,
12,Block503.xls,A,3,8,27,27,11,congruent,Left,Left,Right,72,77,5,yellow,2,6,/home/docky/apps/exp/images/72Yi.jpeg,/home/docky/apps/exp/images/77Y.jpeg,0,11,11,11,0,7,7,7,1652.979328098998,None,1652.979328098998,None,1,4.409209431993077,1652.979328098998,None,1657.4222249260056,None,1657.4222249260056,None,1659.9254963700077,None,1659.9254963700077,None,0.9669128590030596,1661.7282837959938,None,1661.7282837959938,None,6,1,2.7549169289995916,1662.681977950997,None,1662.681977950997,None,1662.681977950997,None,1665.4536515020009,None,1,0.6521684379840735,1665.4536515020009,None,88,1666.1217633130145,None,138,A,1,2021_May_31_1622,GazeFlow,2020.1.2,59.89756139244513,
12,Block503.xls,A,,,,,,,,,,,,,,,,,,0,11,11,11,,,,,,,,,,,,,,,,,,,,,,,,,,,,,,,,,,,,,,,,,,,,138,A,1,2021_May_31_1622,GazeFlow,2020.1.2,59.89756139244513,
13,Block501.xls,A,1,1,54,54,12,congruent,Right,Right,Left,75,69,6,yellow,2,5,/home/docky/apps/exp/images/76Y.jpeg,/home/docky/apps/exp/images/69Yi.jpeg,0,12,12,12,0,0,0,0,1692.1413161180099,None,1692.1413161180099,None,1,5.582125228014775,1692.1413161180099,None,1697.7536371379974,None,1697.7536371379974,None,1700.272517239995,None,1700.272517239995,None,1.0329214310040697,1702.0757521039923,None,1702.0757521039923,None,5,1,1.1178657080163248,1703.0940489130153,None,1703.0940489130153,None,1703.0940489130153,None,1704.2285260909994,None,1,0.6188294060120825,1704.2285260909994,None,90,1704.8637839560106,None,138,A,1,2021_May_31_1622,GazeFlow,2020.1.2,59.89756139244513,
13,Block501.xls,A,1,2,70,10,21,incongruent,Right,Left,Right,73,76,3,blue,2,6,/home/docky/apps/exp/images/73Bi.jpeg,/home/docky/apps/exp/images/76B.jpeg,0,12,12,12,0,1,1,1,1705.8650191260094,None,1705.8650191260094,None,1,5.545097597001586,1705.8650191260094,None,1711.4438949670002,None,1711.4438949670002,None,1713.9468159769895,None,1713.9468159769895,None,1.7517108469910454,1715.749976402003,None,1715.749976402003,None,6,1,1.2684352479991503,1717.4884185880073,None,1717.4884185880073,None,1717.4884185880073,None,1718.773481331009,None,1,0.5677519500022754,1718.773481331009,None,92,1719.3581336800125,None,138,A,1,2021_May_31_1622,GazeFlow,2020.1.2,59.89756139244513,
13,Block501.xls,A,1,3,84,24,21,incongruent,Right,Left,Right,69,76,7,yellow,2,6,/home/docky/apps/exp/images/69Yi.jpeg,/home/docky/apps/exp/images/76Y.jpeg,0,12,12,12,0,2,2,2,1720.3605504570005,None,1720.3605504570005,None,1,4.559095222008182,1720.3605504570005,None,1724.9534356530057,None,1724.9534356530057,None,1727.456569950009,None,1727.456569950009,None,1.4681896059773862,1729.2595446959895,None,1729.2595446959895,None,6,1,1.1026315359922592,1730.7140280909953,None,1730.7140280909953,None,1730.7140280909953,None,1731.8328389610106,None,1,0.5008446330029983,1731.8328389610106,None,94,1732.3502306170121,None,138,A,1,2021_May_31_1622,GazeFlow,2020.1.2,59.89756139244513,
13,Block501.xls,A,1,4,26,26,11,congruent,Left,Left,Right,69,75,6,yellow,2,6,/home/docky/apps/exp/images/69Y.jpeg,/home/docky/apps/exp/images/76Yi.jpeg,0,12,12,12,0,3,3,3,1733.3518867029925,None,1733.3518867029925,None,1,4.092060680995928,1733.3518867029925,None,1737.4777214330097,None,1737.4777214330097,None,1739.9827425680123,None,1739.9827425680123,None,1.1504754869965836,1741.7840513330011,None,1741.7840513330011,None,6,1,1.034714585985057,1742.9211497149954,None,1742.9211497149954,None,1742.9211497149954,None,1743.9728292250074,None,1,0.4844282060221303,1743.9728292250074,None,96,1744.4737557049957,None,138,A,1,2021_May_31_1622,GazeFlow,2020.1.2,59.89756139244513,
13,Block501.xls,A,1,5,97,37,22,incongruent,Left,Right,Left,79,73,6,blue,2,5,/home/docky/apps/exp/images/79B.jpeg,/home/docky/apps/exp/images/73Bi.jpeg,0,12,12,12,0,4,4,4,1745.4755256999924,None,1745.4755256999924,None,1,4.609422975976486,1745.4755256999924,None,1750.1190117130172,None,1750.1190117130172,None,1752.629262736009,None,1752.629262736009,None,1.3171108640090097,1754.427307778009,None,1754.427307778009,None,5,1,1.1860399389988743,1755.7293481160013,None,1755.7293481160013,None,1755.7293481160013,None,1756.931504326989,None,1,0.5675390020187479,1756.931504326989,None,98,1757.5152513170033,None,138,A,1,2021_May_31_1622,GazeFlow,2020.1.2,59.89756139244513,
13,Block501.xls,A,1,6,98,38,22,incongruent,Left,Right,Left,79,73,6,blue,2,5,/home/docky/apps/exp/images/79B.jpeg,/home/docky/apps/exp/images/73Bi.jpeg,0,12,12,12,0,5,5,5,1758.517638557998,None,1758.517638557998,None,1,4.442982041975483,1758.517638557998,None,1762.993911115016,None,1762.993911115016,None,1765.5001005179947,None,1765.5001005179947,None,1.0670269840047695,1767.3002664190135,None,1767.3002664190135,None,5,1,2.2203871970123146,1768.353832333989,None,1768.353832333989,None,1768.353832333989,None,1770.5909420649987,None,1,0.500999458017759,1770.5909420649987,None,100,1771.108565617993,None,138,A,1,2021_May_31_1622,GazeFlow,2020.1.2,59.89756139244513,
13,Block501.xls,A,1,7,77,17,21,incongruent,Right,Left,Right,65,66,1,yellow,2,6,/home/docky/apps/exp/images/35B.jpeg,/home/docky/apps/exp/images/66Yi.jpeg,0,12,12,12,0,6,6,6,1772.1110151699977,None,1772.1110151699977,None,1,4.158600627997657,1772.1110151699977,None,1776.3032414719928,None,1776.3032414719928,None,1778.8115556089906,None,1778.8115556089906,None,1.7516287429898512,1780.6047154160042,None,1780.6047154160042,None,5,0,1.1683824789943174,1782.3477733019972,None,1782.3477733019972,None,1782.3477733019972,None,1783.5326828839898,None,1,0.5014508230087813,1783.5326828839898,None,98,1784.050389920012,None,138,A,1,2021_May_31_1622,GazeFlow,2020.1.2,59.89756139244513,
13,Block501.xls,A,1,8,50,50,12,congruent,Right,Right,Left,66,65,1,yellow,2,5,/home/docky/apps/exp/images/66Y.jpeg,/home/docky/apps/exp/images/35Bi.jpeg,0,12,12,12,0,7,7,7,1785.052573005989,None,1785.052573005989,None,1,4.008752635010751,1785.052573005989,None,1789.0947313499928,None,1789.0947313499928,None,1791.5974732030008,None,1791.5974732030008,None,3.05462043301668,1793.4014298279944,None,1793.4014298279944,None,6,0,1.1533873230218887,1796.4565555590088,None,1796.4565555590088,None,1796.4565555590088,None,1797.6268004979938,None,1,0.434308408992365,1797.6268004979938,None,96,1798.0776770809898,None,138,A,1,2021_May_31_1622,GazeFlow,2020.1.2,59.89756139244513,
13,Block501.xls,A,,,,,,,,,,,,,,,,,,0,12,12,12,,,,,,,,,,,,,,,,,,,,,,,,,,,,,,,,,,,,,,,,,,,,138,A,1,2021_May_31_1622,GazeFlow,2020.1.2,59.89756139244513,
14,Block513.xls,A,13,1,32,32,12,congruent,Right,Right,Left,19,16,3,blue,2,5,/home/docky/apps/exp/images/19B.jpeg,/home/docky/apps/exp/images/16Bi.jpeg,0,13,13,13,0,0,0,0,1822.309981302009,None,1822.309981302009,None,1,5.502731301996391,1822.309981302009,None,1827.834433423006,None,1827.834433423006,None,1830.361473405006,None,1830.361473405006,None,1.5004781530005857,1832.1614782749966,None,1832.1614782749966,None,5,1,1.1688076720165554,1833.647466399998,None,1833.647466399998,None,1833.647466399998,None,1834.832674550009,None,1,0.5172941329947207,1834.832674550009,None,98,1835.3667367899907,None,138,A,1,2021_May_31_1622,GazeFlow,2020.1.2,59.89756139244513,
14,Block513.xls,A,13,2,81,21,21,incongruent,Right,Left,Right,38,39,1,yellow,2,6,/home/docky/apps/exp/images/38Yi.jpeg,/home/docky/apps/exp/images/39Y.jpeg,0,13,13,13,0,1,1,1,1836.3689003979962,None,1836.3689003979962,None,1,5.310773073986638,1836.3689003979962,None,1841.7119691520056,None,1841.7119691520056,None,1844.218760691001,None,1844.218760691001,None,1.4675540660100523,1846.021829292993,None,1846.021829292993,None,6,1,1.1020441639993805,1847.474300211994,None,1847.474300211994,None,1847.474300211994,None,1848.5923915349995,None,1,0.5014184920000844,1848.5923915349995,None,100,1849.1100754319923,None,138,A,1,2021_May_31_1622,GazeFlow,2020.1.2,59.89756139244513,
14,Block513.xls,A,13,3,92,32,22,incongruent,Left,Right,Left,19,16,3,blue,2,5,/home/docky/apps/exp/images/19B.jpeg,/home/docky/apps/exp/images/16Bi.jpeg,0,13,13,13,0,2,2,2,1850.1119779470027,None,1850.1119779470027,None,1,4.542838800989557,1850.1119779470027,None,1854.6870524120168,None,1854.6870524120168,None,1857.1912500420003,None,1857.1912500420003,None,1.1508050490228925,1858.9953054389916,None,1858.9953054389916,None,5,1,1.2527473049995024,1860.1322669020155,None,1860.1322669020155,None,1860.1322669020155,None,1861.4007745620038,None,1,0.6009874680021312,1861.4007745620038,None,102,1862.018398070999,None,138,A,1,2021_May_31_1622,GazeFlow,2020.1.2,59.89756139244513,
14,Block513.xls,A,13,4,6,6,11,congruent,Left,Left,Right,65,66,1,blue,2,6,/home/docky/apps/exp/images/35Y.jpeg,/home/docky/apps/exp/images/66Bi.jpeg,0,13,13,13,0,3,3,3,1863.0211113110126,None,1863.0211113110126,None,1,4.926369546999922,1863.0211113110126,None,1867.9821651150123,None,1867.9821651150123,None,1870.485614316014,None,1870.485614316014,None,2.603827465994982,1872.2878629780025,None,1872.2878629780025,None,5,0,1.1699961549893487,1874.8923301710165,None,1874.8923301710165,None,1874.8923301710165,None,1876.0790802510164,None,1,0.5177171409886796,1876.0790802510164,None,100,1876.613590191002,None,138,A,1,2021_May_31_1622,GazeFlow,2020.1.2,59.89756139244513,
14,Block513.xls,A,13,5,67,7,21,incongruent,Right,Left,Right,38,39,1,blue,2,6,/home/docky/apps/exp/images/38Bi.jpeg,/home/docky/apps/exp/images/39B.jpeg,0,13,13,13,0,4,4,4,1877.615909161017,None,1877.615909161017,None,1,4.258666017994983,1877.615909161017,None,1881.9080579300062,None,1881.9080579300062,None,1884.4114126359927,None,1884.4114126359927,None,2.987655693985289,1886.2150183049962,None,1886.2150183049962,None,6,1,1.1679289379972033,1889.2059741379926,None,1889.2059741379926,None,1889.2059741379926,None,1890.390123944002,None,1,0.4344482329906896,1890.390123944002,None,102,1890.841293391015,None,138,A,1,2021_May_31_1622,GazeFlow,2020.1.2,59.89756139244513,
14,Block513.xls,A,13,6,111,51,22,incongruent,Left,Right,Left,66,65,1,yellow,2,5,/home/docky/apps/exp/images/66Yi.jpeg,/home/docky/apps/exp/images/35B.jpeg,0,13,13,13,0,5,5,5,1891.8434115860146,None,1891.8434115860146,None,1,4.208538963983301,1891.8434115860146,None,1896.0859389580146,None,1896.0859389580146,None,1898.5939726380166,None,1898.5939726380166,None,1.417544177005766,1900.3937780359993,None,1900.3937780359993,None,5,1,1.101983319997089,1901.7965090220096,None,1901.7965090220096,None,1901.7965090220096,None,1902.915060533007,None,1,0.4340862850076519,1902.915060533007,None,104,1903.36548489501,None,138,A,1,2021_May_31_1622,GazeFlow,2020.1.2,59.89756139244513,
14,Block513.xls,A,13,7,88,28,21,incongruent,Right,Left,Right,79,82,3,yellow,2,6,/home/docky/apps/exp/images/79Y.jpeg,/home/docky/apps/exp/images/80Yi.jpeg,0,13,13,13,0,6,6,6,1904.367380754993,None,1904.367380754993,None,1,4.142481816001236,1904.367380754993,None,1908.5430794119893,None,1908.5430794119893,None,1911.046072719997,None,1911.046072719997,None,3.3718840930087026,1912.8499228500004,None,1912.8499228500004,None,6,1,1.353394614008721,1916.2229709360108,None,1916.2229709360108,None,1916.2229709360108,None,1917.5927760479972,None,1,0.43443529901560396,1917.5927760479972,None,106,1918.0437308399996,None,138,A,1,2021_May_31_1622,GazeFlow,2020.1.2,59.89756139244513,
14,Block513.xls,A,13,8,14,14,11,congruent,Left,Left,Right,80,83,3,blue,2,6,/home/docky/apps/exp/images/80B.jpeg,/home/docky/apps/exp/images/83Bi.jpeg,0,13,13,13,0,7,7,7,1919.046262701013,None,1919.046262701013,None,1,4.876513163995696,1919.046262701013,None,1923.9565199569915,None,1923.9565199569915,None,1926.459632181999,None,1926.459632181999,None,0.866443753009662,1928.2646933640062,None,1928.2646933640062,None,6,1,2.60485991902533,1929.1160709469987,None,1929.1160709469987,None,1929.1160709469987,None,1931.7371218719927,None,1,1.0356507520191371,1931.7371218719927,None,108,1932.7894089460024,None,138,A,1,2021_May_31_1622,GazeFlow,2020.1.2,59.89756139244513,
14,Block513.xls,A,,,,,,,,,,,,,,,,,,0,13,13,13,,,,,,,,,,,,,,,,,,,,,,,,,,,,,,,,,,,,,,,,,,,,138,A,1,2021_May_31_1622,GazeFlow,2020.1.2,59.89756139244513,
15,Block514.xls,A,14,1,113,53,22,incongruent,Left,Right,Left,75,69,6,yellow,2,5,/home/docky/apps/exp/images/76Y.jpeg,/home/docky/apps/exp/images/69Yi.jpeg,0,14,14,14,0,0,0,0,1954.1973663280078,None,1954.1973663280078,None,1,5.200838156015379,1954.1973663280078,None,1959.4258606240037,None,1959.4258606240037,None,1961.9470996140153,None,1961.9470996140153,None,1.7010136730095837,1963.7505926320155,None,1963.7505926320155,None,5,1,1.102370950015029,1965.4363890769891,None,1965.4363890769891,None,1965.4363890769891,None,1966.555034015997,None,1,0.551065520994598,1966.555034015997,None,110,1967.1226693069912,None,138,A,1,2021_May_31_1622,GazeFlow,2020.1.2,59.89756139244513,
15,Block514.xls,A,14,2,45,45,12,congruent,Right,Right,Left,39,38,1,blue,2,5,/home/docky/apps/exp/images/39B.jpeg,/home/docky/apps/exp/images/38Bi.jpeg,0,14,14,14,0,1,1,1,1968.124710816017,None,1968.124710816017,None,1,4.910376997984713,1968.124710816017,None,1973.068274676014,None,1973.068274676014,None,1975.5708271900075,None,1975.5708271900075,None,2.085602796985768,1977.3742128729937,None,1977.3742128729937,None,5,1,1.5189599430013914,1979.4471103629912,None,1979.4471103629912,None,1979.4471103629912,None,1980.9828015599924,None,1,0.5181477819860447,1980.9828015599924,None,112,1981.5173058870132,None,138,A,1,2021_May_31_1622,GazeFlow,2020.1.2,59.89756139244513,
15,Block514.xls,A,14,3,52,52,12,congruent,Right,Right,Left,75,69,6,yellow,2,5,/home/docky/apps/exp/images/76Y.jpeg,/home/docky/apps/exp/images/69Yi.jpeg,0,14,14,14,0,2,2,2,1982.5195291150012,None,1982.5195291150012,None,1,4.292784167017089,1982.5195291150012,None,1986.8455318500055,None,1986.8455318500055,None,1989.3500377610035,None,1989.3500377610035,None,1.0666734330006875,1991.1521345830115,None,1991.1521345830115,None,5,1,1.051785937976092,1992.2048978050007,None,1992.2048978050007,None,1992.2048978050007,None,1993.2731095060008,None,1,0.5516181520069949,1993.2731095060008,None,114,1993.8415528819896,None,138,A,1,2021_May_31_1622,GazeFlow,2020.1.2,59.89756139244513,
15,Block514.xls,A,14,4,106,46,22,incongruent,Left,Right,Left,35,33,2,yellow,2,5,/home/docky/apps/exp/images/35Yi.jpeg,/home/docky/apps/exp/images/33Y.jpeg,0,14,14,14,0,3,3,3,1994.843102815008,None,1994.843102815008,None,1,4.275602651992813,1994.843102815008,None,1999.1522654900036,None,1999.1522654900036,None,2001.6551758970018,None,2001.6551758970018,None,0.9501201060193125,2003.45295982901,None,2003.45295982901,None,6,0,1.0681133400066756,2004.3957173929957,None,2004.3957173929957,None,2004.3957173929957,None,2005.4802823670034,None,1,0.43493591199512593,2005.4802823670034,None,112,2005.9316253800062,None,138,A,1,2021_May_31_1622,GazeFlow,2020.1.2,59.89756139244513,
15,Block514.xls,A,14,5,109,49,22,incongruent,Left,Right,Left,39,38,1,yellow,2,5,/home/docky/apps/exp/images/39Yi.jpeg,/home/docky/apps/exp/images/38Y.jpeg,0,14,14,14,0,4,4,4,2006.9333450029953,None,2006.9333450029953,None,1,4.4428718730050605,2006.9333450029953,None,2011.4094020880002,None,2011.4094020880002,None,2013.9127529909892,None,2013.9127529909892,None,1.1170187710085884,2015.715619138995,None,2015.715619138995,None,6,0,1.3192246750113554,2016.8196893410059,None,2016.8196893410059,None,2016.8196893410059,None,2018.15550583601,None,1,0.48447246101568453,2018.15550583601,None,110,2018.6561773710127,None,138,A,1,2021_May_31_1622,GazeFlow,2020.1.2,59.89756139244513,
15,Block514.xls,A,14,6,89,29,21,incongruent,Right,Left,Right,79,82,3,yellow,2,6,/home/docky/apps/exp/images/79Yi.jpeg,/home/docky/apps/exp/images/80Y.jpeg,0,14,14,14,0,5,5,5,2019.6579496129998,None,2019.6579496129998,None,1,4.359477664023871,2019.6579496129998,None,2024.050933496008,None,2024.050933496008,None,2026.5535888650047,None,2026.5535888650047,None,1.6010284919757396,2028.3573258630058,None,2028.3573258630058,None,6,1,1.2014940829831176,2029.9451265140087,None,2029.9451265140087,None,2029.9451265140087,None,2031.163281156012,None,1,0.4515288149996195,2031.163281156012,None,112,2031.6311801499978,None,138,A,1,2021_May_31_1622,GazeFlow,2020.1.2,59.89756139244513,
15,Block514.xls,A,14,7,91,31,22,incongruent,Left,Right,Left,19,16,3,blue,2,5,/home/docky/apps/exp/images/19Bi.jpeg,/home/docky/apps/exp/images/16B.jpeg,0,14,14,14,0,6,6,6,2032.633583562012,None,2032.633583562012,None,1,4.609093930979725,2032.633583562012,None,2037.2764930170088,None,2037.2764930170088,None,2039.779732318013,None,2039.779732318013,None,1.016634992993204,2041.5781392540084,None,2041.5781392540084,None,5,1,1.084838787006447,2042.5864573520084,None,2042.5864573520084,None,2042.5864573520084,None,2043.6878754679929,None,1,0.5178825000184588,2043.6878754679929,None,114,2044.2227343870036,None,138,A,1,2021_May_31_1622,GazeFlow,2020.1.2,59.89756139244513,
15,Block514.xls,A,14,8,79,19,21,incongruent,Right,Left,Right,62,65,3,yellow,2,6,/home/docky/apps/exp/images/38B.jpeg,/home/docky/apps/exp/images/35Bi.jpeg,0,14,14,14,0,7,7,7,2045.2242319270154,None,2045.2242319270154,None,1,3.975019292003708,2045.2242319270154,None,2049.232849288004,None,2049.232849288004,None,2051.736235132994,None,2051.736235132994,None,0.9665514979860745,2053.535235838004,None,2053.535235838004,None,6,1,1.268598707014462,2054.4928212380037,None,2054.4928212380037,None,2054.4928212380037,None,2055.7783147630107,None,1,0.5016456760058645,2055.7783147630107,None,116,2056.2960303850123,None,138,A,1,2021_May_31_1622,GazeFlow,2020.1.2,59.89756139244513,
15,Block514.xls,A,,,,,,,,,,,,,,,,,,0,14,14,14,,,,,,,,,,,,,,,,,,,,,,,,,,,,,,,,,,,,,,,,,,,,138,A,1,2021_May_31_1622,GazeFlow,2020.1.2,59.89756139244513,
