Nblock,condsFile,grouping,Block,TrialBlock,N,trialN,trialCond,gazeCon,gazedirR,corrBinR,corrBinP,valLBY,valRBY,diff,colorCube,feedbacktext,corrAns,imageL,imageR,SelBlocks.thisRepN,SelBlocks.thisTrialN,SelBlocks.thisN,SelBlocks.thisIndex,Trials.thisRepN,Trials.thisTrialN,Trials.thisN,Trials.thisIndex,waitCube.started,waitCube.stopped,text_3.started,text_3.stopped,StartKeyPress.keys,StartKeyPress.rt,StartKeyPress.started,StartKeyPress.stopped,StimL.started,StimL.stopped,StimR.started,StimR.stopped,imageStim2L.started,imageStim2L.stopped,imageStim2R.started,imageStim2R.stopped,RTkeyRelease,imageStim3L.started,imageStim3L.stopped,imageStim3R.started,imageStim3R.stopped,dropResp.keys,dropResp.corr,dropResp.rt,dropResp.started,dropResp.stopped,imageStim5L.started,imageStim5L.stopped,imageStim5R.started,imageStim5R.stopped,text_2.started,text_2.stopped,ReturnSpace.keys,ReturnSpace.rt,ReturnSpace.started,ReturnSpace.stopped,totalpoints,textFeedback.started,textFeedback.stopped,participant,group,session,date,expName,psychopyVersion,frameRate,
1,Block809.xls,B,9,1,93,93,None,congruent,Right,Right,Left,80,79,1,yellow,2,5,/home/docky/apps/exp/images/80Y.jpeg,/home/docky/apps/exp/images/79Yi.jpeg,0,0,0,0,0,0,0,0,48.18806078600028,None,48.18806078600028,None,1,15.919275190000008,48.18806078600028,None,64.14429868800016,None,64.14429868800016,None,66.65646572400055,None,66.65646572400055,None,1.0162705780003307,68.46039170299991,None,68.46039170299991,None,5,1,2.1204861910000545,69.45932590800021,None,69.45932590800021,None,69.45932590800021,None,71.59619553799985,None,1,0.6014812579996942,71.59619553799985,None,2,72.21413948100053,None,139,B,1,2021_Jun_01_0932,GazeFlow,2020.1.2,59.88495321990068,
1,Block809.xls,B,9,2,15,15,None,congruent,Left,Left,Right,38,39,1,blue,2,6,/home/docky/apps/exp/images/38B.jpeg,/home/docky/apps/exp/images/39Bi.jpeg,0,0,0,0,0,1,1,1,73.21654315700016,None,73.21654315700016,None,1,6.062325146000148,73.21654315700016,None,79.31235107300017,None,79.31235107300017,None,81.8171294169997,None,81.8171294169997,None,1.851530496000123,83.61813434600026,None,83.61813434600026,None,6,1,1.4521772150001198,85.45718224099983,None,85.45718224099983,None,85.45718224099983,None,86.92599025599975,None,1,0.4510175919995163,86.92599025599975,None,4,87.39348120799968,None,139,B,1,2021_Jun_01_0932,GazeFlow,2020.1.2,59.88495321990068,
1,Block809.xls,B,9,3,117,21,None,incongruent,Left,Right,Left,39,38,1,yellow,2,5,/home/docky/apps/exp/images/39Yi.jpeg,/home/docky/apps/exp/images/38Y.jpeg,0,0,0,0,0,2,2,2,88.39593902999968,None,88.39593902999968,None,1,5.16029562499989,88.39593902999968,None,93.58997630900012,None,93.58997630900012,None,96.09273877000032,None,96.09273877000032,None,1.3677663620001113,97.89559731500049,None,97.89559731500049,None,6,0,1.6528023290002238,99.25054294500023,None,99.25054294500023,None,99.25054294500023,None,100.91977321000013,None,1,3.0901281320002454,100.91977321000013,None,2,104.02625395900031,None,139,B,1,2021_Jun_01_0932,GazeFlow,2020.1.2,59.88495321990068,
1,Block809.xls,B,9,4,94,94,None,congruent,Right,Right,Left,80,79,1,yellow,2,5,/home/docky/apps/exp/images/80Y.jpeg,/home/docky/apps/exp/images/79Yi.jpeg,0,0,0,0,0,3,3,3,105.0283441520005,None,105.0283441520005,None,1,3.8242828359998384,105.0283441520005,None,108.88478302600015,None,108.88478302600015,None,111.39107632299965,None,111.39107632299965,None,1.8520010639995235,113.18809429799967,None,113.18809429799967,None,6,0,2.0701326460002747,115.03125594599987,None,115.03125594599987,None,115.03125594599987,None,117.11798612999974,None,1,3.374221101999865,117.11798612999974,None,0,120.508153322,None,139,B,1,2021_Jun_01_0932,GazeFlow,2020.1.2,59.88495321990068,
1,Block809.xls,B,9,5,41,41,None,congruent,Right,Right,Left,79,76,3,blue,2,5,/home/docky/apps/exp/images/79Bi.jpeg,/home/docky/apps/exp/images/76B.jpeg,0,0,0,0,0,4,4,4,121.51022014400041,None,121.51022014400041,None,1,4.893266761000632,121.51022014400041,None,126.43786859800002,None,126.43786859800002,None,128.94206895200023,None,128.94206895200023,None,1.1002555980003308,130.7440365499997,None,130.7440365499997,None,5,1,1.5356076090001807,131.83078476900027,None,131.83078476900027,None,131.83078476900027,None,133.38325806000012,None,1,0.7678797360003955,133.38325806000012,None,2,134.16796968400013,None,139,B,1,2021_Jun_01_0932,GazeFlow,2020.1.2,59.88495321990068,
1,Block809.xls,B,9,6,36,36,None,congruent,Right,Right,Left,79,73,6,blue,2,5,/home/docky/apps/exp/images/79Bi.jpeg,/home/docky/apps/exp/images/73B.jpeg,0,0,0,0,0,5,5,5,135.16997536300005,None,135.16997536300005,None,1,4.375581367999985,135.16997536300005,None,139.57934511500025,None,139.57934511500025,None,142.08497829299995,None,142.08497829299995,None,1.534378433000711,143.8860788080001,None,143.8860788080001,None,5,1,1.9699414950000573,145.40694943299968,None,145.40694943299968,None,145.40694943299968,None,147.39355159600018,None,1,0.8685752809997211,147.39355159600018,None,4,148.27889774200048,None,139,B,1,2021_Jun_01_0932,GazeFlow,2020.1.2,59.88495321990068,
1,Block809.xls,B,9,7,78,78,None,congruent,Right,Right,Left,39,38,1,yellow,2,5,/home/docky/apps/exp/images/39Yi.jpeg,/home/docky/apps/exp/images/38Y.jpeg,0,0,0,0,0,6,6,6,149.28092266600015,None,149.28092266600015,None,1,5.210460402000535,149.28092266600015,None,154.52771267299977,None,154.52771267299977,None,157.02995573499993,None,157.02995573499993,None,1.8681556499996077,158.83180327599985,None,158.83180327599985,None,5,1,1.5689007599994511,160.68666571799986,None,160.68666571799986,None,160.68666571799986,None,162.27216515500004,None,1,0.8353873920004844,162.27216515500004,None,6,163.1241066419998,None,139,B,1,2021_Jun_01_0932,GazeFlow,2020.1.2,59.88495321990068,
1,Block809.xls,B,9,8,29,29,None,congruent,Right,Right,Left,38,35,3,blue,2,5,/home/docky/apps/exp/images/38B.jpeg,/home/docky/apps/exp/images/35Bi.jpeg,0,0,0,0,0,7,7,7,164.12634978700044,None,164.12634978700044,None,1,4.275290235000284,164.12634978700044,None,168.43541897700015,None,168.43541897700015,None,170.94026815300003,None,170.94026815300003,None,1.1836886250002863,172.74375996100025,None,172.74375996100025,None,5,1,7.314214503000585,173.9121695519998,None,173.9121695519998,None,173.9121695519998,None,181.24286677500004,None,1,2.3550522709992947,181.24286677500004,None,8,183.61409255800027,None,139,B,1,2021_Jun_01_0932,GazeFlow,2020.1.2,59.88495321990068,
1,Block809.xls,B,,,,,,,,,,,,,,,,,,0,0,0,0,,,,,,,,,,,,,,,,,,,,,,,,,,,,,,,,,,,,,,,,,,,,139,B,1,2021_Jun_01_0932,GazeFlow,2020.1.2,59.88495321990068,
2,Block805.xls,B,5,1,16,16,None,congruent,Left,Left,Right,73,76,3,blue,2,6,/home/docky/apps/exp/images/73B.jpeg,/home/docky/apps/exp/images/76Bi.jpeg,0,1,1,1,0,0,0,0,207.3287142199997,None,207.3287142199997,None,1,8.052889413999765,207.3287142199997,None,215.40494738100006,None,215.40494738100006,None,217.9315265160003,None,217.9315265160003,None,0.7486337609998372,219.7352742869998,None,219.7352742869998,None,6,1,1.368686357000115,220.46937181999965,None,220.46937181999965,None,220.46937181999965,None,221.85493998200036,None,1,0.5681572209996375,221.85493998200036,None,10,222.43958266899972,None,139,B,1,2021_Jun_01_0932,GazeFlow,2020.1.2,59.88495321990068,
2,Block805.xls,B,5,2,2,2,None,congruent,Left,Left,Right,16,19,3,blue,2,6,/home/docky/apps/exp/images/16B.jpeg,/home/docky/apps/exp/images/19Bi.jpeg,0,1,1,1,0,1,1,1,223.44116425500033,None,223.44116425500033,None,1,5.010907443000178,223.44116425500033,None,228.48518110999976,None,228.48518110999976,None,230.98871494099967,None,230.98871494099967,None,1.0502345699997022,232.79192281199994,None,232.79192281199994,None,6,1,1.2522636519997832,233.82859562799968,None,233.82859562799968,None,233.82859562799968,None,235.096956589,None,1,0.4349323469996307,235.096956589,None,12,235.54849751500024,None,139,B,1,2021_Jun_01_0932,GazeFlow,2020.1.2,59.88495321990068,
2,Block805.xls,B,5,3,64,64,None,congruent,Left,Left,Right,69,76,7,yellow,2,6,/home/docky/apps/exp/images/69Y.jpeg,/home/docky/apps/exp/images/76Yi.jpeg,0,1,1,1,0,2,2,2,236.54985496800055,None,236.54985496800055,None,1,3.5751434800004063,236.54985496800055,None,240.15799939600038,None,240.15799939600038,None,242.6607123140002,None,242.6607123140002,None,1.1836661140005162,244.46392982199995,None,244.46392982199995,None,5,0,1.3362996330006354,245.63485856599982,None,245.63485856599982,None,245.63485856599982,None,246.9873664429997,None,1,0.5674057050000556,246.9873664429997,None,10,247.57151392500054,None,139,B,1,2021_Jun_01_0932,GazeFlow,2020.1.2,59.88495321990068,
2,Block805.xls,B,5,4,61,61,None,congruent,Left,Left,Right,38,39,1,yellow,2,6,/home/docky/apps/exp/images/38Yi.jpeg,/home/docky/apps/exp/images/39Y.jpeg,0,1,1,1,0,3,3,3,248.5733067760002,None,248.5733067760002,None,1,4.258989515000394,248.5733067760002,None,252.86593195000023,None,252.86593195000023,None,255.36911052100004,None,255.36911052100004,None,1.1503253989994846,257.1669683660002,None,257.1669683660002,None,5,0,1.1347642049995557,258.3097240500001,None,258.3097240500001,None,258.3097240500001,None,259.46141944100054,None,1,0.6844520529994043,259.46141944100054,None,8,260.16225630400004,None,139,B,1,2021_Jun_01_0932,GazeFlow,2020.1.2,59.88495321990068,
2,Block805.xls,B,5,5,23,23,None,congruent,Left,Left,Right,80,83,3,blue,2,6,/home/docky/apps/exp/images/80B.jpeg,/home/docky/apps/exp/images/83Bi.jpeg,0,1,1,1,0,4,4,4,261.16440284000055,None,261.16440284000055,None,1,4.142092664999836,261.16440284000055,None,265.3401303110004,None,265.3401303110004,None,267.8436290079999,None,267.8436290079999,None,1.3841303839999455,269.6470711310003,None,269.6470711310003,None,5,0,1.2684712860000218,271.01756612900044,None,271.01756612900044,None,271.01756612900044,None,272.30250549300035,None,1,0.7349437240000043,272.30250549300035,None,6,273.0543120299999,None,139,B,1,2021_Jun_01_0932,GazeFlow,2020.1.2,59.88495321990068,
2,Block805.xls,B,5,6,87,87,None,congruent,Right,Right,Left,76,69,7,yellow,2,5,/home/docky/apps/exp/images/76Yi.jpeg,/home/docky/apps/exp/images/69Y.jpeg,0,1,1,1,0,5,5,5,274.0562494200003,None,274.0562494200003,None,1,4.058380789000694,274.0562494200003,None,278.1484836039999,None,278.1484836039999,None,280.6518501290002,None,280.6518501290002,None,0.9670138800001951,282.4543491479999,None,282.4543491479999,None,5,1,1.0017697729999782,283.4080629119999,None,283.4080629119999,None,283.4080629119999,None,284.42628095800046,None,1,0.5350224069998148,284.42628095800046,None,8,284.97759524899993,None,139,B,1,2021_Jun_01_0932,GazeFlow,2020.1.2,59.88495321990068,
2,Block805.xls,B,5,7,4,4,None,congruent,Left,Left,Right,35,38,3,blue,2,6,/home/docky/apps/exp/images/35B.jpeg,/home/docky/apps/exp/images/38Bi.jpeg,0,1,1,1,0,6,6,6,285.97951941300016,None,285.97951941300016,None,1,4.308803467999496,285.97951941300016,None,290.3220498970004,None,290.3220498970004,None,292.8268207000001,None,292.8268207000001,None,1.4345829269996102,294.6306062809999,None,294.6306062809999,None,6,1,1.1860632370007806,296.0493538460005,None,296.0493538460005,None,296.0493538460005,None,297.2516552730003,None,1,0.5341096789998119,297.2516552730003,None,10,297.80221088100006,None,139,B,1,2021_Jun_01_0932,GazeFlow,2020.1.2,59.88495321990068,
2,Block805.xls,B,5,8,114,18,None,incongruent,Right,Left,Right,79,82,3,yellow,2,6,/home/docky/apps/exp/images/79Y.jpeg,/home/docky/apps/exp/images/80Yi.jpeg,0,1,1,1,0,7,7,7,298.80434944100034,None,298.80434944100034,None,1,3.524039363999691,298.80434944100034,None,302.36213515800046,None,302.36213515800046,None,304.86525194600017,None,304.86525194600017,None,1.801559697999437,306.66846806300055,None,306.66846806300055,None,5,0,2.571851997000522,308.4568743910004,None,308.4568743910004,None,308.4568743910004,None,311.04457898200053,None,1,1.3202616449998459,311.04457898200053,None,8,312.3811024980005,None,139,B,1,2021_Jun_01_0932,GazeFlow,2020.1.2,59.88495321990068,
2,Block805.xls,B,,,,,,,,,,,,,,,,,,0,1,1,1,,,,,,,,,,,,,,,,,,,,,,,,,,,,,,,,,,,,,,,,,,,,139,B,1,2021_Jun_01_0932,GazeFlow,2020.1.2,59.88495321990068,
3,Block804.xls,B,4,1,95,95,None,congruent,Right,Right,Left,80,79,1,yellow,2,5,/home/docky/apps/exp/images/80Yi.jpeg,/home/docky/apps/exp/images/79Y.jpeg,0,2,2,2,0,0,0,0,341.17224998500024,None,341.17224998500024,None,1,9.08740387800026,341.17224998500024,None,350.29567389899967,None,350.29567389899967,None,352.81085718600025,None,352.81085718600025,None,1.383548788000553,354.61375410300025,None,354.61375410300025,None,5,1,2.5874943870003335,355.98266911300016,None,355.98266911300016,None,355.98266911300016,None,358.5869776310001,None,1,0.7521069709991934,358.5869776310001,None,10,359.35560152000016,None,139,B,1,2021_Jun_01_0932,GazeFlow,2020.1.2,59.88495321990068,
3,Block804.xls,B,4,2,107,11,None,incongruent,Left,Right,Left,83,80,3,blue,2,5,/home/docky/apps/exp/images/83Bi.jpeg,/home/docky/apps/exp/images/80B.jpeg,0,2,2,2,0,1,1,1,360.357531871,None,360.357531871,None,1,6.078720296000029,360.357531871,None,366.47399756899995,None,366.47399756899995,None,368.9730747000003,None,368.9730747000003,None,0.8486991800000396,370.7785709970003,None,370.7785709970003,None,6,0,1.2687397950003287,371.6128441560004,None,371.6128441560004,None,371.6128441560004,None,372.8981535590001,None,1,0.5680235179997908,372.8981535590001,None,8,373.48290567000004,None,139,B,1,2021_Jun_01_0932,GazeFlow,2020.1.2,59.88495321990068,
3,Block804.xls,B,4,3,27,27,None,congruent,Right,Right,Left,19,16,3,blue,2,5,/home/docky/apps/exp/images/19Bi.jpeg,/home/docky/apps/exp/images/16B.jpeg,0,2,2,2,0,2,2,2,374.48459731,None,374.48459731,None,1,4.308976170999813,374.48459731,None,378.8273077849999,None,378.8273077849999,None,381.3320723759998,None,381.3320723759998,None,1.0666053719996853,383.1281044240004,None,383.1281044240004,None,5,1,1.1183926369994879,384.1872716180005,None,384.1872716180005,None,384.1872716180005,None,385.3221129430003,None,1,0.9686562349997985,385.3221129430003,None,10,386.30742253300014,None,139,B,1,2021_Jun_01_0932,GazeFlow,2020.1.2,59.88495321990068,
3,Block804.xls,B,4,4,101,5,None,incongruent,Right,Left,Right,76,79,3,blue,2,6,/home/docky/apps/exp/images/76B.jpeg,/home/docky/apps/exp/images/79Bi.jpeg,0,2,2,2,0,3,3,3,387.3097454360004,None,387.3097454360004,None,1,3.7576908860000913,387.3097454360004,None,391.1064524270005,None,391.1064524270005,None,393.60586768600024,None,393.60586768600024,None,1.3506183990002683,395.40773833799994,None,395.40773833799994,None,6,1,3.340442147000431,396.7448524190004,None,396.7448524190004,None,396.7448524190004,None,400.1014306449997,None,1,0.6180007020002449,400.1014306449997,None,12,400.73593287600033,None,139,B,1,2021_Jun_01_0932,GazeFlow,2020.1.2,59.88495321990068,
3,Block804.xls,B,4,5,47,47,None,congruent,Right,Right,Left,39,38,1,blue,2,5,/home/docky/apps/exp/images/39Bi.jpeg,/home/docky/apps/exp/images/38B.jpeg,0,2,2,2,0,4,4,4,401.73790082899995,None,401.73790082899995,None,1,3.9245403089998945,401.73790082899995,None,405.69616112899985,None,405.69616112899985,None,408.19902601600006,None,408.19902601600006,None,1.1336915499996394,410.00270542199996,None,410.00270542199996,None,5,1,1.4862235090004106,411.1228592039997,None,411.1228592039997,None,411.1228592039997,None,412.6256388740003,None,1,1.3688957650001612,412.6256388740003,None,14,414.01123248299973,None,139,B,1,2021_Jun_01_0932,GazeFlow,2020.1.2,59.88495321990068,
3,Block804.xls,B,4,6,90,90,None,congruent,Right,Right,Left,77,72,5,yellow,2,5,/home/docky/apps/exp/images/77Yi.jpeg,/home/docky/apps/exp/images/72Y.jpeg,0,2,2,2,0,5,5,5,415.0136978090004,None,415.0136978090004,None,1,4.258430435000264,415.0136978090004,None,419.30413809400034,None,419.30413809400034,None,421.81086698299987,None,421.81086698299987,None,1.4509160570005406,423.6123682520001,None,423.6123682520001,None,5,1,2.788303688999804,425.050021043,None,425.050021043,None,425.050021043,None,427.85482156499984,None,1,1.086420026000269,427.85482156499984,None,16,428.95717429199976,None,139,B,1,2021_Jun_01_0932,GazeFlow,2020.1.2,59.88495321990068,
3,Block804.xls,B,4,7,12,12,None,congruent,Left,Left,Right,38,39,1,blue,2,6,/home/docky/apps/exp/images/38B.jpeg,/home/docky/apps/exp/images/39Bi.jpeg,0,2,2,2,0,6,6,6,429.959391935,None,429.959391935,None,1,5.828584898000372,429.959391935,None,435.82145131500056,None,435.82145131500056,None,438.32385032300044,None,438.32385032300044,None,1.1505898890000026,440.1231480770002,None,440.1231480770002,None,6,1,1.7367425209995417,441.26478203399984,None,441.26478203399984,None,441.26478203399984,None,443.01805167899965,None,1,0.750936659999752,443.01805167899965,None,18,443.7859902830005,None,139,B,1,2021_Jun_01_0932,GazeFlow,2020.1.2,59.88495321990068,
3,Block804.xls,B,4,8,20,20,None,congruent,Left,Left,Right,76,79,3,blue,2,6,/home/docky/apps/exp/images/76Bi.jpeg,/home/docky/apps/exp/images/79B.jpeg,0,2,2,2,0,7,7,7,444.7879621740003,None,444.7879621740003,None,1,4.676137274999746,444.7879621740003,None,449.49793647000024,None,449.49793647000024,None,452.00276951900014,None,452.00276951900014,None,1.2505012020001232,453.80376903399974,None,453.80376903399974,None,6,1,1.5363745519998702,455.0415964590002,None,455.0415964590002,None,455.0415964590002,None,456.5943596779998,None,1,0.6509803879998799,456.5943596779998,None,20,457.261958135,None,139,B,1,2021_Jun_01_0932,GazeFlow,2020.1.2,59.88495321990068,
3,Block804.xls,B,,,,,,,,,,,,,,,,,,0,2,2,2,,,,,,,,,,,,,,,,,,,,,,,,,,,,,,,,,,,,,,,,,,,,139,B,1,2021_Jun_01_0932,GazeFlow,2020.1.2,59.88495321990068,
4,Block814.xls,B,14,1,99,3,None,incongruent,Right,Left,Right,65,66,1,blue,2,6,/home/docky/apps/exp/images/35Yi.jpeg,/home/docky/apps/exp/images/66B.jpeg,0,3,3,3,0,0,0,0,475.46714913600044,None,475.46714913600044,None,1,9.355187044999184,475.46714913600044,None,484.8571584860001,None,484.8571584860001,None,487.3697317670003,None,487.3697317670003,None,1.5506802660001995,489.16821304899986,None,489.16821304899986,None,5,0,1.369420421000541,490.7107910249997,None,490.7107910249997,None,490.7107910249997,None,492.0961604160002,None,1,0.7680265769995458,492.0961604160002,None,18,492.88124683499973,None,139,B,1,2021_Jun_01_0932,GazeFlow,2020.1.2,59.88495321990068,
4,Block814.xls,B,14,2,34,34,None,congruent,Right,Right,Left,66,65,1,blue,2,5,/home/docky/apps/exp/images/66B.jpeg,/home/docky/apps/exp/images/35Yi.jpeg,0,3,3,3,0,1,1,1,493.8835273089999,None,493.8835273089999,None,1,4.709333556999809,493.8835273089999,None,498.6266032960002,None,498.6266032960002,None,501.12978263400055,None,501.12978263400055,None,0.9002381370000876,502.9320839789998,None,502.9320839789998,None,5,1,1.1011255209996307,503.8197635429997,None,503.8197635429997,None,503.8197635429997,None,504.93782384099995,None,1,0.5178053830004501,504.93782384099995,None,20,505.471906367,None,139,B,1,2021_Jun_01_0932,GazeFlow,2020.1.2,59.88495321990068,
4,Block814.xls,B,14,3,91,91,None,congruent,Right,Right,Left,77,72,5,yellow,2,5,/home/docky/apps/exp/images/77Yi.jpeg,/home/docky/apps/exp/images/72Y.jpeg,0,3,3,3,0,2,2,2,506.4742325790003,None,506.4742325790003,None,1,4.926679753999451,506.4742325790003,None,511.43285038199974,None,511.43285038199974,None,513.9377949509999,None,513.9377949509999,None,0.8668842890001542,515.7411156710004,None,515.7411156710004,None,5,1,1.118347372000244,516.5945131159997,None,516.5945131159997,None,516.5945131159997,None,517.7293601310002,None,1,0.46854143800010206,517.7293601310002,None,22,518.2139311070005,None,139,B,1,2021_Jun_01_0932,GazeFlow,2020.1.2,59.88495321990068,
4,Block814.xls,B,14,4,68,68,None,congruent,Left,Left,Right,72,77,5,yellow,2,6,/home/docky/apps/exp/images/72Yi.jpeg,/home/docky/apps/exp/images/77Y.jpeg,0,3,3,3,0,3,3,3,519.2155947480005,None,519.2155947480005,None,1,4.225849646000825,519.2155947480005,None,523.4753038340004,None,523.4753038340004,None,525.978039269,None,525.978039269,None,0.7329484940000839,527.7811974850001,None,527.7811974850001,None,6,1,1.2683980809997593,528.5009841150004,None,528.5009841150004,None,528.5009841150004,None,529.7860934480004,None,1,0.4515924389997963,529.7860934480004,None,24,530.2540124289999,None,139,B,1,2021_Jun_01_0932,GazeFlow,2020.1.2,59.88495321990068,
4,Block814.xls,B,14,5,66,66,None,congruent,Left,Left,Right,69,76,7,yellow,2,6,/home/docky/apps/exp/images/69Yi.jpeg,/home/docky/apps/exp/images/76Y.jpeg,0,3,3,3,0,4,4,4,531.2556259459998,None,531.2556259459998,None,1,3.7917836030001126,531.2556259459998,None,535.0809200120002,None,535.0809200120002,None,537.5840589899999,None,537.5840589899999,None,0.749798544999976,539.387308755,None,539.387308755,None,6,1,1.151692460999584,540.1234608510003,None,540.1234608510003,None,540.1234608510003,None,541.2917984790001,None,1,0.4681013629997324,541.2917984790001,None,26,541.7764661390001,None,139,B,1,2021_Jun_01_0932,GazeFlow,2020.1.2,59.88495321990068,
4,Block814.xls,B,14,6,115,19,None,incongruent,Left,Right,Left,80,79,1,yellow,2,5,/home/docky/apps/exp/images/80Yi.jpeg,/home/docky/apps/exp/images/79Y.jpeg,0,3,3,3,0,5,5,5,542.7778813559999,None,542.7778813559999,None,1,3.5082381439997334,542.7778813559999,None,546.3193434049999,None,546.3193434049999,None,548.8242438120005,None,548.8242438120005,None,1.1002642579996973,550.6251183969998,None,550.6251183969998,None,5,1,1.2519070589996772,551.7126453460005,None,551.7126453460005,None,551.7126453460005,None,552.9814909550005,None,1,0.5015380639997602,552.9814909550005,None,28,553.4991633500003,None,139,B,1,2021_Jun_01_0932,GazeFlow,2020.1.2,59.88495321990068,
4,Block814.xls,B,14,7,9,9,None,congruent,Left,Left,Right,65,66,1,blue,2,6,/home/docky/apps/exp/images/35Yi.jpeg,/home/docky/apps/exp/images/66B.jpeg,0,3,3,3,0,6,6,6,554.500700521,None,554.500700521,None,1,4.894000528999641,554.500700521,None,559.4293356400003,None,559.4293356400003,None,561.9313340210001,None,561.9313340210001,None,0.9000724369998352,563.734022013,None,563.734022013,None,6,1,1.118642875999285,564.6208459870004,None,564.6208459870004,None,564.6208459870004,None,565.7558358960005,None,1,0.4349313050006458,565.7558358960005,None,30,566.2073327380003,None,139,B,1,2021_Jun_01_0932,GazeFlow,2020.1.2,59.88495321990068,
4,Block814.xls,B,14,8,14,14,None,congruent,Left,Left,Right,38,39,1,blue,2,6,/home/docky/apps/exp/images/38Bi.jpeg,/home/docky/apps/exp/images/39B.jpeg,0,3,3,3,0,7,7,7,567.2086375549998,None,567.2086375549998,None,1,3.9250425199998062,567.2086375549998,None,571.1676971480001,None,571.1676971480001,None,573.670840322,None,573.670840322,None,1.200619641999765,575.4760926400004,None,575.4760926400004,None,6,1,2.838197521999973,576.6611780650001,None,576.6611780650001,None,576.6611780650001,None,579.5158885820001,None,1,0.5345874000004187,579.5158885820001,None,32,580.0671764170002,None,139,B,1,2021_Jun_01_0932,GazeFlow,2020.1.2,59.88495321990068,
4,Block814.xls,B,,,,,,,,,,,,,,,,,,0,3,3,3,,,,,,,,,,,,,,,,,,,,,,,,,,,,,,,,,,,,,,,,,,,,139,B,1,2021_Jun_01_0932,GazeFlow,2020.1.2,59.88495321990068,
5,Block812.xls,B,12,1,18,18,None,congruent,Left,Left,Right,73,76,3,blue,2,6,/home/docky/apps/exp/images/73B.jpeg,/home/docky/apps/exp/images/76Bi.jpeg,0,4,4,4,0,0,0,0,601.7114249309998,None,601.7114249309998,None,1,9.187052426000264,601.7114249309998,None,610.926322712,None,610.926322712,None,613.4531684490003,None,613.4531684490003,None,2.536205188999702,615.247075282,None,615.247075282,None,6,1,1.385550942000009,617.7746296630003,None,617.7746296630003,None,617.7746296630003,None,619.1765202719998,None,1,0.6344654309996258,619.1765202719998,None,34,619.8274823110005,None,139,B,1,2021_Jun_01_0932,GazeFlow,2020.1.2,59.88495321990068,
5,Block812.xls,B,12,2,3,3,None,congruent,Left,Left,Right,16,19,3,blue,2,6,/home/docky/apps/exp/images/16Bi.jpeg,/home/docky/apps/exp/images/19B.jpeg,0,4,4,4,0,1,1,1,620.830019131,None,620.830019131,None,1,5.377428645999316,620.830019131,None,626.2412917910005,None,626.2412917910005,None,628.744204998,None,628.744204998,None,0.8999114609996468,630.5477297440002,None,630.5477297440002,None,6,1,1.2515901299993857,631.4344436640004,None,631.4344436640004,None,631.4344436640004,None,632.7026078910003,None,1,0.51821436299997,632.7026078910003,None,36,633.2374008409997,None,139,B,1,2021_Jun_01_0932,GazeFlow,2020.1.2,59.88495321990068,
5,Block812.xls,B,12,3,56,56,None,congruent,Left,Left,Right,62,65,3,yellow,2,6,/home/docky/apps/exp/images/38Bi.jpeg,/home/docky/apps/exp/images/35B.jpeg,0,4,4,4,0,2,2,2,634.2390683450003,None,634.2390683450003,None,1,5.361521348999304,634.2390683450003,None,639.6337127850002,None,639.6337127850002,None,642.1387759340005,None,642.1387759340005,None,0.9500953149999987,643.9404609740004,None,643.9404609740004,None,6,1,1.3025323450001451,644.8768789100004,None,644.8768789100004,None,644.8768789100004,None,646.1954579379999,None,1,0.485326310000346,646.1954579379999,None,38,646.6969200989997,None,139,B,1,2021_Jun_01_0932,GazeFlow,2020.1.2,59.88495321990068,
5,Block812.xls,B,12,4,11,11,None,congruent,Left,Left,Right,38,39,1,blue,2,6,/home/docky/apps/exp/images/38B.jpeg,/home/docky/apps/exp/images/39Bi.jpeg,0,4,4,4,0,3,3,3,647.6984953270003,None,647.6984953270003,None,1,4.142012055999658,647.6984953270003,None,651.8726770840003,None,651.8726770840003,None,654.3800171180001,None,654.3800171180001,None,1.2839366200005315,656.1754141419997,None,656.1754141419997,None,6,1,1.4026617560002705,657.4513333550003,None,657.4513333550003,None,657.4513333550003,None,658.8705233760002,None,1,0.5007307910000236,658.8705233760002,None,40,659.3874724369998,None,139,B,1,2021_Jun_01_0932,GazeFlow,2020.1.2,59.88495321990068,
5,Block812.xls,B,12,5,116,20,None,incongruent,Left,Right,Left,35,33,2,yellow,2,5,/home/docky/apps/exp/images/35Yi.jpeg,/home/docky/apps/exp/images/33Y.jpeg,0,4,4,4,0,4,4,4,660.3897624470001,None,660.3897624470001,None,1,6.129673747999732,660.3897624470001,None,666.5526924389997,None,666.5526924389997,None,669.0559581710004,None,669.0559581710004,None,1.6680740109995895,670.8595336879998,None,670.8595336879998,None,5,1,1.4857169960005194,672.5137669670003,None,672.5137669670003,None,672.5137669670003,None,674.0163169019997,None,1,0.5511393799997677,674.0163169019997,None,42,674.5840562869998,None,139,B,1,2021_Jun_01_0932,GazeFlow,2020.1.2,59.88495321990068,
5,Block812.xls,B,12,6,40,40,None,congruent,Right,Right,Left,79,76,3,blue,2,5,/home/docky/apps/exp/images/79Bi.jpeg,/home/docky/apps/exp/images/76B.jpeg,0,4,4,4,0,5,5,5,675.5861110320002,None,675.5861110320002,None,1,4.458967302999554,675.5861110320002,None,680.077341483,None,680.077341483,None,682.5826172249999,None,682.5826172249999,None,0.8663790009995864,684.3873390670005,None,684.3873390670005,None,5,1,1.2189236200001687,685.2386386580001,None,685.2386386580001,None,685.2386386580001,None,686.4737022030004,None,1,0.602296774000024,686.4737022030004,None,44,687.0920372999999,None,139,B,1,2021_Jun_01_0932,GazeFlow,2020.1.2,59.88495321990068,
5,Block812.xls,B,12,7,76,76,None,congruent,Right,Right,Left,39,38,1,yellow,2,5,/home/docky/apps/exp/images/39Yi.jpeg,/home/docky/apps/exp/images/38Y.jpeg,0,4,4,4,0,6,6,6,688.0936453450004,None,688.0936453450004,None,1,4.476021682000464,688.0936453450004,None,692.6035357800001,None,692.6035357800001,None,695.106423274,None,695.106423274,None,1.183808938999391,696.9099397239997,None,696.9099397239997,None,6,0,1.7200475109993931,698.080049489,None,698.080049489,None,698.080049489,None,699.8160912450003,None,1,0.6684280950003085,699.8160912450003,None,42,700.5008006650005,None,139,B,1,2021_Jun_01_0932,GazeFlow,2020.1.2,59.88495321990068,
5,Block812.xls,B,12,8,77,77,None,congruent,Right,Right,Left,39,38,1,yellow,2,5,/home/docky/apps/exp/images/39Y.jpeg,/home/docky/apps/exp/images/38Yi.jpeg,0,4,4,4,0,7,7,7,701.5029306269998,None,701.5029306269998,None,1,4.17522983300023,701.5029306269998,None,705.7120873310005,None,705.7120873310005,None,708.2168131650005,None,708.2168131650005,None,1.9018683410004087,710.0188661279999,None,710.0188661279999,None,5,1,1.6028133230001913,711.9070721790004,None,711.9070721790004,None,711.9070721790004,None,713.526100903,None,1,0.5178957319994879,713.526100903,None,44,714.0608076179997,None,139,B,1,2021_Jun_01_0932,GazeFlow,2020.1.2,59.88495321990068,
5,Block812.xls,B,,,,,,,,,,,,,,,,,,0,4,4,4,,,,,,,,,,,,,,,,,,,,,,,,,,,,,,,,,,,,,,,,,,,,139,B,1,2021_Jun_01_0932,GazeFlow,2020.1.2,59.88495321990068,
6,Block803.xls,B,3,1,84,84,None,congruent,Right,Right,Left,75,69,6,yellow,2,5,/home/docky/apps/exp/images/76Yi.jpeg,/home/docky/apps/exp/images/69Y.jpeg,0,5,5,5,0,0,0,0,732.6391703629997,None,732.6391703629997,None,1,5.7600082799999655,732.6391703629997,None,738.4313082560002,None,738.4313082560002,None,740.9471958180002,None,740.9471958180002,None,0.9160331550001501,742.7494451880002,None,742.7494451880002,None,5,1,0.9680494029998954,743.6521439990001,None,743.6521439990001,None,743.6521439990001,None,744.6368939049999,None,1,0.4683942149995346,744.6368939049999,None,46,745.1213618290003,None,139,B,1,2021_Jun_01_0932,GazeFlow,2020.1.2,59.88495321990068,
6,Block803.xls,B,3,2,82,82,None,congruent,Right,Right,Left,66,65,1,yellow,2,5,/home/docky/apps/exp/images/66Y.jpeg,/home/docky/apps/exp/images/35Bi.jpeg,0,5,5,5,0,1,1,1,746.1228862469998,None,746.1228862469998,None,1,4.626919667000038,746.1228862469998,None,750.7830586549999,None,750.7830586549999,None,753.2880782299999,None,753.2880782299999,None,1.7850417109993941,755.0838499299998,None,755.0838499299998,None,5,1,1.4189802199998667,756.86093342,None,756.86093342,None,756.86093342,None,758.2965741280004,None,1,0.4844200989991805,758.2965741280004,None,48,758.797576895,None,139,B,1,2021_Jun_01_0932,GazeFlow,2020.1.2,59.88495321990068,
6,Block803.xls,B,3,3,80,80,None,congruent,Right,Right,Left,66,65,1,yellow,2,5,/home/docky/apps/exp/images/66Yi.jpeg,/home/docky/apps/exp/images/35B.jpeg,0,5,5,5,0,2,2,2,759.7999278019997,None,759.7999278019997,None,1,4.609354426999744,759.7999278019997,None,764.4437426969998,None,764.4437426969998,None,766.9458876529998,None,766.9458876529998,None,1.0167375779992653,768.7496522330002,None,768.7496522330002,None,6,0,1.6195858850005607,769.7527701210001,None,769.7527701210001,None,769.7527701210001,None,771.3891001310003,None,1,0.40041063300031965,771.3891001310003,None,46,771.8060701450004,None,139,B,1,2021_Jun_01_0932,GazeFlow,2020.1.2,59.88495321990068,
6,Block803.xls,B,3,4,79,79,None,congruent,Right,Right,Left,66,65,1,yellow,2,5,/home/docky/apps/exp/images/66Y.jpeg,/home/docky/apps/exp/images/35Bi.jpeg,0,5,5,5,0,3,3,3,772.807947845,None,772.807947845,None,1,3.8082291379996605,772.807947845,None,776.6513213549997,None,776.6513213549997,None,779.1530415570005,None,779.1530415570005,None,1.6345005409993973,780.9584393759997,None,780.9584393759997,None,6,0,2.0203150690003895,782.5775956710004,None,782.5775956710004,None,782.5775956710004,None,784.6143262550004,None,1,0.5180690610004604,784.6143262550004,None,44,785.1486331890001,None,139,B,1,2021_Jun_01_0932,GazeFlow,2020.1.2,59.88495321990068,
6,Block803.xls,B,3,5,92,92,None,congruent,Right,Right,Left,77,72,5,yellow,2,5,/home/docky/apps/exp/images/77Y.jpeg,/home/docky/apps/exp/images/72Yi.jpeg,0,5,5,5,0,4,4,4,786.1511996290001,None,786.1511996290001,None,1,4.659238844999891,786.1511996290001,None,790.8424999070003,None,790.8424999070003,None,793.3476232869998,None,793.3476232869998,None,1.4004536820002613,795.147140129,None,795.147140129,None,5,1,1.185494798000036,796.5381668159998,None,796.5381668159998,None,796.5381668159998,None,797.7403103830002,None,1,0.4504478340004425,797.7403103830002,None,46,798.207375641,None,139,B,1,2021_Jun_01_0932,GazeFlow,2020.1.2,59.88495321990068,
6,Block803.xls,B,3,6,106,10,None,incongruent,Left,Right,Left,79,76,3,blue,2,5,/home/docky/apps/exp/images/79Bi.jpeg,/home/docky/apps/exp/images/76B.jpeg,0,5,5,5,0,5,5,5,799.2090491970002,None,799.2090491970002,None,1,3.908602926999265,799.2090491970002,None,803.1514656290001,None,803.1514656290001,None,805.6541855659998,None,805.6541855659998,None,1.1670981919996848,807.4568130090001,None,807.4568130090001,None,5,1,1.018347313999584,808.6114367999999,None,808.6114367999999,None,808.6114367999999,None,809.6461747900003,None,1,0.569163421999292,809.6461747900003,None,48,810.2313664620006,None,139,B,1,2021_Jun_01_0932,GazeFlow,2020.1.2,59.88495321990068,
6,Block803.xls,B,3,7,25,25,None,congruent,Right,Right,Left,19,16,3,blue,2,5,/home/docky/apps/exp/images/19Bi.jpeg,/home/docky/apps/exp/images/16B.jpeg,0,5,5,5,0,6,6,6,811.2329176390003,None,811.2329176390003,None,1,3.0401590430001306,811.2329176390003,None,814.3067404800004,None,814.3067404800004,None,816.8111747430003,None,816.8111747430003,None,0.866599211999528,818.6147207029999,None,818.6147207029999,None,5,1,1.185251925000557,819.4658797749998,None,819.4658797749998,None,819.4658797749998,None,820.667579807,None,1,1.0020785910000996,820.667579807,None,50,821.6865366820002,None,139,B,1,2021_Jun_01_0932,GazeFlow,2020.1.2,59.88495321990068,
6,Block803.xls,B,3,8,46,46,None,congruent,Right,Right,Left,39,38,1,blue,2,5,/home/docky/apps/exp/images/39B.jpeg,/home/docky/apps/exp/images/38Bi.jpeg,0,5,5,5,0,7,7,7,822.6881779060004,None,822.6881779060004,None,1,4.826807481999822,822.6881779060004,None,827.5484494250004,None,827.5484494250004,None,830.0520744659998,None,830.0520744659998,None,0.9500548939995497,831.8548654169999,None,831.8548654169999,None,6,0,1.4697161530002631,832.7918909939999,None,832.7918909939999,None,832.7918909939999,None,834.2785091020005,None,1,0.30054581799959124,834.2785091020005,None,48,834.5952656449999,None,139,B,1,2021_Jun_01_0932,GazeFlow,2020.1.2,59.88495321990068,
6,Block803.xls,B,,,,,,,,,,,,,,,,,,0,5,5,5,,,,,,,,,,,,,,,,,,,,,,,,,,,,,,,,,,,,,,,,,,,,139,B,1,2021_Jun_01_0932,GazeFlow,2020.1.2,59.88495321990068,
7,Block810.xls,B,10,1,119,23,None,incongruent,Left,Right,Left,76,69,7,yellow,2,5,/home/docky/apps/exp/images/76Yi.jpeg,/home/docky/apps/exp/images/69Y.jpeg,0,6,6,6,0,0,0,0,854.6044497960002,None,854.6044497960002,None,1,4.443016526000065,854.6044497960002,None,859.0747125970001,None,859.0747125970001,None,861.5966472689997,None,861.5966472689997,None,0.7322493000001487,863.4001676170001,None,863.4001676170001,None,5,1,1.2187291809996168,864.1193535170005,None,864.1193535170005,None,864.1193535170005,None,865.354632175,None,1,0.5685622159999184,865.354632175,None,50,865.9393929939997,None,139,B,1,2021_Jun_01_0932,GazeFlow,2020.1.2,59.88495321990068,
7,Block810.xls,B,10,2,43,43,None,congruent,Right,Right,Left,83,80,3,blue,2,5,/home/docky/apps/exp/images/83B.jpeg,/home/docky/apps/exp/images/80Bi.jpeg,0,6,6,6,0,1,1,1,866.9413648290001,None,866.9413648290001,None,1,4.208891192999545,866.9413648290001,None,871.1835844630004,None,871.1835844630004,None,873.6867125529998,None,873.6867125529998,None,0.9165815190008288,875.4919191939998,None,875.4919191939998,None,5,1,1.0847429319992443,876.3932524399997,None,876.3932524399997,None,876.3932524399997,None,877.4946493469997,None,1,0.5850262940002722,877.4946493469997,None,52,878.0965539879999,None,139,B,1,2021_Jun_01_0932,GazeFlow,2020.1.2,59.88495321990068,
7,Block810.xls,B,10,3,53,53,None,congruent,Left,Left,Right,65,66,1,yellow,2,6,/home/docky/apps/exp/images/35Bi.jpeg,/home/docky/apps/exp/images/66Y.jpeg,0,6,6,6,0,2,2,2,879.0980224590003,None,879.0980224590003,None,1,3.590899002000697,879.0980224590003,None,882.723307753,None,882.723307753,None,885.2273269240004,None,885.2273269240004,None,1.2504494209997574,887.0291999880001,None,887.0291999880001,None,6,1,1.1690618900001937,888.2663667530005,None,888.2663667530005,None,888.2663667530005,None,889.4517232380003,None,1,0.4343212309995579,889.4517232380003,None,54,889.9027144350002,None,139,B,1,2021_Jun_01_0932,GazeFlow,2020.1.2,59.88495321990068,
7,Block810.xls,B,10,4,74,74,None,congruent,Right,Right,Left,35,33,2,yellow,2,5,/home/docky/apps/exp/images/35Y.jpeg,/home/docky/apps/exp/images/33Yi.jpeg,0,6,6,6,0,3,3,3,890.9040710210002,None,890.9040710210002,None,1,4.142625845999646,890.9040710210002,None,895.0809560090001,None,895.0809560090001,None,897.5846127200002,None,897.5846127200002,None,0.2491280000003826,899.388000467,None,899.388000467,None,5,1,4.002900460000092,899.6270283100002,None,899.6270283100002,None,899.6270283100002,None,903.6459527100005,None,1,0.7352822140001081,903.6459527100005,None,56,904.3974465370002,None,139,B,1,2021_Jun_01_0932,GazeFlow,2020.1.2,59.88495321990068,
7,Block810.xls,B,10,5,21,21,None,congruent,Left,Left,Right,76,79,3,blue,2,6,/home/docky/apps/exp/images/76B.jpeg,/home/docky/apps/exp/images/79Bi.jpeg,0,6,6,6,0,4,4,4,905.3993874830003,None,905.3993874830003,None,1,6.263039493999713,905.3993874830003,None,911.6955552199997,None,911.6955552199997,None,914.1989375160001,None,914.1989375160001,None,1.5183712880007079,916.0020257340002,None,916.0020257340002,None,5,0,24.764249875999667,917.5236559770001,None,917.5236559770001,None,917.5236559770001,None,942.3042812009999,None,1,0.7854827709998062,942.3042812009999,None,54,943.1056975239999,None,139,B,1,2021_Jun_01_0932,GazeFlow,2020.1.2,59.88495321990068,
7,Block810.xls,B,10,6,85,85,None,congruent,Right,Right,Left,75,69,6,yellow,2,5,/home/docky/apps/exp/images/76Y.jpeg,/home/docky/apps/exp/images/69Yi.jpeg,0,6,6,6,0,5,5,5,944.1080505310001,None,944.1080505310001,None,1,4.776567206000436,944.1080505310001,None,948.9176491079998,None,948.9176491079998,None,951.4228038230003,None,951.4228038230003,None,2.3031832050000958,953.2196233320001,None,953.2196233320001,None,5,1,1.5359542880005392,955.5307155810005,None,955.5307155810005,None,955.5307155810005,None,957.083163753,None,1,1.0522120010000435,957.083163753,None,56,958.1518571280003,None,139,B,1,2021_Jun_01_0932,GazeFlow,2020.1.2,59.88495321990068,
7,Block810.xls,B,10,7,49,49,None,congruent,Left,Left,Right,33,35,2,yellow,2,6,/home/docky/apps/exp/images/33Yi.jpeg,/home/docky/apps/exp/images/35Y.jpeg,0,6,6,6,0,6,6,6,959.1538251020002,None,959.1538251020002,None,1,4.409184546999313,959.1538251020002,None,963.5962633170002,None,963.5962633170002,None,966.1013135940002,None,966.1013135940002,None,3.338923135999721,967.9030385770002,None,967.9030385770002,None,6,1,2.9374594780001644,971.2460640879999,None,971.2460640879999,None,971.2460640879999,None,974.1996700910004,None,1,0.48387737899975036,974.1996700910004,None,58,974.7003476,None,139,B,1,2021_Jun_01_0932,GazeFlow,2020.1.2,59.88495321990068,
7,Block810.xls,B,10,8,63,63,None,congruent,Left,Left,Right,38,39,1,yellow,2,6,/home/docky/apps/exp/images/38Y.jpeg,/home/docky/apps/exp/images/39Yi.jpeg,0,6,6,6,0,7,7,7,975.7021001439998,None,975.7021001439998,None,1,7.348307471000226,975.7021001439998,None,983.0841916609997,None,983.0841916609997,None,985.5907969480004,None,985.5907969480004,None,1.1503905640001904,987.39070507,None,987.39070507,None,6,1,1.3862791090004976,988.5275020460003,None,988.5275020460003,None,988.5275020460003,None,989.9301169330001,None,1,0.3346739279995745,989.9301169330001,None,60,990.2809246090001,None,139,B,1,2021_Jun_01_0932,GazeFlow,2020.1.2,59.88495321990068,
7,Block810.xls,B,,,,,,,,,,,,,,,,,,0,6,6,6,,,,,,,,,,,,,,,,,,,,,,,,,,,,,,,,,,,,,,,,,,,,139,B,1,2021_Jun_01_0932,GazeFlow,2020.1.2,59.88495321990068,
8,Block801.xls,B,1,1,1,1,None,congruent,Left,Left,Right,16,19,3,blue,2,6,/home/docky/apps/exp/images/16Bi.jpeg,/home/docky/apps/exp/images/19B.jpeg,0,7,7,7,0,0,0,0,1013.7622197609999,None,1013.7622197609999,None,1,8.321353633999934,1013.7622197609999,None,1022.1164210779998,None,1022.1164210779998,None,1024.6317220359997,None,1024.6317220359997,None,2.8368960329999027,1026.4353076630005,None,1026.4353076630005,None,6,1,2.5376748950002366,1029.274064884,None,1029.274064884,None,1029.274064884,None,1031.8282304100003,None,1,0.6518576700000267,1031.8282304100003,None,62,1032.4960334890002,None,139,B,1,2021_Jun_01_0932,GazeFlow,2020.1.2,59.88495321990068,
8,Block801.xls,B,1,2,105,9,None,incongruent,Left,Right,Left,79,73,6,blue,2,5,/home/docky/apps/exp/images/79B.jpeg,/home/docky/apps/exp/images/73Bi.jpeg,0,7,7,7,0,1,1,1,1033.498067081,None,1033.498067081,None,1,4.041998075000265,1033.498067081,None,1037.5733628340004,None,1037.5733628340004,None,1040.0767488760002,None,1040.0767488760002,None,2.1691368809997584,1041.879454932,None,1041.879454932,None,5,1,2.1366793770002914,1044.0356675000003,None,1044.0356675000003,None,1044.0356675000003,None,1046.1891207340004,None,1,1.002564992999396,1046.1891207340004,None,64,1047.2080820540004,None,139,B,1,2021_Jun_01_0932,GazeFlow,2020.1.2,59.88495321990068,
8,Block801.xls,B,1,3,62,62,None,congruent,Left,Left,Right,38,39,1,yellow,2,6,/home/docky/apps/exp/images/38Y.jpeg,/home/docky/apps/exp/images/39Yi.jpeg,0,7,7,7,0,2,2,2,1048.210093195,None,1048.210093195,None,1,3.557181046000551,1048.210093195,None,1051.8034445169997,None,1051.8034445169997,None,1054.3055627740005,None,1054.3055627740005,None,3.939720359000603,1056.1023173610001,None,1056.1023173610001,None,6,1,2.756463483000516,1060.0489848890002,None,1060.0489848890002,None,1060.0489848890002,None,1062.8217705400002,None,1,1.3199339960001453,1062.8217705400002,None,66,1064.1578049380005,None,139,B,1,2021_Jun_01_0932,GazeFlow,2020.1.2,59.88495321990068,
8,Block801.xls,B,1,4,38,38,None,congruent,Right,Right,Left,79,73,6,blue,2,5,/home/docky/apps/exp/images/79B.jpeg,/home/docky/apps/exp/images/73Bi.jpeg,0,7,7,7,0,3,3,3,1065.1597262320001,None,1065.1597262320001,None,1,5.594821585999853,1065.1597262320001,None,1070.7880342520002,None,1070.7880342520002,None,1073.2764663990001,None,1073.2764663990001,None,1.1337453799997093,1075.089057745,None,1075.089057745,None,5,1,2.220559245000004,1076.2145243200002,None,1076.2145243200002,None,1076.2145243200002,None,1078.4517405730003,None,1,0.46771573099977104,1078.4517405730003,None,68,1078.9359611609998,None,139,B,1,2021_Jun_01_0932,GazeFlow,2020.1.2,59.88495321990068,
8,Block801.xls,B,1,5,6,6,None,congruent,Left,Left,Right,35,38,3,blue,2,6,/home/docky/apps/exp/images/35Bi.jpeg,/home/docky/apps/exp/images/38B.jpeg,0,7,7,7,0,4,4,4,1079.9384283300005,None,1079.9384283300005,None,1,4.2422619710005165,1079.9384283300005,None,1084.2137564490004,None,1084.2137564490004,None,1086.7159921720004,None,1086.7159921720004,None,2.0023197139998956,1088.5204342100005,None,1088.5204342100005,None,6,1,2.7381539409998368,1090.5090656330003,None,1090.5090656330003,None,1090.5090656330003,None,1093.264148931,None,1,0.517984695999985,1093.264148931,None,70,1093.7986060570001,None,139,B,1,2021_Jun_01_0932,GazeFlow,2020.1.2,59.88495321990068,
8,Block801.xls,B,1,6,51,51,None,congruent,Left,Left,Right,33,35,2,yellow,2,6,/home/docky/apps/exp/images/33Yi.jpeg,/home/docky/apps/exp/images/35Y.jpeg,0,7,7,7,0,5,5,5,1094.8003588370002,None,1094.8003588370002,None,1,3.523983206999219,1094.8003588370002,None,1098.3582225150003,None,1098.3582225150003,None,1100.8629639580004,None,1100.8629639580004,None,0.9835124940000242,1102.6638727230002,None,1102.6638727230002,None,6,1,1.9036946149999494,1103.6346436479998,None,1103.6346436479998,None,1103.6346436479998,None,1105.5548312930005,None,1,1.135029895000116,1105.5548312930005,None,72,1106.7068985180003,None,139,B,1,2021_Jun_01_0932,GazeFlow,2020.1.2,59.88495321990068,
8,Block801.xls,B,1,7,73,73,None,congruent,Right,Right,Left,35,33,2,yellow,2,5,/home/docky/apps/exp/images/35Yi.jpeg,/home/docky/apps/exp/images/33Y.jpeg,0,7,7,7,0,6,6,6,1107.7089517089998,None,1107.7089517089998,None,1,3.941734641000039,1107.7089517089998,None,1111.6839920780003,None,1111.6839920780003,None,1114.1885400740002,None,1114.1885400740002,None,2.219141311000385,1115.9909143430004,None,1115.9909143430004,None,6,0,1.5691184560000693,1118.1961466210005,None,1118.1961466210005,None,1118.1961466210005,None,1119.7818367460004,None,1,0.45093918299971847,1119.7818367460004,None,70,1120.2495158009997,None,139,B,1,2021_Jun_01_0932,GazeFlow,2020.1.2,59.88495321990068,
8,Block801.xls,B,1,8,96,96,None,congruent,Right,Right,Left,80,79,1,yellow,2,5,/home/docky/apps/exp/images/80Yi.jpeg,/home/docky/apps/exp/images/79Y.jpeg,0,7,7,7,0,7,7,7,1121.251952212,None,1121.251952212,None,1,3.507469119000234,1121.251952212,None,1124.7928734859997,None,1124.7928734859997,None,1127.2976890600003,None,1127.2976890600003,None,2.2526307640000596,1129.0940745200005,None,1129.0940745200005,None,5,1,1.552363222999702,1131.3384644400003,None,1131.3384644400003,None,1131.3384644400003,None,1132.9075416249998,None,1,0.8859028039996701,1132.9075416249998,None,72,1133.8096119620004,None,139,B,1,2021_Jun_01_0932,GazeFlow,2020.1.2,59.88495321990068,
8,Block801.xls,B,,,,,,,,,,,,,,,,,,0,7,7,7,,,,,,,,,,,,,,,,,,,,,,,,,,,,,,,,,,,,,,,,,,,,139,B,1,2021_Jun_01_0932,GazeFlow,2020.1.2,59.88495321990068,
9,Block802.xls,B,2,1,30,30,None,congruent,Right,Right,Left,38,35,3,blue,2,5,/home/docky/apps/exp/images/38B.jpeg,/home/docky/apps/exp/images/35Bi.jpeg,0,8,8,8,0,0,0,0,1156.9406587960002,None,1156.9406587960002,None,1,4.078303397000127,1156.9406587960002,None,1161.049788374,None,1161.049788374,None,1163.5665335430003,None,1163.5665335430003,None,2.084912212000745,1165.3699892020004,None,1165.3699892020004,None,5,1,2.1868822460000956,1167.4419477230003,None,1167.4419477230003,None,1167.4419477230003,None,1169.6456285840004,None,1,0.6851487559997622,1169.6456285840004,None,74,1170.347280385,None,139,B,1,2021_Jun_01_0932,GazeFlow,2020.1.2,59.88495321990068,
9,Block802.xls,B,2,2,5,5,None,congruent,Left,Left,Right,35,38,3,blue,2,6,/home/docky/apps/exp/images/35B.jpeg,/home/docky/apps/exp/images/38Bi.jpeg,0,8,8,8,0,1,1,1,1171.349291953,None,1171.349291953,None,1,3.373360102999868,1171.349291953,None,1174.7546629030003,None,1174.7546629030003,None,1177.2595457010002,None,1177.2595457010002,None,1.1004095039997992,1179.0635124500004,None,1179.0635124500004,None,6,1,1.8204896540000846,1180.1495921280002,None,1180.1495921280002,None,1180.1495921280002,None,1181.9867314940002,None,1,0.6006605080001464,1181.9867314940002,None,76,1182.604074117,None,139,B,1,2021_Jun_01_0932,GazeFlow,2020.1.2,59.88495321990068,
9,Block802.xls,B,2,3,103,7,None,incongruent,Left,Right,Left,19,16,3,blue,2,5,/home/docky/apps/exp/images/19Bi.jpeg,/home/docky/apps/exp/images/16B.jpeg,0,8,8,8,0,2,2,2,1183.606047714,None,1183.606047714,None,1,3.641506959999788,1183.606047714,None,1187.2807788810005,None,1187.2807788810005,None,1189.7843875019998,None,1189.7843875019998,None,1.334148525999808,1191.5875536419999,None,1191.5875536419999,None,6,0,1.769785931000115,1192.9078214440005,None,1192.9078214440005,None,1192.9078214440005,None,1194.6940894509999,None,1,0.4179752649997681,1194.6940894509999,None,74,1195.1283987570005,None,139,B,1,2021_Jun_01_0932,GazeFlow,2020.1.2,59.88495321990068,
9,Block802.xls,B,2,4,35,35,None,congruent,Right,Right,Left,66,65,1,blue,2,5,/home/docky/apps/exp/images/66B.jpeg,/home/docky/apps/exp/images/35Yi.jpeg,0,8,8,8,0,3,3,3,1196.130308443,None,1196.130308443,None,1,4.82646540099995,1196.130308443,None,1200.9904706939997,None,1200.9904706939997,None,1203.4935107259998,None,1203.4935107259998,None,1.3512028710001687,1205.2968580380002,None,1205.2968580380002,None,5,1,1.085630558000048,1206.6345683560003,None,1206.6345683560003,None,1206.6345683560003,None,1207.7363075190005,None,1,0.4515064880006321,1207.7363075190005,None,76,1208.2036159660001,None,139,B,1,2021_Jun_01_0932,GazeFlow,2020.1.2,59.88495321990068,
9,Block802.xls,B,2,5,42,42,None,congruent,Right,Right,Left,83,80,3,blue,2,5,/home/docky/apps/exp/images/83Bi.jpeg,/home/docky/apps/exp/images/80B.jpeg,0,8,8,8,0,4,4,4,1209.2058154260003,None,1209.2058154260003,None,1,5.277527384000678,1209.2058154260003,None,1214.51707695,None,1214.51707695,None,1217.0205423980005,None,1217.0205423980005,None,1.3841710019996754,1218.8236938580003,None,1218.8236938580003,None,5,1,1.4700535670008321,1220.19432004,None,1220.19432004,None,1220.19432004,None,1221.6802980410002,None,1,0.5006866379999337,1221.6802980410002,None,78,1222.1975233160001,None,139,B,1,2021_Jun_01_0932,GazeFlow,2020.1.2,59.88495321990068,
9,Block802.xls,B,2,6,104,8,None,incongruent,Left,Right,Left,38,35,3,blue,2,5,/home/docky/apps/exp/images/38B.jpeg,/home/docky/apps/exp/images/35Bi.jpeg,0,8,8,8,0,5,5,5,1223.199968418,None,1223.199968418,None,1,4.07517017400005,1223.199968418,None,1227.3086716449998,None,1227.3086716449998,None,1229.811436174,None,1229.811436174,None,1.4675105449996408,1231.615206038,None,1231.615206038,None,6,0,1.402987180999844,1233.0690959410003,None,1233.0690959410003,None,1233.0690959410003,None,1234.4885726990005,None,1,0.5170056180004394,1234.4885726990005,None,76,1235.0225575410004,None,139,B,1,2021_Jun_01_0932,GazeFlow,2020.1.2,59.88495321990068,
9,Block802.xls,B,2,7,22,22,None,congruent,Left,Left,Right,80,83,3,blue,2,6,/home/docky/apps/exp/images/80Bi.jpeg,/home/docky/apps/exp/images/83B.jpeg,0,8,8,8,0,6,6,6,1236.024933912,None,1236.024933912,None,1,4.241780098000163,1236.024933912,None,1240.300366767,None,1240.300366767,None,1242.803611292,None,1242.803611292,None,1.150597765999919,1244.6068936279999,None,1244.6068936279999,None,6,1,1.5365188060004584,1245.7439129519998,None,1245.7439129519998,None,1245.7439129519998,None,1247.2969879510001,None,1,0.7008445539995591,1247.2969879510001,None,78,1248.0142059870004,None,139,B,1,2021_Jun_01_0932,GazeFlow,2020.1.2,59.88495321990068,
9,Block802.xls,B,2,8,54,54,None,congruent,Left,Left,Right,65,66,1,yellow,2,6,/home/docky/apps/exp/images/35Bi.jpeg,/home/docky/apps/exp/images/66Y.jpeg,0,8,8,8,0,7,7,7,1249.0164398830002,None,1249.0164398830002,None,1,4.091825174000405,1249.0164398830002,None,1253.1403268350005,None,1253.1403268350005,None,1255.6454454740006,None,1255.6454454740006,None,1.3006441010002163,1257.4481376800004,None,1257.4481376800004,None,6,1,1.620398785999896,1258.7357862999997,None,1258.7357862999997,None,1258.7357862999997,None,1260.3721542579997,None,1,0.6009635599993999,1260.3721542579997,None,80,1260.989676442,None,139,B,1,2021_Jun_01_0932,GazeFlow,2020.1.2,59.88495321990068,
9,Block802.xls,B,,,,,,,,,,,,,,,,,,0,8,8,8,,,,,,,,,,,,,,,,,,,,,,,,,,,,,,,,,,,,,,,,,,,,139,B,1,2021_Jun_01_0932,GazeFlow,2020.1.2,59.88495321990068,
10,Block813.xls,B,13,1,70,70,None,congruent,Left,Left,Right,79,82,3,yellow,2,6,/home/docky/apps/exp/images/79Yi.jpeg,/home/docky/apps/exp/images/80Y.jpeg,0,9,9,9,0,0,0,0,1284.7881674830005,None,1284.7881674830005,None,1,3.743213077999826,1284.7881674830005,None,1288.5606432109998,None,1288.5606432109998,None,1291.0824589169997,None,1291.0824589169997,None,0.9162231469999824,1292.8859715449998,None,1292.8859715449998,None,6,1,1.7037322260002838,1293.787143005,None,1293.787143005,None,1293.787143005,None,1295.5070556500004,None,1,0.7007911390001027,1295.5070556500004,None,82,1296.2244366200002,None,139,B,1,2021_Jun_01_0932,GazeFlow,2020.1.2,59.88495321990068,
10,Block813.xls,B,13,2,60,60,None,congruent,Left,Left,Right,38,39,1,yellow,2,6,/home/docky/apps/exp/images/38Yi.jpeg,/home/docky/apps/exp/images/39Y.jpeg,0,9,9,9,0,1,1,1,1297.2265320420001,None,1297.2265320420001,None,1,5.511758728999666,1297.2265320420001,None,1302.7719492209999,None,1302.7719492209999,None,1305.2767233590002,None,1305.2767233590002,None,1.717928576000304,1307.073573138,None,1307.073573138,None,6,1,1.5688364910001837,1308.7832087790002,None,1308.7832087790002,None,1308.7832087790002,None,1310.3686069370005,None,1,0.5677649600002042,1310.3686069370005,None,84,1310.9531475069998,None,139,B,1,2021_Jun_01_0932,GazeFlow,2020.1.2,59.88495321990068,
10,Block813.xls,B,13,3,81,81,None,congruent,Right,Right,Left,66,65,1,yellow,2,5,/home/docky/apps/exp/images/66Y.jpeg,/home/docky/apps/exp/images/35Bi.jpeg,0,9,9,9,0,2,2,2,1311.955523519,None,1311.955523519,None,1,3.5571283689996562,1311.955523519,None,1315.546638625,None,1315.546638625,None,1318.0510930400005,None,1318.0510930400005,None,1.2505559639994317,1319.8527471099997,None,1319.8527471099997,None,5,1,3.022067180999329,1321.0901277029998,None,1321.0901277029998,None,1321.0901277029998,None,1324.128846777,None,1,0.6687251729999844,1324.128846777,None,86,1324.8139003369997,None,139,B,1,2021_Jun_01_0932,GazeFlow,2020.1.2,59.88495321990068,
10,Block813.xls,B,13,4,110,14,None,incongruent,Right,Left,Right,65,66,1,yellow,2,6,/home/docky/apps/exp/images/35B.jpeg,/home/docky/apps/exp/images/66Yi.jpeg,0,9,9,9,0,3,3,3,1325.8159128830002,None,1325.8159128830002,None,1,3.6575473769999007,1325.8159128830002,None,1329.5051868789997,None,1329.5051868789997,None,1332.010588946,None,1332.010588946,None,1.9017686030001641,1333.8135023670002,None,1333.8135023670002,None,6,1,1.903254960000595,1335.7020394669998,None,1335.7020394669998,None,1335.7020394669998,None,1337.6217172300003,None,1,0.4680869710000479,1337.6217172300003,None,88,1338.106102099,None,139,B,1,2021_Jun_01_0932,GazeFlow,2020.1.2,59.88495321990068,
10,Block813.xls,B,13,5,17,17,None,congruent,Left,Left,Right,73,76,3,blue,2,6,/home/docky/apps/exp/images/73Bi.jpeg,/home/docky/apps/exp/images/76B.jpeg,0,9,9,9,0,4,4,4,1339.1084035800004,None,1339.1084035800004,None,1,5.244186064000132,1339.1084035800004,None,1344.386083202,None,1344.386083202,None,1346.8890563610003,None,1346.8890563610003,None,3.4720111609995,1348.6922265009998,None,1348.6922265009998,None,6,1,3.441705236999951,1352.1660938900004,None,1352.1660938900004,None,1352.1660938900004,None,1355.6237800010003,None,1,1.0355891899998824,1355.6237800010003,None,90,1356.6758474589997,None,139,B,1,2021_Jun_01_0932,GazeFlow,2020.1.2,59.88495321990068,
10,Block813.xls,B,13,6,111,15,None,incongruent,Right,Left,Right,62,65,3,yellow,2,6,/home/docky/apps/exp/images/38B.jpeg,/home/docky/apps/exp/images/35Bi.jpeg,0,9,9,9,0,5,5,5,1357.6778808420004,None,1357.6778808420004,None,1,6.429298459000165,1357.6778808420004,None,1364.1408272480003,None,1364.1408272480003,None,1366.6459487230004,None,1366.6459487230004,None,3.171328132000781,1368.4493766980004,None,1368.4493766980004,None,6,1,2.7548396419997516,1371.622229095,None,1371.622229095,None,1371.622229095,None,1374.3935364110002,None,1,0.6848325299997668,1374.3935364110002,None,92,1375.0949012970004,None,139,B,1,2021_Jun_01_0932,GazeFlow,2020.1.2,59.88495321990068,
10,Block813.xls,B,13,7,55,55,None,congruent,Left,Left,Right,65,66,1,yellow,2,6,/home/docky/apps/exp/images/35B.jpeg,/home/docky/apps/exp/images/66Yi.jpeg,0,9,9,9,0,6,6,6,1376.0969711369999,None,1376.0969711369999,None,1,4.960208089999469,1376.0969711369999,None,1381.089108409,None,1381.089108409,None,1383.5935664019999,None,1383.5935664019999,None,10.769489577999593,1385.3970372000003,None,1385.3970372000003,None,6,1,0.9508779289999438,1396.1698737719998,None,1396.1698737719998,None,1396.1698737719998,None,1397.1371091399997,None,1,1.8715122769999653,1397.1371091399997,None,94,1399.0247183170004,None,139,B,1,2021_Jun_01_0932,GazeFlow,2020.1.2,59.88495321990068,
10,Block813.xls,B,13,8,26,26,None,congruent,Right,Right,Left,19,16,3,blue,2,5,/home/docky/apps/exp/images/19B.jpeg,/home/docky/apps/exp/images/16Bi.jpeg,0,9,9,9,0,7,7,7,1400.0266244880004,None,1400.0266244880004,None,1,3.424024740999812,1400.0266244880004,None,1403.48405327,None,1403.48405327,None,1405.9887264050003,None,1405.9887264050003,None,0.8496056190006129,1407.7926988710005,None,1407.7926988710005,None,5,1,2.053445517999535,1408.6268401830002,None,1408.6268401830002,None,1408.6268401830002,None,1410.697140399,None,1,0.5842288930007271,1410.697140399,None,96,1411.2981251250003,None,139,B,1,2021_Jun_01_0932,GazeFlow,2020.1.2,59.88495321990068,
10,Block813.xls,B,,,,,,,,,,,,,,,,,,0,9,9,9,,,,,,,,,,,,,,,,,,,,,,,,,,,,,,,,,,,,,,,,,,,,139,B,1,2021_Jun_01_0932,GazeFlow,2020.1.2,59.88495321990068,
11,Block806.xls,B,6,1,10,10,None,congruent,Left,Left,Right,65,66,1,blue,2,6,/home/docky/apps/exp/images/35Y.jpeg,/home/docky/apps/exp/images/66Bi.jpeg,0,10,10,10,0,0,0,0,1434.0123025230005,None,1434.0123025230005,None,1,5.24770913500015,1434.0123025230005,None,1439.2847209070005,None,1439.2847209070005,None,1441.8064712730002,None,1441.8064712730002,None,3.80572611900061,1443.6121218630005,None,1443.6121218630005,None,6,1,2.370117353000751,1447.4194407840005,None,1447.4194407840005,None,1447.4194407840005,None,1449.8063342699998,None,1,0.45127139200030797,1449.8063342699998,None,98,1450.2742643789998,None,139,B,1,2021_Jun_01_0932,GazeFlow,2020.1.2,59.88495321990068,
11,Block806.xls,B,6,2,89,89,None,congruent,Right,Right,Left,76,69,7,yellow,2,5,/home/docky/apps/exp/images/76Yi.jpeg,/home/docky/apps/exp/images/69Y.jpeg,0,10,10,10,0,1,1,1,1451.2763364049997,None,1451.2763364049997,None,1,3.7078727979996984,1451.2763364049997,None,1455.017763064,None,1455.017763064,None,1457.522406913,None,1457.522406913,None,1.284339151000495,1459.3245599820002,None,1459.3245599820002,None,5,1,3.4066435040003853,1460.5946067450004,None,1460.5946067450004,None,1460.5946067450004,None,1464.017722691,None,1,0.4514578750004148,1464.017722691,None,100,1464.4851721140003,None,139,B,1,2021_Jun_01_0932,GazeFlow,2020.1.2,59.88495321990068,
11,Block806.xls,B,6,3,88,88,None,congruent,Right,Right,Left,76,69,7,yellow,2,5,/home/docky/apps/exp/images/76Y.jpeg,/home/docky/apps/exp/images/69Yi.jpeg,0,10,10,10,0,2,2,2,1465.487197345,None,1465.487197345,None,1,3.3734995740005616,1465.487197345,None,1468.89424073,None,1468.89424073,None,1471.3994333660003,None,1471.3994333660003,None,1.1003224709993447,1473.1958499580005,None,1473.1958499580005,None,5,1,1.953447743999277,1474.2877059600005,None,1474.2877059600005,None,1474.2877059600005,None,1476.257793459,None,1,0.46751276699978916,1476.257793459,None,102,1476.7418194279999,None,139,B,1,2021_Jun_01_0932,GazeFlow,2020.1.2,59.88495321990068,
11,Block806.xls,B,6,4,109,13,None,incongruent,Right,Left,Right,33,35,2,yellow,2,6,/home/docky/apps/exp/images/33Yi.jpeg,/home/docky/apps/exp/images/35Y.jpeg,0,10,10,10,0,3,3,3,1477.7439604720003,None,1477.7439604720003,None,1,4.042240624999977,1477.7439604720003,None,1481.8196104150002,None,1481.8196104150002,None,1484.3221700670001,None,1484.3221700670001,None,1.8351062849997106,1486.120584847,None,1486.120584847,None,6,1,1.4189661990003515,1487.9476541060003,None,1487.9476541060003,None,1487.9476541060003,None,1489.3831672819997,None,1,0.46752602300057333,1489.3831672819997,None,104,1489.867404703,None,139,B,1,2021_Jun_01_0932,GazeFlow,2020.1.2,59.88495321990068,
11,Block806.xls,B,6,5,37,37,None,congruent,Right,Right,Left,79,73,6,blue,2,5,/home/docky/apps/exp/images/79Bi.jpeg,/home/docky/apps/exp/images/73B.jpeg,0,10,10,10,0,4,4,4,1490.869874041,None,1490.869874041,None,1,3.6404956870001115,1490.869874041,None,1494.544029013,None,1494.544029013,None,1497.047427859,None,1497.047427859,None,0.7831059980007922,1498.8503709349998,None,1498.8503709349998,None,5,1,1.1849927480006954,1499.6204303370005,None,1499.6204303370005,None,1499.6204303370005,None,1500.822077336,None,1,0.4843451369997638,1500.822077336,None,106,1501.3230512319997,None,139,B,1,2021_Jun_01_0932,GazeFlow,2020.1.2,59.88495321990068,
11,Block806.xls,B,6,6,108,12,None,incongruent,Left,Right,Left,39,38,1,blue,2,5,/home/docky/apps/exp/images/39Bi.jpeg,/home/docky/apps/exp/images/38B.jpeg,0,10,10,10,0,5,5,5,1502.3249425310005,None,1502.3249425310005,None,1,4.943770705000134,1502.3249425310005,None,1507.3009369769998,None,1507.3009369769998,None,1509.8051179120002,None,1509.8051179120002,None,1.1006684610001685,1511.610471717,None,1511.610471717,None,6,0,1.3530876059994625,1512.6956579469997,None,1512.6956579469997,None,1512.6956579469997,None,1514.0646613890003,None,1,0.4844035200003418,1514.0646613890003,None,104,1514.565122991,None,139,B,1,2021_Jun_01_0932,GazeFlow,2020.1.2,59.88495321990068,
11,Block806.xls,B,6,7,52,52,None,congruent,Left,Left,Right,65,66,1,yellow,2,6,/home/docky/apps/exp/images/35B.jpeg,/home/docky/apps/exp/images/66Yi.jpeg,0,10,10,10,0,6,6,6,1515.5680676419997,None,1515.5680676419997,None,1,4.69247131999964,1515.5680676419997,None,1520.2941286710002,None,1520.2941286710002,None,1522.7990941830003,None,1522.7990941830003,None,0.8162401970002975,1524.6026576270006,None,1524.6026576270006,None,6,1,1.3858426850001706,1525.4036037100004,None,1525.4036037100004,None,1525.4036037100004,None,1526.805947502,None,1,0.43405471599999146,1526.805947502,None,106,1527.2570383150005,None,139,B,1,2021_Jun_01_0932,GazeFlow,2020.1.2,59.88495321990068,
11,Block806.xls,B,6,8,75,75,None,congruent,Right,Right,Left,35,33,2,yellow,2,5,/home/docky/apps/exp/images/35Yi.jpeg,/home/docky/apps/exp/images/33Y.jpeg,0,10,10,10,0,7,7,7,1528.2587331940003,None,1528.2587331940003,None,1,5.010623359999954,1528.2587331940003,None,1533.3028866900004,None,1533.3028866900004,None,1535.8076071790001,None,1535.8076071790001,None,1.2503930510001737,1537.6097314170001,None,1537.6097314170001,None,6,0,3.289652768000451,1538.8463769950004,None,1538.8463769950004,None,1538.8463769950004,None,1542.1527471620002,None,1,0.5678665939994971,1542.1527471620002,None,104,1542.7373024609997,None,139,B,1,2021_Jun_01_0932,GazeFlow,2020.1.2,59.88495321990068,
11,Block806.xls,B,,,,,,,,,,,,,,,,,,0,10,10,10,,,,,,,,,,,,,,,,,,,,,,,,,,,,,,,,,,,,,,,,,,,,139,B,1,2021_Jun_01_0932,GazeFlow,2020.1.2,59.88495321990068,
12,Block811.xls,B,11,1,86,86,None,congruent,Right,Right,Left,75,69,6,yellow,2,5,/home/docky/apps/exp/images/76Y.jpeg,/home/docky/apps/exp/images/69Yi.jpeg,0,11,11,11,0,0,0,0,1566.083568856,None,1566.083568856,None,1,5.666826110999864,1566.083568856,None,1571.7824697900005,None,1571.7824697900005,None,1574.297872223,None,1574.297872223,None,0.5492186729998139,1576.0961410190002,None,1576.0961410190002,None,5,1,2.600072930999886,1576.640963195,None,1576.640963195,None,1576.640963195,None,1579.2574084500002,None,1,0.6013821050000843,1579.2574084500002,None,106,1579.8758193330004,None,139,B,1,2021_Jun_01_0932,GazeFlow,2020.1.2,59.88495321990068,
12,Block811.xls,B,11,2,83,83,None,congruent,Right,Right,Left,75,69,6,yellow,2,5,/home/docky/apps/exp/images/76Yi.jpeg,/home/docky/apps/exp/images/69Y.jpeg,0,11,11,11,0,1,1,1,1580.877976398,None,1580.877976398,None,1,4.592420824999863,1580.877976398,None,1585.502657051,None,1585.502657051,None,1588.0070176079998,None,1588.0070176079998,None,0.9497937119995186,1589.8101553810002,None,1589.8101553810002,None,5,1,1.4364913929994145,1590.7473352309999,None,1590.7473352309999,None,1590.7473352309999,None,1592.1999862350003,None,1,0.4520714610007417,1592.1999862350003,None,108,1592.667523483,None,139,B,1,2021_Jun_01_0932,GazeFlow,2020.1.2,59.88495321990068,
12,Block811.xls,B,11,3,28,28,None,congruent,Right,Right,Left,38,35,3,blue,2,5,/home/docky/apps/exp/images/38Bi.jpeg,/home/docky/apps/exp/images/35B.jpeg,0,11,11,11,0,2,2,2,1593.6691033910001,None,1593.6691033910001,None,1,3.590918070999578,1593.6691033910001,None,1597.2941263940002,None,1597.2941263940002,None,1599.7967884569998,None,1599.7967884569998,None,2.4868280379996577,1601.6004289789998,None,1601.6004289789998,None,5,1,1.3536385120005434,1604.0884328090006,None,1604.0884328090006,None,1604.0884328090006,None,1605.45856405,None,1,0.417481162000513,1605.45856405,None,110,1605.8927218850004,None,139,B,1,2021_Jun_01_0932,GazeFlow,2020.1.2,59.88495321990068,
12,Block811.xls,B,11,4,58,58,None,congruent,Left,Left,Right,62,65,3,yellow,2,6,/home/docky/apps/exp/images/38B.jpeg,/home/docky/apps/exp/images/35Bi.jpeg,0,11,11,11,0,3,3,3,1606.8952317820003,None,1606.8952317820003,None,1,3.2899172080005883,1606.8952317820003,None,1610.2196320129997,None,1610.2196320129997,None,1612.7236516009998,None,1612.7236516009998,None,2.1693022490007934,1614.5261224369997,None,1614.5261224369997,None,6,1,2.9057278139998743,1616.6809934580006,None,1616.6809934580006,None,1616.6809934580006,None,1619.6031955910003,None,1,0.5011487819992908,1619.6031955910003,None,112,1620.1208077070005,None,139,B,1,2021_Jun_01_0932,GazeFlow,2020.1.2,59.88495321990068,
12,Block811.xls,B,11,5,32,32,None,congruent,Right,Right,Left,66,65,1,blue,2,5,/home/docky/apps/exp/images/66Bi.jpeg,/home/docky/apps/exp/images/35Y.jpeg,0,11,11,11,0,4,4,4,1621.122714385,None,1621.122714385,None,1,4.47556812699986,1621.122714385,None,1625.6321182230004,None,1625.6321182230004,None,1628.1352120450001,None,1628.1352120450001,None,1.5516069790000984,1629.9379804250002,None,1629.9379804250002,None,5,1,2.387503908999861,1631.4763540049998,None,1631.4763540049998,None,1631.4763540049998,None,1633.8803352350005,None,1,0.6348249779994148,1633.8803352350005,None,114,1634.5315917059997,None,139,B,1,2021_Jun_01_0932,GazeFlow,2020.1.2,59.88495321990068,
12,Block811.xls,B,11,6,67,67,None,congruent,Left,Left,Right,72,77,5,yellow,2,6,/home/docky/apps/exp/images/72Y.jpeg,/home/docky/apps/exp/images/77Yi.jpeg,0,11,11,11,0,5,5,5,1635.534050026,None,1635.534050026,None,1,4.242306365000331,1635.534050026,None,1639.8096373710005,None,1639.8096373710005,None,1642.3131351789998,None,1642.3131351789998,None,2.2189337449999584,1644.1117997090005,None,1644.1117997090005,None,6,1,1.5527749689999837,1646.321629045,None,1646.321629045,None,1646.321629045,None,1647.890952482,None,1,0.3683384890000525,1647.890952482,None,116,1648.2755761839999,None,139,B,1,2021_Jun_01_0932,GazeFlow,2020.1.2,59.88495321990068,
12,Block811.xls,B,11,7,120,24,None,incongruent,Left,Right,Left,77,72,5,yellow,2,5,/home/docky/apps/exp/images/77Y.jpeg,/home/docky/apps/exp/images/72Yi.jpeg,0,11,11,11,0,6,6,6,1649.2774476249997,None,1649.2774476249997,None,1,3.7914511650005807,1649.2774476249997,None,1653.1022960589999,None,1653.1022960589999,None,1655.6097794369998,None,1655.6097794369998,None,1.8350504300005923,1657.4081501930004,None,1657.4081501930004,None,5,1,2.4543481280006745,1659.2300670949999,None,1659.2300670949999,None,1659.2300670949999,None,1661.7013988750005,None,1,0.6517404900005204,1661.7013988750005,None,118,1662.3695301690004,None,139,B,1,2021_Jun_01_0932,GazeFlow,2020.1.2,59.88495321990068,
12,Block811.xls,B,11,8,57,57,None,congruent,Left,Left,Right,62,65,3,yellow,2,6,/home/docky/apps/exp/images/38Bi.jpeg,/home/docky/apps/exp/images/35B.jpeg,0,11,11,11,0,7,7,7,1663.3715914760005,None,1663.3715914760005,None,1,3.5571148399994854,1663.3715914760005,None,1666.9623525380002,None,1666.9623525380002,None,1669.450624303,None,1669.450624303,None,2.352826964000087,1671.26431503,None,1671.26431503,None,6,1,1.6519811499993011,1673.608908098,None,1673.608908098,None,1673.608908098,None,1675.2775582470003,None,1,0.5684525030001168,1675.2775582470003,None,120,1675.8622470520004,None,139,B,1,2021_Jun_01_0932,GazeFlow,2020.1.2,59.88495321990068,
12,Block811.xls,B,,,,,,,,,,,,,,,,,,0,11,11,11,,,,,,,,,,,,,,,,,,,,,,,,,,,,,,,,,,,,,,,,,,,,139,B,1,2021_Jun_01_0932,GazeFlow,2020.1.2,59.88495321990068,
13,Block808.xls,B,8,1,118,22,None,incongruent,Left,Right,Left,75,69,6,yellow,2,5,/home/docky/apps/exp/images/76Y.jpeg,/home/docky/apps/exp/images/69Yi.jpeg,0,12,12,12,0,0,0,0,1703.1672625379997,None,1703.1672625379997,None,1,4.648630805999346,1703.1672625379997,None,1707.836377052,None,1707.836377052,None,1710.361932973,None,1710.361932973,None,0.9993317409998781,1712.160130612,None,1712.160130612,None,5,1,1.1846801490000871,1713.1519125000004,None,1713.1519125000004,None,1713.1519125000004,None,1714.3533955820003,None,1,0.4348551149996638,1714.3533955820003,None,122,1714.8042559320002,None,139,B,1,2021_Jun_01_0932,GazeFlow,2020.1.2,59.88495321990068,
13,Block808.xls,B,8,2,7,7,None,congruent,Left,Left,Right,65,66,1,blue,2,6,/home/docky/apps/exp/images/35Yi.jpeg,/home/docky/apps/exp/images/66B.jpeg,0,12,12,12,0,1,1,1,1715.8062384579998,None,1715.8062384579998,None,1,3.5075459680001586,1715.8062384579998,None,1719.3476240270002,None,1719.3476240270002,None,1721.8501616069998,None,1721.8501616069998,None,0.9498586219997378,1723.654236894,None,1723.654236894,None,6,1,2.1537091729996973,1724.5907345430005,None,1724.5907345430005,None,1724.5907345430005,None,1726.7605663410004,None,1,0.43461423499957164,1726.7605663410004,None,124,1727.2116638730004,None,139,B,1,2021_Jun_01_0932,GazeFlow,2020.1.2,59.88495321990068,
13,Block808.xls,B,8,3,112,16,None,incongruent,Right,Left,Right,69,76,7,yellow,2,6,/home/docky/apps/exp/images/69Yi.jpeg,/home/docky/apps/exp/images/76Y.jpeg,0,12,12,12,0,2,2,2,1728.2139764680005,None,1728.2139764680005,None,1,3.4071157139997013,1728.2139764680005,None,1731.6532862209997,None,1731.6532862209997,None,1734.1576703199999,None,1734.1576703199999,None,0.8833337089999986,1735.9611109099997,None,1735.9611109099997,None,6,1,1.0347687430003134,1736.831193645,None,1736.831193645,None,1736.831193645,None,1737.88246102,None,1,0.35173110499999893,1737.88246102,None,126,1738.2501698430005,None,139,B,1,2021_Jun_01_0932,GazeFlow,2020.1.2,59.88495321990068,
13,Block808.xls,B,8,4,97,1,None,incongruent,Right,Left,Right,16,19,3,blue,2,6,/home/docky/apps/exp/images/16Bi.jpeg,/home/docky/apps/exp/images/19B.jpeg,0,12,12,12,0,3,3,3,1739.251916919,None,1739.251916919,None,1,3.457378823999534,1739.251916919,None,1742.7429547780002,None,1742.7429547780002,None,1745.245945402,None,1745.245945402,None,1.718397196999831,1747.0494428410002,None,1747.0494428410002,None,6,1,3.4907898340006795,1748.7540688059999,None,1748.7540688059999,None,1748.7540688059999,None,1752.2607725509997,None,1,0.4343677539991404,1752.2607725509997,None,128,1752.7117137200003,None,139,B,1,2021_Jun_01_0932,GazeFlow,2020.1.2,59.88495321990068,
13,Block808.xls,B,8,5,24,24,None,congruent,Left,Left,Right,80,83,3,blue,2,6,/home/docky/apps/exp/images/80Bi.jpeg,/home/docky/apps/exp/images/83B.jpeg,0,12,12,12,0,4,4,4,1753.7135227050003,None,1753.7135227050003,None,1,3.5571762640001907,1753.7135227050003,None,1757.3045580839998,None,1757.3045580839998,None,1759.8081235050004,None,1759.8081235050004,None,0.9666503779999402,1761.611785358,None,1761.611785358,None,6,1,1.2184552219996476,1762.5645173820003,None,1762.5645173820003,None,1762.5645173820003,None,1763.7993307819997,None,1,0.2850529719999031,1763.7993307819997,None,130,1764.1004738130005,None,139,B,1,2021_Jun_01_0932,GazeFlow,2020.1.2,59.88495321990068,
13,Block808.xls,B,8,6,13,13,None,congruent,Left,Left,Right,38,39,1,blue,2,6,/home/docky/apps/exp/images/38Bi.jpeg,/home/docky/apps/exp/images/39B.jpeg,0,12,12,12,0,5,5,5,1765.1018577430004,None,1765.1018577430004,None,1,3.207050917999368,1765.1018577430004,None,1768.3412608240005,None,1768.3412608240005,None,1770.8460093250005,None,1770.8460093250005,None,1.9354185659994982,1772.6492092159997,None,1772.6492092159997,None,5,0,1.3187486840006386,1774.5709661769997,None,1774.5709661769997,None,1774.5709661769997,None,1775.9061974779997,None,1,0.43440026999996917,1775.9061974779997,None,128,1776.3573852569998,None,139,B,1,2021_Jun_01_0932,GazeFlow,2020.1.2,59.88495321990068,
13,Block808.xls,B,8,7,8,8,None,congruent,Left,Left,Right,65,66,1,blue,2,6,/home/docky/apps/exp/images/35Y.jpeg,/home/docky/apps/exp/images/66Bi.jpeg,0,12,12,12,0,6,6,6,1777.3595465429999,None,1777.3595465429999,None,1,3.173119768000106,1777.3595465429999,None,1780.5706352010002,None,1780.5706352010002,None,1783.0711039420003,None,1783.0711039420003,None,2.085628073999942,1784.8731715060003,None,1784.8731715060003,None,6,1,2.7386743790002583,1786.9450339690002,None,1786.9450339690002,None,1786.9450339690002,None,1789.700140035,None,1,0.5179545119999602,1789.700140035,None,130,1790.2346224640005,None,139,B,1,2021_Jun_01_0932,GazeFlow,2020.1.2,59.88495321990068,
13,Block808.xls,B,8,8,31,31,None,congruent,Right,Right,Left,66,65,1,blue,2,5,/home/docky/apps/exp/images/66B.jpeg,/home/docky/apps/exp/images/35Yi.jpeg,0,12,12,12,0,7,7,7,1791.2365347189998,None,1791.2365347189998,None,1,4.459342809000191,1791.2365347189998,None,1795.7289599819997,None,1795.7289599819997,None,1798.2320093730004,None,1798.2320093730004,None,1.083490578999772,1800.0352690580003,None,1800.0352690580003,None,5,1,1.5865333210003882,1801.1058675049999,None,1801.1058675049999,None,1801.1058675049999,None,1802.7088125540004,None,1,0.7179190570004721,1802.7088125540004,None,132,1803.4430999960005,None,139,B,1,2021_Jun_01_0932,GazeFlow,2020.1.2,59.88495321990068,
13,Block808.xls,B,,,,,,,,,,,,,,,,,,0,12,12,12,,,,,,,,,,,,,,,,,,,,,,,,,,,,,,,,,,,,,,,,,,,,139,B,1,2021_Jun_01_0932,GazeFlow,2020.1.2,59.88495321990068,
14,Block815.xls,B,15,1,65,65,None,congruent,Left,Left,Right,69,76,7,yellow,2,6,/home/docky/apps/exp/images/69Yi.jpeg,/home/docky/apps/exp/images/76Y.jpeg,0,13,13,13,0,0,0,0,1825.8564702000003,None,1825.8564702000003,None,1,4.427496512999824,1825.8564702000003,None,1830.31100779,None,1830.31100779,None,1832.8331799839998,None,1832.8331799839998,None,1.7844683680004891,1834.6360442300002,None,1834.6360442300002,None,6,1,0.1333441489996403,1836.4077285499998,None,1836.4077285499998,None,1836.4077285499998,None,1836.5575756610006,None,1,1.486010864000491,1836.5575756610006,None,134,1838.060465054,None,139,B,1,2021_Jun_01_0932,GazeFlow,2020.1.2,59.88495321990068,
14,Block815.xls,B,15,2,102,6,None,incongruent,Right,Left,Right,80,83,3,blue,2,6,/home/docky/apps/exp/images/80B.jpeg,/home/docky/apps/exp/images/83Bi.jpeg,0,13,13,13,0,1,1,1,1839.0621961010002,None,1839.0621961010002,None,1,3.9756538259998706,1839.0621961010002,None,1843.0711818589998,None,1843.0711818589998,None,1845.5760049620003,None,1845.5760049620003,None,1.184039888999905,1847.3768269990005,None,1847.3768269990005,None,6,1,1.3359458750001068,1848.548101978,None,1848.548101978,None,1848.548101978,None,1849.9004249790005,None,1,0.3341939559995808,1849.9004249790005,None,136,1850.2512154550004,None,139,B,1,2021_Jun_01_0932,GazeFlow,2020.1.2,59.88495321990068,
14,Block815.xls,B,15,3,33,33,None,congruent,Right,Right,Left,66,65,1,blue,2,5,/home/docky/apps/exp/images/66Bi.jpeg,/home/docky/apps/exp/images/35Y.jpeg,0,13,13,13,0,2,2,2,1851.2525722110004,None,1851.2525722110004,None,1,3.4574500090002402,1851.2525722110004,None,1854.7420125150002,None,1854.7420125150002,None,1857.2464035089997,None,1857.2464035089997,None,0.9667936209998516,1859.0497145070003,None,1859.0497145070003,None,5,1,4.575636128000042,1860.003603704,None,1860.003603704,None,1860.003603704,None,1864.595644809,None,1,0.6350078949999443,1864.595644809,None,138,1865.246863372,None,139,B,1,2021_Jun_01_0932,GazeFlow,2020.1.2,59.88495321990068,
14,Block815.xls,B,15,4,72,72,None,congruent,Left,Left,Right,79,82,3,yellow,2,6,/home/docky/apps/exp/images/79Yi.jpeg,/home/docky/apps/exp/images/80Y.jpeg,0,13,13,13,0,3,3,3,1866.2488946720005,None,1866.2488946720005,None,1,3.140165488999628,1866.2488946720005,None,1869.422539014,None,1869.422539014,None,1871.925342853,None,1871.925342853,None,0.5993458670000109,1873.7289804150005,None,1873.7289804150005,None,5,0,2.9721079699993425,1874.3146536949998,None,1874.3146536949998,None,1874.3146536949998,None,1877.3032699269997,None,1,0.41747082699930615,1877.3032699269997,None,136,1877.7374850699998,None,139,B,1,2021_Jun_01_0932,GazeFlow,2020.1.2,59.88495321990068,
14,Block815.xls,B,15,5,100,4,None,incongruent,Right,Left,Right,73,76,3,blue,2,6,/home/docky/apps/exp/images/73B.jpeg,/home/docky/apps/exp/images/76Bi.jpeg,0,13,13,13,0,4,4,4,1878.7399063120001,None,1878.7399063120001,None,1,5.493941950999215,1878.7399063120001,None,1884.267662188,None,1884.267662188,None,1886.7722206050003,None,1886.7722206050003,None,2.6040974310008096,1888.5742099239997,None,1888.5742099239997,None,6,1,1.2510684439994293,1891.1815636709998,None,1891.1815636709998,None,1891.1815636709998,None,1892.4496170909997,None,1,0.4514042350001546,1892.4496170909997,None,138,1892.9170065360004,None,139,B,1,2021_Jun_01_0932,GazeFlow,2020.1.2,59.88495321990068,
14,Block815.xls,B,15,6,45,45,None,congruent,Right,Right,Left,39,38,1,blue,2,5,/home/docky/apps/exp/images/39B.jpeg,/home/docky/apps/exp/images/38Bi.jpeg,0,13,13,13,0,5,5,5,1893.9192937039998,None,1893.9192937039998,None,1,4.041486264999548,1893.9192937039998,None,1897.9946541549998,None,1897.9946541549998,None,1900.4974575240003,None,1900.4974575240003,None,1.6008597339996413,1902.302864589,None,1902.302864589,None,5,1,1.0855861549998735,1903.8889819380001,None,1903.8889819380001,None,1903.8889819380001,None,1904.9907369270004,None,1,0.5006959880001887,1904.9907369270004,None,140,1905.507977186,None,139,B,1,2021_Jun_01_0932,GazeFlow,2020.1.2,59.88495321990068,
14,Block815.xls,B,15,7,98,2,None,incongruent,Right,Left,Right,35,38,3,blue,2,6,/home/docky/apps/exp/images/35Bi.jpeg,/home/docky/apps/exp/images/38B.jpeg,0,13,13,13,0,6,6,6,1906.5098475659997,None,1906.5098475659997,None,1,4.442928765999568,1906.5098475659997,None,1910.9867322620003,None,1910.9867322620003,None,1913.4898731840003,None,1913.4898731840003,None,1.7849288959996557,1915.2906289889997,None,1915.2906289889997,None,5,0,2.889050374999897,1917.064389571,None,1917.064389571,None,1917.064389571,None,1919.9699062110003,None,1,0.5179305669998939,1919.9699062110003,None,138,1920.5042887810005,None,139,B,1,2021_Jun_01_0932,GazeFlow,2020.1.2,59.88495321990068,
14,Block815.xls,B,15,8,59,59,None,congruent,Left,Left,Right,38,39,1,yellow,2,6,/home/docky/apps/exp/images/38Yi.jpeg,/home/docky/apps/exp/images/39Y.jpeg,0,13,13,13,0,7,7,7,1921.5062508090004,None,1921.5062508090004,None,1,6.6464348640001845,1921.5062508090004,None,1928.186454658,None,1928.186454658,None,1930.6914877469999,None,1930.6914877469999,None,2.2860825489997296,1932.493360986,None,1932.493360986,None,6,1,4.2581619429993225,1934.765702531,None,1934.765702531,None,1934.765702531,None,1939.0400400790004,None,1,0.568103350000456,1939.0400400790004,None,140,1939.6244378769998,None,139,B,1,2021_Jun_01_0932,GazeFlow,2020.1.2,59.88495321990068,
14,Block815.xls,B,,,,,,,,,,,,,,,,,,0,13,13,13,,,,,,,,,,,,,,,,,,,,,,,,,,,,,,,,,,,,,,,,,,,,139,B,1,2021_Jun_01_0932,GazeFlow,2020.1.2,59.88495321990068,
15,Block807.xls,B,7,1,71,71,None,congruent,Left,Left,Right,79,82,3,yellow,2,6,/home/docky/apps/exp/images/79Y.jpeg,/home/docky/apps/exp/images/80Yi.jpeg,0,14,14,14,0,0,0,0,1960.4318687510004,None,1960.4318687510004,None,1,6.2033024600004865,1960.4318687510004,None,1966.6654883890005,None,1966.6654883890005,None,1969.1813719110005,None,1969.1813719110005,None,2.1183843000007982,1970.984920672,None,1970.984920672,None,6,1,1.2855564029996458,1973.0897150800001,None,1973.0897150800001,None,1973.0897150800001,None,1974.3918488609997,None,1,0.35081633199934004,1974.3918488609997,None,142,1974.7590969530002,None,139,B,1,2021_Jun_01_0932,GazeFlow,2020.1.2,59.88495321990068,
15,Block807.xls,B,7,2,44,44,None,congruent,Right,Right,Left,83,80,3,blue,2,5,/home/docky/apps/exp/images/83Bi.jpeg,/home/docky/apps/exp/images/80B.jpeg,0,14,14,14,0,1,1,1,1975.7614430760004,None,1975.7614430760004,None,1,3.707983622000029,1975.7614430760004,None,1979.502749196,None,1979.502749196,None,1982.0054522420005,None,1982.0054522420005,None,0.3827763049994246,1983.8098785060001,None,1983.8098785060001,None,5,1,3.1651068629998917,1984.185316608,None,1984.185316608,None,1984.185316608,None,1987.3671081399998,None,1,0.7182475099998555,1987.3671081399998,None,144,1988.101740917,None,139,B,1,2021_Jun_01_0932,GazeFlow,2020.1.2,59.88495321990068,
15,Block807.xls,B,7,3,48,48,None,congruent,Right,Right,Left,39,38,1,blue,2,5,/home/docky/apps/exp/images/39Bi.jpeg,/home/docky/apps/exp/images/38B.jpeg,0,14,14,14,0,2,2,2,1989.1036711799998,None,1989.1036711799998,None,1,5.310966738000388,1989.1036711799998,None,1994.4483094240004,None,1994.4483094240004,None,1996.951677219,None,1996.951677219,None,3.2047119609997026,1998.7553478629998,None,1998.7553478629998,None,5,1,2.021844016999239,2001.9609678340003,None,2001.9609678340003,None,2001.9609678340003,None,2003.999291772,None,1,1.5205983569994714,2003.999291772,None,146,2005.5359904759998,None,139,B,1,2021_Jun_01_0932,GazeFlow,2020.1.2,59.88495321990068,
15,Block807.xls,B,7,4,113,17,None,incongruent,Right,Left,Right,72,77,5,yellow,2,6,/home/docky/apps/exp/images/72Yi.jpeg,/home/docky/apps/exp/images/77Y.jpeg,0,14,14,14,0,3,3,3,2006.538024306,None,2006.538024306,None,1,4.726221787999748,2006.538024306,None,2011.3002408640004,None,2011.3002408640004,None,2013.8026267140003,None,2013.8026267140003,None,1.1172457949996897,2015.6045063190004,None,2015.6045063190004,None,6,1,1.4198458740002025,2016.7078386069998,None,2016.7078386069998,None,2016.7078386069998,None,2018.143419678,None,1,0.7181056730005366,2018.143419678,None,148,2018.8782026190001,None,139,B,1,2021_Jun_01_0932,GazeFlow,2020.1.2,59.88495321990068,
15,Block807.xls,B,7,5,69,69,None,congruent,Left,Left,Right,72,77,5,yellow,2,6,/home/docky/apps/exp/images/72Y.jpeg,/home/docky/apps/exp/images/77Yi.jpeg,0,14,14,14,0,4,4,4,2019.8801711610004,None,2019.8801711610004,None,1,3.307545396000023,2019.8801711610004,None,2023.2210142169997,None,2023.2210142169997,None,2025.7237318550006,None,2025.7237318550006,None,0.7663003819998266,2027.5272515469997,None,2027.5272515469997,None,6,1,2.1868774759996086,2028.2804406200003,None,2028.2804406200003,None,2028.2804406200003,None,2030.483910465,None,1,0.7518343530000493,2030.483910465,None,150,2031.2523190459997,None,139,B,1,2021_Jun_01_0932,GazeFlow,2020.1.2,59.88495321990068,
15,Block807.xls,B,7,6,39,39,None,congruent,Right,Right,Left,79,76,3,blue,2,5,/home/docky/apps/exp/images/79B.jpeg,/home/docky/apps/exp/images/76Bi.jpeg,0,14,14,14,0,5,5,5,2032.254389455,None,2032.254389455,None,1,3.9581667900001776,2032.254389455,None,2036.2464819280003,None,2036.2464819280003,None,2038.749637195,None,2038.749637195,None,2.2693441780002104,2040.5532579310002,None,2040.5532579310002,None,5,1,2.6213832190005633,2042.8094470510005,None,2042.8094470510005,None,2042.8094470510005,None,2045.4468993199998,None,1,0.5857471420004003,2045.4468993199998,None,152,2046.047973527,None,139,B,1,2021_Jun_01_0932,GazeFlow,2020.1.2,59.88495321990068,
15,Block807.xls,B,7,7,50,50,None,congruent,Left,Left,Right,33,35,2,yellow,2,6,/home/docky/apps/exp/images/33Y.jpeg,/home/docky/apps/exp/images/35Yi.jpeg,0,14,14,14,0,6,6,6,2047.049926232,None,2047.049926232,None,1,4.092164482000044,2047.049926232,None,2051.175452063,None,2051.175452063,None,2053.6801831029998,None,2053.6801831029998,None,3.204933981999602,2055.482188408,None,2055.482188408,None,5,0,5.243179999999484,2058.69027808,None,2058.69027808,None,2058.69027808,None,2063.949604591,None,1,0.4175763890007147,2063.949604591,None,150,2064.3836123419997,None,139,B,1,2021_Jun_01_0932,GazeFlow,2020.1.2,59.88495321990068,
15,Block807.xls,B,7,8,19,19,None,congruent,Left,Left,Right,76,79,3,blue,2,6,/home/docky/apps/exp/images/76B.jpeg,/home/docky/apps/exp/images/79Bi.jpeg,0,14,14,14,0,7,7,7,2065.385665734,None,2065.385665734,None,1,4.041839421999612,2065.385665734,None,2069.4655732379997,None,2069.4655732379997,None,2071.963506088,None,2071.963506088,None,2.4034821300001568,2073.766282155,None,2073.766282155,None,6,1,2.905279333999715,2076.1574867130003,None,2076.1574867130003,None,2076.1574867130003,None,2079.0788015079997,None,1,0.9689662410000892,2079.0788015079997,None,152,2080.0640414199997,None,139,B,1,2021_Jun_01_0932,GazeFlow,2020.1.2,59.88495321990068,
15,Block807.xls,B,,,,,,,,,,,,,,,,,,0,14,14,14,,,,,,,,,,,,,,,,,,,,,,,,,,,,,,,,,,,,,,,,,,,,139,B,1,2021_Jun_01_0932,GazeFlow,2020.1.2,59.88495321990068,
