Nblock,condsFile,grouping,Block,TrialBlock,N,trialN,trialCond,gazeCon,gazedirR,corrBinR,corrBinP,valLBY,valRBY,diff,colorCube,feedbacktext,corrAns,imageL,imageR,SelBlocks.thisRepN,SelBlocks.thisTrialN,SelBlocks.thisN,SelBlocks.thisIndex,Trials.thisRepN,Trials.thisTrialN,Trials.thisN,Trials.thisIndex,waitCube.started,waitCube.stopped,text_3.started,text_3.stopped,StartKeyPress.keys,StartKeyPress.rt,StartKeyPress.started,StartKeyPress.stopped,StimL.started,StimL.stopped,StimR.started,StimR.stopped,imageStim2L.started,imageStim2L.stopped,imageStim2R.started,imageStim2R.stopped,RTkeyRelease,imageStim3L.started,imageStim3L.stopped,imageStim3R.started,imageStim3R.stopped,dropResp.keys,dropResp.corr,dropResp.rt,dropResp.started,dropResp.stopped,imageStim5L.started,imageStim5L.stopped,imageStim5R.started,imageStim5R.stopped,text_2.started,text_2.stopped,ReturnSpace.keys,ReturnSpace.rt,ReturnSpace.started,ReturnSpace.stopped,totalpoints,textFeedback.started,textFeedback.stopped,participant,group,session,date,expName,psychopyVersion,frameRate,
1,Block502.xls,A,2,1,93,33,22,incongruent,Left,Right,Left,38,35,3,blue,2,5,/home/docky/apps/exp/images/38B.jpeg,/home/docky/apps/exp/images/35Bi.jpeg,0,0,0,0,0,0,0,0,34.3256053310015,None,34.3256053310015,None,1,25.435455941000328,34.3256053310015,None,59.79439620300036,None,59.79439620300036,None,62.31496259600135,None,62.31496259600135,None,1.3834259899995232,64.11827794200144,None,64.11827794200144,None,5,1,1.0858761469989986,65.48378504600078,None,65.48378504600078,None,65.48378504600078,None,66.58567601100003,None,1,0.6178035030006868,66.58567601100003,None,2,67.21971875600138,None,140,A,1,2021_Jun_01_1056,GazeFlow,2020.1.2,59.93706991236937,
1,Block502.xls,A,2,2,42,42,12,congruent,Right,Right,Left,83,80,3,blue,2,5,/home/docky/apps/exp/images/83Bi.jpeg,/home/docky/apps/exp/images/80B.jpeg,0,0,0,0,0,1,1,1,68.2222694560005,None,68.2222694560005,None,1,4.726573793999705,68.2222694560005,None,72.98697470300067,None,72.98697470300067,None,75.48558833000061,None,75.48558833000061,None,1.9683551979996992,77.29060884899991,None,77.29060884899991,None,5,1,1.068225856000936,79.24385738100136,None,79.24385738100136,None,79.24385738100136,None,80.328650286001,None,1,0.5014768359997106,80.328650286001,None,4,80.84651015000054,None,140,A,1,2021_Jun_01_1056,GazeFlow,2020.1.2,59.93706991236937,
1,Block502.xls,A,2,3,9,9,11,congruent,Left,Left,Right,38,39,1,blue,2,6,/home/docky/apps/exp/images/38Bi.jpeg,/home/docky/apps/exp/images/39B.jpeg,0,0,0,0,0,2,2,2,81.84863709599995,None,81.84863709599995,None,1,4.9938306260009995,81.84863709599995,None,86.87563913400118,None,86.87563913400118,None,89.37885830200139,None,89.37885830200139,None,1.551160834998882,91.18244863900145,None,91.18244863900145,None,6,1,1.0019454630000837,92.72001164300127,None,92.72001164300127,None,92.72001164300127,None,93.73853423400033,None,1,0.584248443999968,93.73853423400033,None,6,94.33889676900071,None,140,A,1,2021_Jun_01_1056,GazeFlow,2020.1.2,59.93706991236937,
1,Block502.xls,A,2,4,23,23,11,congruent,Left,Left,Right,38,39,1,yellow,2,6,/home/docky/apps/exp/images/38Yi.jpeg,/home/docky/apps/exp/images/39Y.jpeg,0,0,0,0,0,3,3,3,95.34123404800084,None,95.34123404800084,None,1,5.728404310000769,95.34123404800084,None,101.10347773500143,None,101.10347773500143,None,103.61025683000116,None,103.61025683000116,None,1.4344596989994898,105.41002766700149,None,105.41002766700149,None,6,1,1.0021441980006784,106.8306879540014,None,106.8306879540014,None,106.8306879540014,None,107.84926811400146,None,1,0.7010854700001801,107.84926811400146,None,8,108.56678653600102,None,140,A,1,2021_Jun_01_1056,GazeFlow,2020.1.2,59.93706991236937,
1,Block502.xls,A,2,5,57,57,12,congruent,Right,Right,Left,77,72,5,yellow,2,5,/home/docky/apps/exp/images/77Y.jpeg,/home/docky/apps/exp/images/72Yi.jpeg,0,0,0,0,0,4,4,4,109.56889635900006,None,109.56889635900006,None,1,5.779003284000282,109.56889635900006,None,115.38139595800021,None,115.38139595800021,None,117.88590498700069,None,117.88590498700069,None,1.2843424360016797,119.68800709000061,None,119.68800709000061,None,5,1,1.0517756680001185,120.9580859530015,None,120.9580859530015,None,120.9580859530015,None,122.02658222399987,None,1,0.7679182360006962,122.02658222399987,None,10,122.81123882400061,None,140,A,1,2021_Jun_01_1056,GazeFlow,2020.1.2,59.93706991236937,
1,Block502.xls,A,2,6,118,58,22,incongruent,Left,Right,Left,80,79,1,yellow,2,5,/home/docky/apps/exp/images/80Yi.jpeg,/home/docky/apps/exp/images/79Y.jpeg,0,0,0,0,0,5,5,5,123.81337192499996,None,123.81337192499996,None,1,5.327505348001068,123.81337192499996,None,129.17459840000083,None,129.17459840000083,None,131.6776648820014,None,131.6776648820014,None,1.117013795001185,133.483327199001,None,133.483327199001,None,6,0,1.051248077001219,134.58493523200013,None,134.58493523200013,None,134.58493523200013,None,135.6530456520013,None,1,0.5514521159984724,135.6530456520013,None,8,136.22078594100094,None,140,A,1,2021_Jun_01_1056,GazeFlow,2020.1.2,59.93706991236937,
1,Block502.xls,A,2,7,101,41,22,incongruent,Left,Right,Left,83,80,3,blue,2,5,/home/docky/apps/exp/images/83Bi.jpeg,/home/docky/apps/exp/images/80B.jpeg,0,0,0,0,0,6,6,6,137.22262767300163,None,137.22262767300163,None,1,6.480274759000167,137.22262767300163,None,143.73631535800087,None,143.73631535800087,None,146.23899976300163,None,146.23899976300163,None,1.7516091840006993,148.0424641590016,None,148.0424641590016,None,6,0,0.9178825479993975,149.78093534100117,None,149.78093534100117,None,149.78093534100117,None,150.71567389600023,None,1,0.45063981099883677,150.71567389600023,None,6,151.1831683270011,None,140,A,1,2021_Jun_01_1056,GazeFlow,2020.1.2,59.93706991236937,
1,Block502.xls,A,2,8,69,9,21,incongruent,Right,Left,Right,73,76,3,blue,2,6,/home/docky/apps/exp/images/73B.jpeg,/home/docky/apps/exp/images/76Bi.jpeg,0,0,0,0,0,7,7,7,152.18475227400086,None,152.18475227400086,None,1,5.327918578999743,152.18475227400086,None,157.54673460600134,None,157.54673460600134,None,160.0512929230008,None,160.0512929230008,None,1.4008852480001224,161.8479267640014,None,161.8479267640014,None,5,0,7.0805793889994675,163.24028115200053,None,163.24028115200053,None,163.24028115200053,None,170.3372924129999,None,1,1.0856355859996256,170.3372924129999,None,4,171.43937585000094,None,140,A,1,2021_Jun_01_1056,GazeFlow,2020.1.2,59.93706991236937,
1,Block502.xls,A,,,,,,,,,,,,,,,,,,0,0,0,0,,,,,,,,,,,,,,,,,,,,,,,,,,,,,,,,,,,,,,,,,,,,140,A,1,2021_Jun_01_1056,GazeFlow,2020.1.2,59.93706991236937,
2,Block506.xls,A,6,1,120,60,22,incongruent,Left,Right,Left,80,79,1,yellow,2,5,/home/docky/apps/exp/images/80Yi.jpeg,/home/docky/apps/exp/images/79Y.jpeg,0,1,1,1,0,0,0,0,192.63274382800046,None,192.63274382800046,None,1,5.247259364001366,192.63274382800046,None,197.91557456600094,None,197.91557456600094,None,200.42800332500155,None,200.42800332500155,None,1.3832262549985899,202.23346147600023,None,202.23346147600023,None,6,0,1.1360161270004028,203.60192645900133,None,203.60192645900133,None,203.60192645900133,None,204.75413929600109,None,1,0.7008739869997953,204.75413929600109,None,2,205.47172753900122,None,140,A,1,2021_Jun_01_1056,GazeFlow,2020.1.2,59.93706991236937,
2,Block506.xls,A,6,2,51,51,12,congruent,Right,Right,Left,66,65,1,yellow,2,5,/home/docky/apps/exp/images/66Y.jpeg,/home/docky/apps/exp/images/35Bi.jpeg,0,1,1,1,0,1,1,1,206.473890270001,None,206.473890270001,None,1,4.659517996000432,206.473890270001,None,211.16729297500024,None,211.16729297500024,None,213.67055206000077,None,213.67055206000077,None,1.684828216999449,215.47285275800095,None,215.47285275800095,None,5,1,1.2682796419994702,217.14525702100036,None,217.14525702100036,None,217.14525702100036,None,218.43019278200154,None,1,0.8353725859997212,218.43019278200154,None,4,219.28200325500075,None,140,A,1,2021_Jun_01_1056,GazeFlow,2020.1.2,59.93706991236937,
2,Block506.xls,A,6,3,119,59,22,incongruent,Left,Right,Left,80,79,1,yellow,2,5,/home/docky/apps/exp/images/80Y.jpeg,/home/docky/apps/exp/images/79Yi.jpeg,0,1,1,1,0,2,2,2,220.28430790499988,None,220.28430790499988,None,1,5.243741701000545,220.28430790499988,None,225.55995768700086,None,225.55995768700086,None,228.06490610400033,None,228.06490610400033,None,1.868658494000556,229.86256974700154,None,229.86256974700154,None,5,1,1.1015144680004596,231.72345068800132,None,231.72345068800132,None,231.72345068800132,None,232.84169756600022,None,1,0.48411252300138585,232.84169756600022,None,6,233.3426070660007,None,140,A,1,2021_Jun_01_1056,GazeFlow,2020.1.2,59.93706991236937,
2,Block506.xls,A,6,4,28,28,11,congruent,Left,Left,Right,72,77,5,yellow,2,6,/home/docky/apps/exp/images/72Y.jpeg,/home/docky/apps/exp/images/77Yi.jpeg,0,1,1,1,0,3,3,3,234.34441791300014,None,234.34441791300014,None,1,5.26077317400086,234.34441791300014,None,239.63902845300072,None,239.63902845300072,None,242.1417909970005,None,242.1417909970005,None,1.3842927679997956,243.93984109300072,None,243.93984109300072,None,6,1,1.2192487660013285,245.31639914900006,None,245.31639914900006,None,245.31639914900006,None,246.55198223300067,None,1,0.7009859520003374,246.55198223300067,None,8,247.26947804200063,None,140,A,1,2021_Jun_01_1056,GazeFlow,2020.1.2,59.93706991236937,
2,Block506.xls,A,6,5,85,25,21,incongruent,Right,Left,Right,69,75,6,yellow,2,6,/home/docky/apps/exp/images/69Y.jpeg,/home/docky/apps/exp/images/76Yi.jpeg,0,1,1,1,0,4,4,4,248.27212376800162,None,248.27212376800162,None,1,5.093413493999833,248.27212376800162,None,253.3976768700013,None,253.3976768700013,None,255.9025579950012,None,255.9025579950012,None,1.3846010889992613,257.7051623260013,None,257.7051623260013,None,6,1,1.051989058001709,259.07649724300063,None,259.07649724300063,None,259.07649724300063,None,260.1451617010007,None,1,0.5672660820000601,260.1451617010007,None,10,260.72901203900074,None,140,A,1,2021_Jun_01_1056,GazeFlow,2020.1.2,59.93706991236937,
2,Block506.xls,A,6,6,71,11,21,incongruent,Right,Left,Right,76,79,3,blue,2,6,/home/docky/apps/exp/images/76B.jpeg,/home/docky/apps/exp/images/79Bi.jpeg,0,1,1,1,0,5,5,5,261.73091455900067,None,261.73091455900067,None,1,5.2609881030002725,261.73091455900067,None,267.02580257500085,None,267.02580257500085,None,269.5304296760005,None,269.5304296760005,None,1.3174472069986223,271.3326369130009,None,271.3326369130009,None,5,0,1.1858670539986633,272.63599939100095,None,272.63599939100095,None,272.63599939100095,None,273.8382719320016,None,1,0.6675134170000092,273.8382719320016,None,8,274.5226425609999,None,140,A,1,2021_Jun_01_1056,GazeFlow,2020.1.2,59.93706991236937,
2,Block506.xls,A,6,7,56,56,12,congruent,Right,Right,Left,76,69,7,yellow,2,5,/home/docky/apps/exp/images/76Yi.jpeg,/home/docky/apps/exp/images/69Y.jpeg,0,1,1,1,0,6,6,6,275.52465724000103,None,275.52465724000103,None,1,5.561767430001055,275.52465724000103,None,281.1213995040016,None,281.1213995040016,None,283.62310471800083,None,283.62310471800083,None,1.4175420070005202,285.42591796600027,None,285.42591796600027,None,5,1,1.018420058000629,286.83042851900063,None,286.83042851900063,None,286.83042851900063,None,287.8655277710004,None,1,0.667601758001183,287.8655277710004,None,10,288.54953096200006,None,140,A,1,2021_Jun_01_1056,GazeFlow,2020.1.2,59.93706991236937,
2,Block506.xls,A,6,8,33,33,12,congruent,Right,Right,Left,38,35,3,blue,2,5,/home/docky/apps/exp/images/38B.jpeg,/home/docky/apps/exp/images/35Bi.jpeg,0,1,1,1,0,7,7,7,289.55218939299994,None,289.55218939299994,None,1,6.263019446998442,289.55218939299994,None,295.8482933340001,None,295.8482933340001,None,298.35296331500103,None,298.35296331500103,None,1.3340822980007943,300.15653070900044,None,300.15653070900044,None,5,1,1.1027551579991268,301.4753854320006,None,301.4753854320006,None,301.4753854320006,None,302.59417563200077,None,1,0.5006615120000788,302.59417563200077,None,12,303.11112220200084,None,140,A,1,2021_Jun_01_1056,GazeFlow,2020.1.2,59.93706991236937,
2,Block506.xls,A,,,,,,,,,,,,,,,,,,0,1,1,1,,,,,,,,,,,,,,,,,,,,,,,,,,,,,,,,,,,,,,,,,,,,140,A,1,2021_Jun_01_1056,GazeFlow,2020.1.2,59.93706991236937,
3,Block505.xls,A,5,1,1,1,11,congruent,Left,Left,Right,16,19,3,blue,2,6,/home/docky/apps/exp/images/16Bi.jpeg,/home/docky/apps/exp/images/19B.jpeg,0,2,2,2,0,0,0,0,326.2744535460006,None,326.2744535460006,None,1,4.547692788999484,326.2744535460006,None,330.85371430600026,None,330.85371430600026,None,333.3713358010009,None,333.3713358010009,None,1.6504606849994161,335.1755489920015,None,335.1755489920015,None,6,1,1.1856021900002816,336.81067309900027,None,336.81067309900027,None,336.81067309900027,None,338.01289982800154,None,1,0.6176665689999936,338.01289982800154,None,14,338.64697906400033,None,140,A,1,2021_Jun_01_1056,GazeFlow,2020.1.2,59.93706991236937,
3,Block505.xls,A,5,2,10,10,11,congruent,Left,Left,Right,73,76,3,blue,2,6,/home/docky/apps/exp/images/73B.jpeg,/home/docky/apps/exp/images/76Bi.jpeg,0,2,2,2,0,1,1,1,339.6492460600002,None,339.6492460600002,None,1,4.47642961999918,339.6492460600002,None,344.1588902550011,None,344.1588902550011,None,346.6635529920004,None,346.6635529920004,None,1.601260858000387,348.4652146740009,None,348.4652146740009,None,6,1,1.251619122998818,350.05325309100044,None,350.05325309100044,None,350.05325309100044,None,351.321683143,None,1,0.5510777479994431,351.321683143,None,16,351.8894540420006,None,140,A,1,2021_Jun_01_1056,GazeFlow,2020.1.2,59.93706991236937,
3,Block505.xls,A,5,3,95,35,22,incongruent,Left,Right,Left,66,65,1,blue,2,5,/home/docky/apps/exp/images/66B.jpeg,/home/docky/apps/exp/images/35Yi.jpeg,0,2,2,2,0,2,2,2,352.89185892000023,None,352.89185892000023,None,1,5.444623024999601,352.89185892000023,None,358.36950305400023,None,358.36950305400023,None,360.8746951060002,None,360.8746951060002,None,1.5179547679999814,362.6759777850002,None,362.6759777850002,None,5,1,1.118947548999131,364.18056926900135,None,364.18056926900135,None,364.18056926900135,None,365.31534392200047,None,1,0.5679938260000199,365.31534392200047,None,18,365.90007500400134,None,140,A,1,2021_Jun_01_1056,GazeFlow,2020.1.2,59.93706991236937,
3,Block505.xls,A,5,4,46,46,12,congruent,Right,Right,Left,35,33,2,yellow,2,5,/home/docky/apps/exp/images/35Yi.jpeg,/home/docky/apps/exp/images/33Y.jpeg,0,2,2,2,0,3,3,3,366.90202580799996,None,366.90202580799996,None,1,5.177383775000635,366.90202580799996,None,372.1131012720016,None,372.1131012720016,None,374.6181455590013,None,374.6181455590013,None,2.8876822419988457,376.41983417100164,None,376.41983417100164,None,5,1,1.001111358000344,379.31024853300005,None,379.31024853300005,None,379.31024853300005,None,380.3282774020008,None,1,0.4172259300012229,380.3282774020008,None,20,380.762176395001,None,140,A,1,2021_Jun_01_1056,GazeFlow,2020.1.2,59.93706991236937,
3,Block505.xls,A,5,5,78,18,21,incongruent,Right,Left,Right,65,66,1,yellow,2,6,/home/docky/apps/exp/images/35Bi.jpeg,/home/docky/apps/exp/images/66Y.jpeg,0,2,2,2,0,4,4,4,381.7645741190008,None,381.7645741190008,None,1,5.077266326001336,381.7645741190008,None,386.8752921210016,None,386.8752921210016,None,389.37970150100045,None,389.37970150100045,None,1.7350484769995091,391.1817377940006,None,391.1817377940006,None,6,1,1.2520375749991217,392.9030715930003,None,392.9030715930003,None,392.9030715930003,None,394.17145988000084,None,1,0.5344641110004886,394.17145988000084,None,22,394.722662477001,None,140,A,1,2021_Jun_01_1056,GazeFlow,2020.1.2,59.93706991236937,
3,Block505.xls,A,5,6,43,43,12,congruent,Right,Right,Left,83,80,3,blue,2,5,/home/docky/apps/exp/images/83B.jpeg,/home/docky/apps/exp/images/80Bi.jpeg,0,2,2,2,0,5,5,5,395.7251613640001,None,395.7251613640001,None,1,5.2106541430002835,395.7251613640001,None,400.97103561400036,None,400.97103561400036,None,403.47407270700023,None,403.47407270700023,None,1.2673582489987893,405.27514115300073,None,405.27514115300073,None,5,1,1.0853129500010255,406.52950655899986,None,406.52950655899986,None,406.52950655899986,None,407.631549189,None,1,0.5173860260001675,407.631549189,None,24,408.1654198870001,None,140,A,1,2021_Jun_01_1056,GazeFlow,2020.1.2,59.93706991236937,
3,Block505.xls,A,5,7,44,44,12,congruent,Right,Right,Left,39,38,1,blue,2,5,/home/docky/apps/exp/images/39Bi.jpeg,/home/docky/apps/exp/images/38B.jpeg,0,2,2,2,0,6,6,6,409.16766004300007,None,409.16766004300007,None,1,4.359330885999952,409.16766004300007,None,413.560404541,None,413.560404541,None,416.0652662200009,None,416.0652662200009,None,1.5176267940005346,417.862876393001,None,417.862876393001,None,6,0,1.152150795000125,419.37119985500067,None,419.37119985500067,None,419.37119985500067,None,420.5398983510004,None,1,0.500500349999129,420.5398983510004,None,22,421.05716945900167,None,140,A,1,2021_Jun_01_1056,GazeFlow,2020.1.2,59.93706991236937,
3,Block505.xls,A,5,8,116,56,22,incongruent,Left,Right,Left,77,72,5,yellow,2,5,/home/docky/apps/exp/images/77Y.jpeg,/home/docky/apps/exp/images/72Y.jpeg,0,2,2,2,0,7,7,7,422.0592003670008,None,422.0592003670008,None,1,4.375784163999924,422.0592003670008,None,426.4707827180009,None,426.4707827180009,None,428.9720598720014,None,428.9720598720014,None,1.5510816099995282,430.7699945680015,None,430.7699945680015,None,5,1,1.1357837399991695,432.31277252400105,None,432.31277252400105,None,432.31277252400105,None,433.46488412800136,None,1,0.5006041380001989,433.46488412800136,None,24,433.982165849,None,140,A,1,2021_Jun_01_1056,GazeFlow,2020.1.2,59.93706991236937,
3,Block505.xls,A,,,,,,,,,,,,,,,,,,0,2,2,2,,,,,,,,,,,,,,,,,,,,,,,,,,,,,,,,,,,,,,,,,,,,140,A,1,2021_Jun_01_1056,GazeFlow,2020.1.2,59.93706991236937,
4,Block509.xls,A,9,1,34,34,12,congruent,Right,Right,Left,38,35,3,blue,2,5,/home/docky/apps/exp/images/38Bi.jpeg,/home/docky/apps/exp/images/35B.jpeg,0,3,3,3,0,0,0,0,453.4879301560013,None,453.4879301560013,None,1,4.780250085999796,453.4879301560013,None,458.2984804450007,None,458.2984804450007,None,460.81711647700104,None,460.81711647700104,None,1.5167629790012143,462.62230104100126,None,462.62230104100126,None,5,1,0.9853928539996559,464.1248927630004,None,464.1248927630004,None,464.1248927630004,None,465.1265555310001,None,1,0.5172974070010241,465.1265555310001,None,26,465.6603763050007,None,140,A,1,2021_Jun_01_1056,GazeFlow,2020.1.2,59.93706991236937,
4,Block509.xls,A,9,2,7,7,11,congruent,Left,Left,Right,65,66,1,blue,2,6,/home/docky/apps/exp/images/35Yi.jpeg,/home/docky/apps/exp/images/66B.jpeg,0,3,3,3,0,1,1,1,466.66262747100154,None,466.66262747100154,None,1,5.0937541219991544,466.66262747100154,None,471.7901115390014,None,471.7901115390014,None,474.2935209570005,None,474.2935209570005,None,1.0334504720012774,476.0962656090014,None,476.0962656090014,None,6,1,0.93461445200046,477.1164288830005,None,477.1164288830005,None,477.1164288830005,None,478.067565188001,None,1,0.5186235729997861,478.067565188001,None,28,478.60270131700054,None,140,A,1,2021_Jun_01_1056,GazeFlow,2020.1.2,59.93706991236937,
4,Block509.xls,A,9,3,74,14,21,incongruent,Right,Left,Right,80,83,3,blue,2,6,/home/docky/apps/exp/images/80B.jpeg,/home/docky/apps/exp/images/83Bi.jpeg,0,3,3,3,0,2,2,2,479.6040422740007,None,479.6040422740007,None,1,4.910458250000374,479.6040422740007,None,484.54815892700026,None,484.54815892700026,None,487.0532333250012,None,487.0532333250012,None,1.8017182269995828,488.85115633400164,None,488.85115633400164,None,6,1,1.0520993989994167,490.6429450830001,None,490.6429450830001,None,490.6429450830001,None,491.71136818500054,None,1,0.4339020659990638,491.71136818500054,None,30,492.1620097660016,None,140,A,1,2021_Jun_01_1056,GazeFlow,2020.1.2,59.93706991236937,
4,Block509.xls,A,9,4,19,19,11,congruent,Left,Left,Right,65,66,1,yellow,2,6,/home/docky/apps/exp/images/35Bi.jpeg,/home/docky/apps/exp/images/66Y.jpeg,0,3,3,3,0,3,3,3,493.164079948001,None,493.164079948001,None,1,4.158529815000293,493.164079948001,None,497.3565416300007,None,497.3565416300007,None,499.8612718050008,None,499.8612718050008,None,1.3677514250011882,501.662240615,None,501.662240615,None,6,1,0.9687810300001729,503.0167135470001,None,503.0167135470001,None,503.0167135470001,None,504.0020410060006,None,1,0.4343988460004766,504.0020410060006,None,32,504.4528439320002,None,140,A,1,2021_Jun_01_1056,GazeFlow,2020.1.2,59.93706991236937,
4,Block509.xls,A,9,5,60,60,12,congruent,Right,Right,Left,80,79,1,yellow,2,5,/home/docky/apps/exp/images/80Yi.jpeg,/home/docky/apps/exp/images/79Y.jpeg,0,3,3,3,0,4,4,4,505.454556183,None,505.454556183,None,1,5.2946312210006,505.454556183,None,510.78256220300136,None,510.78256220300136,None,513.2859229630012,None,513.2859229630012,None,1.2338976270002604,515.0894289950011,None,515.0894289950011,None,6,0,0.9847130850012036,516.3095884760005,None,516.3095884760005,None,516.3095884760005,None,517.3108499490008,None,1,0.46822270400116395,517.3108499490008,None,30,517.7953277380002,None,140,A,1,2021_Jun_01_1056,GazeFlow,2020.1.2,59.93706991236937,
4,Block509.xls,A,9,6,83,23,21,incongruent,Right,Left,Right,38,39,1,yellow,2,6,/home/docky/apps/exp/images/38Yi.jpeg,/home/docky/apps/exp/images/39Y.jpeg,0,3,3,3,0,5,5,5,518.7969223700002,None,518.7969223700002,None,1,5.1106714850011485,518.7969223700002,None,523.9414039200001,None,523.9414039200001,None,526.445745553001,None,526.445745553001,None,2.018607840000186,528.2478420570005,None,528.2478420570005,None,6,1,1.0514915359999577,530.2531931980011,None,530.2531931980011,None,530.2531931980011,None,531.321318321001,None,1,0.48404109999864886,531.321318321001,None,32,531.8224356110004,None,140,A,1,2021_Jun_01_1056,GazeFlow,2020.1.2,59.93706991236937,
4,Block509.xls,A,9,7,4,4,11,congruent,Left,Left,Right,35,38,3,blue,2,6,/home/docky/apps/exp/images/35B.jpeg,/home/docky/apps/exp/images/38Bi.jpeg,0,3,3,3,0,6,6,6,532.8247280340001,None,532.8247280340001,None,1,4.124921222999546,532.8247280340001,None,536.9831828220013,None,536.9831828220013,None,539.4864020910009,None,539.4864020910009,None,1.434178683999562,541.2899582549999,None,541.2899582549999,None,6,1,0.9010294720010279,542.7108228350007,None,542.7108228350007,None,542.7108228350007,None,543.6284056270015,None,1,0.4677178879992425,543.6284056270015,None,34,544.1126516420009,None,140,A,1,2021_Jun_01_1056,GazeFlow,2020.1.2,59.93706991236937,
4,Block509.xls,A,9,8,24,24,11,congruent,Left,Left,Right,38,39,1,yellow,2,6,/home/docky/apps/exp/images/38Y.jpeg,/home/docky/apps/exp/images/39Yi.jpeg,0,3,3,3,0,7,7,7,545.1147897340015,None,545.1147897340015,None,1,3.741723852001087,545.1147897340015,None,548.8910593210003,None,548.8910593210003,None,551.3947213650008,None,551.3947213650008,None,2.119182792999709,553.1961703080015,None,553.1961703080015,None,6,1,0.9181556469993666,555.3018777880006,None,555.3018777880006,None,555.3018777880006,None,556.236341875001,None,1,0.4344227059991681,556.236341875001,None,36,556.6874689000015,None,140,A,1,2021_Jun_01_1056,GazeFlow,2020.1.2,59.93706991236937,
4,Block509.xls,A,,,,,,,,,,,,,,,,,,0,3,3,3,,,,,,,,,,,,,,,,,,,,,,,,,,,,,,,,,,,,,,,,,,,,140,A,1,2021_Jun_01_1056,GazeFlow,2020.1.2,59.93706991236937,
5,Block504.xls,A,4,1,11,11,11,congruent,Left,Left,Right,73,76,3,blue,2,6,/home/docky/apps/exp/images/73Bi.jpeg,/home/docky/apps/exp/images/76B.jpeg,0,4,4,4,0,0,0,0,575.807825541,None,575.807825541,None,1,3.3168269119996694,575.807825541,None,579.1452327630013,None,579.1452327630013,None,581.6702487680013,None,581.6702487680013,None,1.350015218000408,583.4722876140004,None,583.4722876140004,None,6,1,0.8846697559984023,584.8091327120001,None,584.8091327120001,None,584.8091327120001,None,585.7103902650015,None,1,0.4512413630000083,585.7103902650015,None,38,586.1782385610004,None,140,A,1,2021_Jun_01_1056,GazeFlow,2020.1.2,59.93706991236937,
5,Block504.xls,A,4,2,87,27,21,incongruent,Right,Left,Right,72,77,5,yellow,2,6,/home/docky/apps/exp/images/72Y.jpeg,/home/docky/apps/exp/images/77Yi.jpeg,0,4,4,4,0,1,1,1,587.1795159120011,None,587.1795159120011,None,1,3.8918917369992414,587.1795159120011,None,591.1052385880012,None,591.1052385880012,None,593.6080157370016,None,593.6080157370016,None,1.200568217000182,595.411327576001,None,595.411327576001,None,6,1,1.001344362999589,596.598825731,None,596.598825731,None,596.598825731,None,597.6168927770013,None,1,0.48496250300013344,597.6168927770013,None,40,598.1181078560003,None,140,A,1,2021_Jun_01_1056,GazeFlow,2020.1.2,59.93706991236937,
5,Block504.xls,A,4,3,48,48,12,congruent,Right,Right,Left,39,38,1,yellow,2,5,/home/docky/apps/exp/images/39Yi.jpeg,/home/docky/apps/exp/images/38Y.jpeg,0,4,4,4,0,2,2,2,599.1196974450013,None,599.1196974450013,None,1,4.97704911800065,599.1196974450013,None,604.130631774,None,604.130631774,None,606.633927066001,None,606.633927066001,None,1.467751374000727,608.4366576410011,None,608.4366576410011,None,5,1,0.9690745620009693,609.8911259680008,None,609.8911259680008,None,609.8911259680008,None,610.8762807310013,None,1,0.36789330799911113,610.8762807310013,None,42,611.2603428500006,None,140,A,1,2021_Jun_01_1056,GazeFlow,2020.1.2,59.93706991236937,
5,Block504.xls,A,4,4,38,38,12,congruent,Right,Right,Left,79,73,6,blue,2,5,/home/docky/apps/exp/images/79B.jpeg,/home/docky/apps/exp/images/73Bi.jpeg,0,4,4,4,0,3,3,3,612.2618349470013,None,612.2618349470013,None,1,4.091908975000479,612.2618349470013,None,616.3875071880011,None,616.3875071880011,None,618.8904359710014,None,618.8904359710014,None,1.2340020080009708,620.694106238001,None,620.694106238001,None,5,1,0.9010131469985936,621.9146889910007,None,621.9146889910007,None,621.9146889910007,None,622.8325415250001,None,1,0.38465138599895,622.8325415250001,None,44,623.2336648620003,None,140,A,1,2021_Jun_01_1056,GazeFlow,2020.1.2,59.93706991236937,
5,Block504.xls,A,4,5,2,2,11,congruent,Left,Left,Right,16,19,3,blue,2,6,/home/docky/apps/exp/images/16B.jpeg,/home/docky/apps/exp/images/19Bi.jpeg,0,4,4,4,0,4,4,4,624.2351167550005,None,624.2351167550005,None,1,3.557651139999507,624.2351167550005,None,627.8247965090013,None,627.8247965090013,None,630.3311903960002,None,630.3311903960002,None,1.1671340050015715,632.1331879140016,None,632.1331879140016,None,6,1,0.9179260790006083,633.2866640040011,None,633.2866640040011,None,633.2866640040011,None,634.2211529250017,None,1,0.41845953399933933,634.2211529250017,None,46,634.655762534001,None,140,A,1,2021_Jun_01_1056,GazeFlow,2020.1.2,59.93706991236937,
5,Block504.xls,A,4,6,73,13,21,incongruent,Right,Left,Right,80,83,3,blue,2,6,/home/docky/apps/exp/images/80Bi.jpeg,/home/docky/apps/exp/images/83B.jpeg,0,4,4,4,0,5,5,5,635.657620977001,None,635.657620977001,None,1,4.041598871999668,635.657620977001,None,639.7328600510009,None,639.7328600510009,None,642.2397573040016,None,642.2397573040016,None,1.1665933790009149,644.0400266280012,None,644.0400266280012,None,6,1,0.8845145180002874,645.1932240760016,None,645.1932240760016,None,645.1932240760016,None,646.0941469469999,None,1,0.4179880840001715,646.0941469469999,None,48,646.5288712630008,None,140,A,1,2021_Jun_01_1056,GazeFlow,2020.1.2,59.93706991236937,
5,Block504.xls,A,4,7,63,3,21,incongruent,Right,Left,Right,35,38,3,blue,2,6,/home/docky/apps/exp/images/35B.jpeg,/home/docky/apps/exp/images/38Bi.jpeg,0,4,4,4,0,6,6,6,647.5303533229999,None,647.5303533229999,None,1,3.9424185320003744,647.5303533229999,None,651.5059416460008,None,651.5059416460008,None,654.0089484520013,None,654.0089484520013,None,1.0669856509994133,655.8070272360001,None,655.8070272360001,None,6,1,0.9178774829997565,656.8658260150005,None,656.8658260150005,None,656.8658260150005,None,657.8003501120002,None,1,0.6016897049994441,657.8003501120002,None,50,658.4185002100003,None,140,A,1,2021_Jun_01_1056,GazeFlow,2020.1.2,59.93706991236937,
5,Block504.xls,A,4,8,86,26,21,incongruent,Right,Left,Right,72,77,5,yellow,2,6,/home/docky/apps/exp/images/72Yi.jpeg,/home/docky/apps/exp/images/77Y.jpeg,0,4,4,4,0,7,7,7,659.4203455620009,None,659.4203455620009,None,1,4.727042876000269,659.4203455620009,None,664.1806638240014,None,664.1806638240014,None,666.6853835300008,None,666.6853835300008,None,1.2006988350003667,668.4864044880014,None,668.4864044880014,None,6,1,0.9846901250002702,669.6740445530013,None,669.6740445530013,None,669.6740445530013,None,670.6755269000005,None,1,0.46803996699964046,670.6755269000005,None,52,671.160087229,None,140,A,1,2021_Jun_01_1056,GazeFlow,2020.1.2,59.93706991236937,
5,Block504.xls,A,,,,,,,,,,,,,,,,,,0,4,4,4,,,,,,,,,,,,,,,,,,,,,,,,,,,,,,,,,,,,,,,,,,,,140,A,1,2021_Jun_01_1056,GazeFlow,2020.1.2,59.93706991236937,
6,Block511.xls,A,11,1,15,15,11,congruent,Left,Left,Right,80,83,3,blue,2,6,/home/docky/apps/exp/images/80Bi.jpeg,/home/docky/apps/exp/images/83B.jpeg,0,5,5,5,0,0,0,0,694.6889955040006,None,694.6889955040006,None,1,4.718376905999321,694.6889955040006,None,699.4321255340001,None,699.4321255340001,None,701.953581234,None,701.953581234,None,0.8661264149995986,703.7571228820016,None,703.7571228820016,None,6,1,1.0850457010001264,704.6083607140008,None,704.6083607140008,None,704.6083607140008,None,705.7101127290007,None,1,0.4514682080007333,705.7101127290007,None,54,706.1779573520016,None,140,A,1,2021_Jun_01_1056,GazeFlow,2020.1.2,59.93706991236937,
6,Block511.xls,A,11,2,105,45,22,incongruent,Left,Right,Left,39,38,1,blue,2,5,/home/docky/apps/exp/images/39Bi.jpeg,/home/docky/apps/exp/images/38B.jpeg,0,5,5,5,0,1,1,1,707.1794380020001,None,707.1794380020001,None,1,3.7083398710001347,707.1794380020001,None,710.9229663440001,None,710.9229663440001,None,713.4241426730005,None,713.4241426730005,None,2.269361040000149,715.2293107390014,None,715.2293107390014,None,6,0,0.9343587380008103,717.4836100920002,None,717.4836100920002,None,717.4836100920002,None,718.434620846001,None,1,0.5516322659987054,718.434620846001,None,52,719.0024986040007,None,140,A,1,2021_Jun_01_1056,GazeFlow,2020.1.2,59.93706991236937,
6,Block511.xls,A,11,3,68,8,21,incongruent,Right,Left,Right,38,39,1,blue,2,6,/home/docky/apps/exp/images/38B.jpeg,/home/docky/apps/exp/images/39Bi.jpeg,0,5,5,5,0,2,2,2,720.0050491640013,None,720.0050491640013,None,1,4.208605169000293,720.0050491640013,None,724.2470630660009,None,724.2470630660009,None,726.7504458399999,None,726.7504458399999,None,1.5346490320007433,728.5539390450012,None,728.5539390450012,None,6,1,1.0355177900000854,730.0744890189999,None,730.0744890189999,None,730.0744890189999,None,731.126472375001,None,1,0.38395199600017804,731.126472375001,None,54,731.5267619720016,None,140,A,1,2021_Jun_01_1056,GazeFlow,2020.1.2,59.93706991236937,
6,Block511.xls,A,11,4,80,20,21,incongruent,Right,Left,Right,62,65,3,yellow,2,6,/home/docky/apps/exp/images/38Bi.jpeg,/home/docky/apps/exp/images/35B.jpeg,0,5,5,5,0,3,3,3,732.5291426160002,None,732.5291426160002,None,1,4.893647680999493,732.5291426160002,None,737.4561650420001,None,737.4561650420001,None,739.9589678610009,None,739.9589678610009,None,1.5847442689992022,741.7628513430009,None,741.7628513430009,None,6,1,1.0013829549989168,743.333757104001,None,743.333757104001,None,743.333757104001,None,744.3515723740002,None,1,0.5011045890005335,744.3515723740002,None,56,744.869583148,None,140,A,1,2021_Jun_01_1056,GazeFlow,2020.1.2,59.93706991236937,
6,Block511.xls,A,11,5,5,5,11,congruent,Left,Left,Right,65,66,1,blue,2,6,/home/docky/apps/exp/images/35Yi.jpeg,/home/docky/apps/exp/images/66B.jpeg,0,5,5,5,0,4,4,4,745.8713068590005,None,745.8713068590005,None,1,4.309483656999873,745.8713068590005,None,750.214576325001,None,750.214576325001,None,752.717648838001,None,752.717648838001,None,1.451338023000062,754.520193462,None,754.520193462,None,6,1,0.9853996199999528,755.9581410900009,None,755.9581410900009,None,755.9581410900009,None,756.9600116390011,None,1,0.38430956400043215,756.9600116390011,None,58,757.3607944280011,None,140,A,1,2021_Jun_01_1056,GazeFlow,2020.1.2,59.93706991236937,
6,Block511.xls,A,11,6,18,18,11,congruent,Left,Left,Right,65,66,1,yellow,2,6,/home/docky/apps/exp/images/35B.jpeg,/home/docky/apps/exp/images/66Yi.jpeg,0,5,5,5,0,5,5,5,758.3622224910014,None,758.3622224910014,None,1,4.659815876000721,758.3622224910014,None,763.0557211680007,None,763.0557211680007,None,765.558889553,None,765.558889553,None,1.9353371939996578,767.3613736520001,None,767.3613736520001,None,6,1,1.0348622180008533,769.2840990270015,None,769.2840990270015,None,769.2840990270015,None,770.3354946449999,None,1,0.41763271299896587,770.3354946449999,None,60,770.7696874000012,None,140,A,1,2021_Jun_01_1056,GazeFlow,2020.1.2,59.93706991236937,
6,Block511.xls,A,11,7,25,25,11,congruent,Left,Left,Right,69,75,6,yellow,2,6,/home/docky/apps/exp/images/69Yi.jpeg,/home/docky/apps/exp/images/76Y.jpeg,0,5,5,5,0,6,6,6,771.7721194800015,None,771.7721194800015,None,1,5.82878175299993,771.7721194800015,None,777.6342505770008,None,777.6342505770008,None,780.1374511510003,None,780.1374511510003,None,1.333728608000456,781.9359447570005,None,781.9359447570005,None,6,1,0.8516891149993171,783.2611025450005,None,783.2611025450005,None,783.2611025450005,None,784.1290330480006,None,1,0.45098152900027344,784.1290330480006,None,62,784.5965304930014,None,140,A,1,2021_Jun_01_1056,GazeFlow,2020.1.2,59.93706991236937,
6,Block511.xls,A,11,8,3,3,11,congruent,Left,Left,Right,35,38,3,blue,2,6,/home/docky/apps/exp/images/35Bi.jpeg,/home/docky/apps/exp/images/38B.jpeg,0,5,5,5,0,7,7,7,785.5986963880005,None,785.5986963880005,None,1,4.576548983000976,785.5986963880005,None,790.2087250250006,None,790.2087250250006,None,792.7135174580017,None,792.7135174580017,None,1.6847858630007977,794.5167422160011,None,794.5167422160011,None,6,1,0.918593972999588,796.1863274670013,None,796.1863274670013,None,796.1863274670013,None,797.1213312470009,None,1,0.43411132900109806,797.1213312470009,None,64,797.5717935200009,None,140,A,1,2021_Jun_01_1056,GazeFlow,2020.1.2,59.93706991236937,
6,Block511.xls,A,,,,,,,,,,,,,,,,,,0,5,5,5,,,,,,,,,,,,,,,,,,,,,,,,,,,,,,,,,,,,,,,,,,,,140,A,1,2021_Jun_01_1056,GazeFlow,2020.1.2,59.93706991236937,
7,Block508.xls,A,8,1,13,13,11,congruent,Left,Left,Right,76,79,3,blue,2,6,/home/docky/apps/exp/images/76Bi.jpeg,/home/docky/apps/exp/images/79B.jpeg,0,6,6,6,0,0,0,0,820.6513889100006,None,820.6513889100006,None,1,4.315862320998349,820.6513889100006,None,824.995256694001,None,824.995256694001,None,827.5143744500001,None,827.5143744500001,None,1.2836146390000067,829.3163147330015,None,829.3163147330015,None,6,1,0.9513252830001875,830.5864402980005,None,830.5864402980005,None,830.5864402980005,None,831.5544604650004,None,1,0.5520279989996197,831.5544604650004,None,66,832.1226650450008,None,140,A,1,2021_Jun_01_1056,GazeFlow,2020.1.2,59.93706991236937,
7,Block508.xls,A,8,2,21,21,11,congruent,Left,Left,Right,62,65,3,yellow,2,6,/home/docky/apps/exp/images/38B.jpeg,/home/docky/apps/exp/images/35Bi.jpeg,0,6,6,6,0,1,1,1,833.1240342260007,None,833.1240342260007,None,1,4.5263138379996235,833.1240342260007,None,837.683463491001,None,837.683463491001,None,840.189001783001,None,840.189001783001,None,2.3862645589997555,841.9899994490006,None,841.9899994490006,None,6,1,0.9679916179993597,844.3633184910013,None,844.3633184910013,None,844.3633184910013,None,845.3478816930001,None,1,0.5344326889990043,845.3478816930001,None,68,845.8990006130007,None,140,A,1,2021_Jun_01_1056,GazeFlow,2020.1.2,59.93706991236937,
7,Block508.xls,A,8,3,99,39,22,incongruent,Left,Right,Left,79,76,3,blue,2,5,/home/docky/apps/exp/images/79Bi.jpeg,/home/docky/apps/exp/images/76B.jpeg,0,6,6,6,0,2,2,2,846.9012548710016,None,846.9012548710016,None,1,4.575732478999271,846.9012548710016,None,851.5094341650001,None,851.5094341650001,None,854.0157037530007,None,854.0157037530007,None,1.317275534998771,855.8116787200015,None,855.8116787200015,None,5,1,2.6383058940009505,857.1213000510015,None,857.1213000510015,None,857.1213000510015,None,859.7756772560006,None,1,0.6518324000007851,859.7756772560006,None,70,860.4435974700009,None,140,A,1,2021_Jun_01_1056,GazeFlow,2020.1.2,59.93706991236937,
7,Block508.xls,A,8,4,37,37,12,congruent,Right,Right,Left,66,65,1,blue,2,5,/home/docky/apps/exp/images/66Bi.jpeg,/home/docky/apps/exp/images/35Y.jpeg,0,6,6,6,0,3,3,3,861.4463021720003,None,861.4463021720003,None,1,4.7761762169993744,861.4463021720003,None,866.2561684720004,None,866.2561684720004,None,868.7610498049999,None,868.7610498049999,None,2.787350377000621,870.5648685490014,None,870.5648685490014,None,5,1,1.0345359070015547,873.3535897420006,None,873.3535897420006,None,873.3535897420006,None,874.4042821300009,None,1,0.5180851210006949,874.4042821300009,None,72,874.9387538540013,None,140,A,1,2021_Jun_01_1056,GazeFlow,2020.1.2,59.93706991236937,
7,Block508.xls,A,8,5,82,22,21,incongruent,Right,Left,Right,38,39,1,yellow,2,6,/home/docky/apps/exp/images/38Y.jpeg,/home/docky/apps/exp/images/39Yi.jpeg,0,6,6,6,0,4,4,4,875.9409451320007,None,875.9409451320007,None,1,4.660100850000163,875.9409451320007,None,880.6343155949999,None,880.6343155949999,None,883.1389783810009,None,883.1389783810009,None,1.9686952450010722,884.935810455001,None,884.935810455001,None,6,1,0.902249838998614,886.8958315300006,None,886.8958315300006,None,886.8958315300006,None,887.8141445350011,None,1,0.4841071020000527,887.8141445350011,None,74,888.3147690430014,None,140,A,1,2021_Jun_01_1056,GazeFlow,2020.1.2,59.93706991236937,
7,Block508.xls,A,8,6,104,44,22,incongruent,Left,Right,Left,39,38,1,blue,2,5,/home/docky/apps/exp/images/39B.jpeg,/home/docky/apps/exp/images/38Bi.jpeg,0,6,6,6,0,5,5,5,889.3174162200012,None,889.3174162200012,None,1,4.842753905999416,889.3174162200012,None,894.1939524420013,None,894.1939524420013,None,896.6988187220013,None,896.6988187220013,None,1.9189552429998002,898.5001565980001,None,898.5001565980001,None,6,0,0.9851786939998419,900.4055124390015,None,900.4055124390015,None,900.4055124390015,None,901.4067144770015,None,1,0.43438232700100343,901.4067144770015,None,72,901.8576751830005,None,140,A,1,2021_Jun_01_1056,GazeFlow,2020.1.2,59.93706991236937,
7,Block508.xls,A,8,7,39,39,12,congruent,Right,Right,Left,79,73,6,blue,2,5,/home/docky/apps/exp/images/79B.jpeg,/home/docky/apps/exp/images/73Bi.jpeg,0,6,6,6,0,6,6,6,902.8599312790011,None,902.8599312790011,None,1,6.095643365000797,902.8599312790011,None,908.9893678630015,None,908.9893678630015,None,911.4920486910014,None,911.4920486910014,None,1.4845728069994948,913.2951994160012,None,913.2951994160012,None,5,1,1.3196579989999009,914.7667475720009,None,914.7667475720009,None,914.7667475720009,None,916.102474364001,None,1,0.7340577989998565,916.102474364001,None,74,916.8532845150003,None,140,A,1,2021_Jun_01_1056,GazeFlow,2020.1.2,59.93706991236937,
7,Block508.xls,A,8,8,36,36,12,congruent,Right,Right,Left,66,65,1,blue,2,5,/home/docky/apps/exp/images/66B.jpeg,/home/docky/apps/exp/images/35Yi.jpeg,0,6,6,6,0,7,7,7,917.8554007370003,None,917.8554007370003,None,1,7.916548637000233,917.8554007370003,None,925.8053310700016,None,925.8053310700016,None,928.3101756670003,None,928.3101756670003,None,2.1190447629996925,930.1116316380012,None,930.1116316380012,None,5,1,1.0514894830012054,932.2173795940016,None,932.2173795940016,None,932.2173795940016,None,933.2854540320004,None,1,0.5345052669999859,933.2854540320004,None,76,933.8364671850013,None,140,A,1,2021_Jun_01_1056,GazeFlow,2020.1.2,59.93706991236937,
7,Block508.xls,A,,,,,,,,,,,,,,,,,,0,6,6,6,,,,,,,,,,,,,,,,,,,,,,,,,,,,,,,,,,,,,,,,,,,,140,A,1,2021_Jun_01_1056,GazeFlow,2020.1.2,59.93706991236937,
8,Block510.xls,A,10,1,102,42,22,incongruent,Left,Right,Left,83,80,3,blue,2,5,/home/docky/apps/exp/images/83B.jpeg,/home/docky/apps/exp/images/80Bi.jpeg,0,7,7,7,0,0,0,0,958.9522089520015,None,958.9522089520015,None,1,4.868055341999934,958.9522089520015,None,963.8516627110002,None,963.8516627110002,None,966.3674623000006,None,966.3674623000006,None,1.6505925900000875,968.171060517001,None,968.171060517001,None,5,1,1.0684788130001834,969.8070706200015,None,969.8070706200015,None,969.8070706200015,None,970.8922682900011,None,1,0.3837748370006011,970.8922682900011,None,78,971.2922575900011,None,140,A,1,2021_Jun_01_1056,GazeFlow,2020.1.2,59.93706991236937,
8,Block510.xls,A,10,2,114,54,22,incongruent,Left,Right,Left,76,69,7,yellow,2,5,/home/docky/apps/exp/images/76Yi.jpeg,/home/docky/apps/exp/images/69Y.jpeg,0,7,7,7,0,1,1,1,972.295034570001,None,972.295034570001,None,1,4.225540108998757,972.295034570001,None,976.553916068,None,976.553916068,None,979.0622578570001,None,979.0622578570001,None,1.500967842001046,980.854996936001,None,980.854996936001,None,5,1,1.0019659730005515,982.3479994720001,None,982.3479994720001,None,982.3479994720001,None,983.3665199570005,None,1,0.36770459299987124,983.3665199570005,None,80,983.7505351550008,None,140,A,1,2021_Jun_01_1056,GazeFlow,2020.1.2,59.93706991236937,
8,Block510.xls,A,10,3,72,12,21,incongruent,Right,Left,Right,76,79,3,blue,2,6,/home/docky/apps/exp/images/76Bi.jpeg,/home/docky/apps/exp/images/79B.jpeg,0,7,7,7,0,2,2,2,984.7520420560013,None,984.7520420560013,None,1,5.345002203001059,984.7520420560013,None,990.1311194140017,None,990.1311194140017,None,992.635151552,None,992.635151552,None,1.7679984990008961,994.436856413,None,994.436856413,None,6,1,0.8684232880004856,996.1915658830003,None,996.1915658830003,None,996.1915658830003,None,997.0766800710007,None,1,0.5502475220000633,997.0766800710007,None,82,997.6439416860012,None,140,A,1,2021_Jun_01_1056,GazeFlow,2020.1.2,59.93706991236937,
8,Block510.xls,A,10,4,112,52,22,incongruent,Left,Right,Left,75,69,6,yellow,2,5,/home/docky/apps/exp/images/76Y.jpeg,/home/docky/apps/exp/images/69Yi.jpeg,0,7,7,7,0,3,3,3,998.6457366650011,None,998.6457366650011,None,1,4.343051807998563,998.6457366650011,None,1003.0220632330002,None,1003.0220632330002,None,1005.524884683,None,1005.524884683,None,1.6349153680002928,1007.3282531290006,None,1007.3282531290006,None,5,1,1.0345956880009908,1008.9497469050002,None,1008.9497469050002,None,1008.9497469050002,None,1010.0012746480006,None,1,0.4507656740006496,1010.0012746480006,None,84,1010.4683871920006,None,140,A,1,2021_Jun_01_1056,GazeFlow,2020.1.2,59.93706991236937,
8,Block510.xls,A,10,5,17,17,11,congruent,Left,Left,Right,33,35,2,yellow,2,6,/home/docky/apps/exp/images/33Y.jpeg,/home/docky/apps/exp/images/35Yi.jpeg,0,7,7,7,0,4,4,4,1011.4710299590006,None,1011.4710299590006,None,1,5.410891849000109,1011.4710299590006,None,1016.9155054990006,None,1016.9155054990006,None,1019.4203548810001,None,1019.4203548810001,None,1.5345620909993158,1021.2215631409999,None,1021.2215631409999,None,6,1,0.9518394910010102,1022.7431695650012,None,1022.7431695650012,None,1022.7431695650012,None,1023.7113970930004,None,1,0.5507190420012193,1023.7113970930004,None,86,1024.2789001640012,None,140,A,1,2021_Jun_01_1056,GazeFlow,2020.1.2,59.93706991236937,
8,Block510.xls,A,10,6,31,31,12,congruent,Right,Right,Left,19,16,3,blue,2,5,/home/docky/apps/exp/images/19Bi.jpeg,/home/docky/apps/exp/images/16B.jpeg,0,7,7,7,0,5,5,5,1025.280894439,None,1025.280894439,None,1,5.010737205000623,1025.280894439,None,1030.325043633,None,1030.325043633,None,1032.8297967070012,None,1032.8297967070012,None,2.6537829090011655,1034.6314792060002,None,1034.6314792060002,None,5,1,0.9176017390000197,1037.2886178860008,None,1037.2886178860008,None,1037.2886178860008,None,1038.2225590140006,None,1,0.3674800469998445,1038.2225590140006,None,88,1038.6065679660005,None,140,A,1,2021_Jun_01_1056,GazeFlow,2020.1.2,59.93706991236937,
8,Block510.xls,A,10,7,61,1,21,incongruent,Right,Left,Right,16,19,3,blue,2,6,/home/docky/apps/exp/images/16Bi.jpeg,/home/docky/apps/exp/images/19B.jpeg,0,7,7,7,0,6,6,6,1039.6091006160004,None,1039.6091006160004,None,1,3.9078270650006743,1039.6091006160004,None,1043.550600382001,None,1043.550600382001,None,1046.0533124070007,None,1046.0533124070007,None,1.2842051179995906,1047.8522053740016,None,1047.8522053740016,None,6,1,1.085450098000365,1049.1277595760002,None,1049.1277595760002,None,1049.1277595760002,None,1050.229525744,None,1,0.5674165600012202,1050.229525744,None,90,1050.8135512670015,None,140,A,1,2021_Jun_01_1056,GazeFlow,2020.1.2,59.93706991236937,
8,Block510.xls,A,10,8,94,34,22,incongruent,Left,Right,Left,38,35,3,blue,2,5,/home/docky/apps/exp/images/38Bi.jpeg,/home/docky/apps/exp/images/35B.jpeg,0,7,7,7,0,7,7,7,1051.815847549,None,1051.815847549,None,1,4.626151770000433,1051.815847549,None,1056.4768565930008,None,1056.4768565930008,None,1058.9805112660015,None,1058.9805112660015,None,2.5538079119996837,1060.7767496300003,None,1060.7767496300003,None,5,1,2.222164082000745,1063.3368794200014,None,1063.3368794200014,None,1063.3368794200014,None,1065.5759979410013,None,1,0.5682254019993707,1065.5759979410013,None,92,1066.1606119470016,None,140,A,1,2021_Jun_01_1056,GazeFlow,2020.1.2,59.93706991236937,
8,Block510.xls,A,,,,,,,,,,,,,,,,,,0,7,7,7,,,,,,,,,,,,,,,,,,,,,,,,,,,,,,,,,,,,,,,,,,,,140,A,1,2021_Jun_01_1056,GazeFlow,2020.1.2,59.93706991236937,
9,Block507.xls,A,7,1,110,50,22,incongruent,Left,Right,Left,66,65,1,yellow,2,5,/home/docky/apps/exp/images/66Y.jpeg,/home/docky/apps/exp/images/35Bi.jpeg,0,8,8,8,0,0,0,0,1088.7208640320005,None,1088.7208640320005,None,1,5.019802028000413,1088.7208640320005,None,1093.7601703340006,None,1093.7601703340006,None,1096.2864172900008,None,1096.2864172900008,None,1.416980763000538,1098.09007527,None,1098.09007527,None,5,1,1.1190013239993277,1099.4921464790004,None,1099.4921464790004,None,1099.4921464790004,None,1100.627581042001,None,1,0.6178012309992482,1100.627581042001,None,94,1101.2615178750002,None,140,A,1,2021_Jun_01_1056,GazeFlow,2020.1.2,59.93706991236937,
9,Block507.xls,A,7,2,90,30,22,incongruent,Right,Left,Right,16,19,3,blue,2,6,/home/docky/apps/exp/images/16Bi.jpeg,/home/docky/apps/exp/images/19B.jpeg,0,8,8,8,0,1,1,1,1102.2637315090014,None,1102.2637315090014,None,1,4.3924886459990375,1102.2637315090014,None,1106.690838654,None,1106.690838654,None,1109.1950646240002,None,1109.1950646240002,None,1.3005403139995906,1110.994793713,None,1110.994793713,None,6,1,1.0019004570003744,1112.28376364,None,1112.28376364,None,1112.28376364,None,1113.3021216460002,None,1,0.4515390569995361,1113.3021216460002,None,96,1113.7696600060008,None,140,A,1,2021_Jun_01_1056,GazeFlow,2020.1.2,59.93706991236937,
9,Block507.xls,A,7,3,16,16,11,congruent,Left,Left,Right,33,35,2,yellow,2,6,/home/docky/apps/exp/images/33Yi.jpeg,/home/docky/apps/exp/images/35Y.jpeg,0,8,8,8,0,2,2,2,1114.771296291001,None,1114.771296291001,None,1,4.676955491000626,1114.771296291001,None,1119.4812683070013,None,1119.4812683070013,None,1121.9845644920006,None,1121.9845644920006,None,1.70137648400123,1123.7831130330014,None,1123.7831130330014,None,6,1,0.9510982000010699,1125.4759913630005,None,1125.4759913630005,None,1125.4759913630005,None,1126.4436183710004,None,1,0.4011897410000529,1126.4436183710004,None,98,1126.861335691001,None,140,A,1,2021_Jun_01_1056,GazeFlow,2020.1.2,59.93706991236937,
9,Block507.xls,A,7,4,117,57,22,incongruent,Left,Right,Left,77,72,5,yellow,2,5,/home/docky/apps/exp/images/77Y.jpeg,/home/docky/apps/exp/images/72Yi.jpeg,0,8,8,8,0,3,3,3,1127.8632146710006,None,1127.8632146710006,None,1,6.246650130000489,1127.8632146710006,None,1134.1434536790002,None,1134.1434536790002,None,1136.6481582160013,None,1136.6481582160013,None,1.300643456999751,1138.4517292620003,None,1138.4517292620003,None,5,1,0.951304940999762,1139.7370944140002,None,1139.7370944140002,None,1139.7370944140002,None,1140.7051345600012,None,1,0.43421809899882646,1140.7051345600012,None,100,1141.155870781,None,140,A,1,2021_Jun_01_1056,GazeFlow,2020.1.2,59.93706991236937,
9,Block507.xls,A,7,5,53,53,12,congruent,Right,Right,Left,75,69,6,yellow,2,5,/home/docky/apps/exp/images/76Yi.jpeg,/home/docky/apps/exp/images/69Y.jpeg,0,8,8,8,0,4,4,4,1142.1578634720008,None,1142.1578634720008,None,1,4.275743782000063,1142.1578634720008,None,1146.4655700620006,None,1146.4655700620006,None,1148.969759597001,None,1148.969759597001,None,1.300702143998933,1150.7683654890006,None,1150.7683654890006,None,5,1,0.9516558569994231,1152.0608867680003,None,1152.0608867680003,None,1152.0608867680003,None,1153.0293124180007,None,1,0.4678755730001285,1153.0293124180007,None,102,1153.5134834400014,None,140,A,1,2021_Jun_01_1056,GazeFlow,2020.1.2,59.93706991236937,
9,Block507.xls,A,7,6,96,36,22,incongruent,Left,Right,Left,66,65,1,blue,2,5,/home/docky/apps/exp/images/66Bi.jpeg,/home/docky/apps/exp/images/35Y.jpeg,0,8,8,8,0,5,5,5,1154.5151082480006,None,1154.5151082480006,None,1,4.008512066000549,1154.5151082480006,None,1158.5574850810008,None,1158.5574850810008,None,1161.0622727830014,None,1161.0622727830014,None,2.1355008449991146,1162.8586908900015,None,1162.8586908900015,None,5,1,0.8350073769997834,1164.986074034001,None,1164.986074034001,None,1164.986074034001,None,1165.8371154640008,None,1,0.36768585800018627,1165.8371154640008,None,104,1166.2213272690005,None,140,A,1,2021_Jun_01_1056,GazeFlow,2020.1.2,59.93706991236937,
9,Block507.xls,A,7,7,58,58,12,congruent,Right,Right,Left,77,72,5,yellow,2,5,/home/docky/apps/exp/images/77Yi.jpeg,/home/docky/apps/exp/images/72Y.jpeg,0,8,8,8,0,6,6,6,1167.2230119350006,None,1167.2230119350006,None,1,4.610210595999888,1167.2230119350006,None,1171.866397953001,None,1171.866397953001,None,1174.3698387970016,None,1174.3698387970016,None,1.8852164639993134,1176.1732625410004,None,1176.1732625410004,None,5,1,1.9534126649996324,1178.0447582740017,None,1178.0447582740017,None,1178.0447582740017,None,1180.0148165680002,None,1,0.4677180409998982,1180.0148165680002,None,106,1180.4990531080002,None,140,A,1,2021_Jun_01_1056,GazeFlow,2020.1.2,59.93706991236937,
9,Block507.xls,A,7,8,41,41,12,congruent,Right,Right,Left,79,76,3,blue,2,5,/home/docky/apps/exp/images/79Bi.jpeg,/home/docky/apps/exp/images/76B.jpeg,0,8,8,8,0,7,7,7,1181.501425710001,None,1181.501425710001,None,1,4.408651313000519,1181.501425710001,None,1185.9439635620001,None,1185.9439635620001,None,1188.4473425880005,None,1188.4473425880005,None,2.3026433360009833,1190.2522754450001,None,1190.2522754450001,None,5,1,0.9005463949997647,1192.5399474920014,None,1192.5399474920014,None,1192.5399474920014,None,1193.457320470001,None,1,0.4847485560003406,1193.457320470001,None,108,1193.9585110710013,None,140,A,1,2021_Jun_01_1056,GazeFlow,2020.1.2,59.93706991236937,
9,Block507.xls,A,,,,,,,,,,,,,,,,,,0,8,8,8,,,,,,,,,,,,,,,,,,,,,,,,,,,,,,,,,,,,,,,,,,,,140,A,1,2021_Jun_01_1056,GazeFlow,2020.1.2,59.93706991236937,
10,Block515.xls,A,15,1,107,47,22,incongruent,Left,Right,Left,35,33,2,yellow,2,5,/home/docky/apps/exp/images/35Yi.jpeg,/home/docky/apps/exp/images/33Y.jpeg,0,9,9,9,0,0,0,0,1214.5668503120014,None,1214.5668503120014,None,1,4.765170377999311,1214.5668503120014,None,1219.3628117590015,None,1219.3628117590015,None,1221.880278910001,None,1221.880278910001,None,2.3860477589987568,1223.6823530680012,None,1223.6823530680012,None,5,1,1.4687057999999524,1226.0552989220014,None,1226.0552989220014,None,1226.0552989220014,None,1227.5404938890006,None,1,0.4684174459998758,1227.5404938890006,None,110,1228.0245730140014,None,140,A,1,2021_Jun_01_1056,GazeFlow,2020.1.2,59.93706991236937,
10,Block515.xls,A,15,2,55,55,12,congruent,Right,Right,Left,76,69,7,yellow,2,5,/home/docky/apps/exp/images/76Yi.jpeg,/home/docky/apps/exp/images/69Y.jpeg,0,9,9,9,0,1,1,1,1229.0269576210012,None,1229.0269576210012,None,1,4.3259873159986455,1229.0269576210012,None,1233.3860573520014,None,1233.3860573520014,None,1235.8893200750008,None,1235.8893200750008,None,1.2674352970007021,1237.6922941740013,None,1237.6922941740013,None,5,1,0.9849161459987954,1238.9464155710011,None,1238.9464155710011,None,1238.9464155710011,None,1239.9478073110004,None,1,0.4345917009995901,1239.9478073110004,None,112,1240.3986415079999,None,140,A,1,2021_Jun_01_1056,GazeFlow,2020.1.2,59.93706991236937,
10,Block515.xls,A,15,3,75,15,21,incongruent,Right,Left,Right,33,35,2,yellow,2,6,/home/docky/apps/exp/images/33Yi.jpeg,/home/docky/apps/exp/images/35Y.jpeg,0,9,9,9,0,2,2,2,1241.4013183400002,None,1241.4013183400002,None,1,4.0412286360005965,1241.4013183400002,None,1245.4760464680003,None,1245.4760464680003,None,1247.9788902790006,None,1247.9788902790006,None,1.16727279099905,1249.7775045580001,None,1249.7775045580001,None,6,1,1.0516082209996966,1250.9363966100009,None,1250.9363966100009,None,1250.9363966100009,None,1252.0049289010003,None,1,0.4171003949995793,1252.0049289010003,None,114,1252.438780427001,None,140,A,1,2021_Jun_01_1056,GazeFlow,2020.1.2,59.93706991236937,
10,Block515.xls,A,15,4,62,2,21,incongruent,Right,Left,Right,35,38,3,blue,2,6,/home/docky/apps/exp/images/35Bi.jpeg,/home/docky/apps/exp/images/38B.jpeg,0,9,9,9,0,3,3,3,1253.4408557720017,None,1253.4408557720017,None,1,4.042247692999808,1253.4408557720017,None,1257.5163488450016,None,1257.5163488450016,None,1260.0192040870006,None,1260.0192040870006,None,1.451169330999619,1261.818969932001,None,1261.818969932001,None,6,1,0.969059101998937,1263.2602555970007,None,1263.2602555970007,None,1263.2602555970007,None,1264.245436344001,None,1,0.33415454199894157,1264.245436344001,None,116,1264.5960828430016,None,140,A,1,2021_Jun_01_1056,GazeFlow,2020.1.2,59.93706991236937,
10,Block515.xls,A,15,5,100,40,22,incongruent,Left,Right,Left,79,76,3,blue,2,5,/home/docky/apps/exp/images/79Bi.jpeg,/home/docky/apps/exp/images/76B.jpeg,0,9,9,9,0,4,4,4,1265.5975923660008,None,1265.5975923660008,None,1,6.196013746000972,1265.5975923660008,None,1271.82757254,None,1271.82757254,None,1274.332340074001,None,1274.332340074001,None,1.3677723830005561,1276.133405419001,None,1276.133405419001,None,5,1,0.9679052920000686,1277.4878698339999,None,1277.4878698339999,None,1277.4878698339999,None,1278.4733267240008,None,1,0.4679156439997314,1278.4733267240008,None,118,1278.9572575090006,None,140,A,1,2021_Jun_01_1056,GazeFlow,2020.1.2,59.93706991236937,
10,Block515.xls,A,15,6,108,48,22,incongruent,Left,Right,Left,39,38,1,yellow,2,5,/home/docky/apps/exp/images/39Y.jpeg,/home/docky/apps/exp/images/38Yi.jpeg,0,9,9,9,0,5,5,5,1279.9587462079999,None,1279.9587462079999,None,1,4.409257940000316,1279.9587462079999,None,1284.4020276890005,None,1284.4020276890005,None,1286.9054536310014,None,1286.9054536310014,None,1.0830707179993624,1288.710406661001,None,1288.710406661001,None,6,0,0.901256163000653,1289.7785081800012,None,1289.7785081800012,None,1289.7785081800012,None,1290.696278323001,None,1,0.4014739600006578,1290.696278323001,None,116,1291.1141888360016,None,140,A,1,2021_Jun_01_1056,GazeFlow,2020.1.2,59.93706991236937,
10,Block515.xls,A,15,7,59,59,12,congruent,Right,Right,Left,80,79,1,yellow,2,5,/home/docky/apps/exp/images/80Y.jpeg,/home/docky/apps/exp/images/79Yi.jpeg,0,9,9,9,0,6,6,6,1292.1159888410002,None,1292.1159888410002,None,1,4.810283332999461,1292.1159888410002,None,1296.959514735001,None,1296.959514735001,None,1299.4643450510011,None,1299.4643450510011,None,1.4673771170000691,1301.266026026,None,1301.266026026,None,5,1,0.9518301770003745,1302.7204288450012,None,1302.7204288450012,None,1302.7204288450012,None,1303.688629436001,None,1,0.40139465299944277,1303.688629436001,None,118,1304.106211669001,None,140,A,1,2021_Jun_01_1056,GazeFlow,2020.1.2,59.93706991236937,
10,Block515.xls,A,15,8,8,8,11,congruent,Left,Left,Right,38,39,1,blue,2,6,/home/docky/apps/exp/images/38B.jpeg,/home/docky/apps/exp/images/39Bi.jpeg,0,9,9,9,0,7,7,7,1305.107706570001,None,1305.107706570001,None,1,5.895980397999665,1305.107706570001,None,1311.036756077001,None,1311.036756077001,None,1313.5397046590006,None,1313.5397046590006,None,1.6014236730006814,1315.343757535,None,1315.343757535,None,6,1,0.968904322000526,1316.9312852820003,None,1316.9312852820003,None,1316.9312852820003,None,1317.9163351740008,None,1,0.45050378300038574,1317.9163351740008,None,120,1318.3830926190003,None,140,A,1,2021_Jun_01_1056,GazeFlow,2020.1.2,59.93706991236937,
10,Block515.xls,A,,,,,,,,,,,,,,,,,,0,9,9,9,,,,,,,,,,,,,,,,,,,,,,,,,,,,,,,,,,,,,,,,,,,,140,A,1,2021_Jun_01_1056,GazeFlow,2020.1.2,59.93706991236937,
11,Block512.xls,A,12,1,30,30,11,congruent,Left,Left,Right,79,82,3,yellow,2,6,/home/docky/apps/exp/images/79Yi.jpeg,/home/docky/apps/exp/images/80Y.jpeg,0,10,10,10,0,0,0,0,1339.2408909680016,None,1339.2408909680016,None,1,4.8336509999990085,1339.2408909680016,None,1344.102340765001,None,1344.102340765001,None,1346.6213794930009,None,1346.6213794930009,None,1.4839022099986323,1348.4243802600013,None,1348.4243802600013,None,6,1,0.9182845890009048,1349.895336685,None,1349.895336685,None,1349.895336685,None,1350.8301550610013,None,1,0.5510768849999295,1350.8301550610013,None,122,1351.3975423810007,None,140,A,1,2021_Jun_01_1056,GazeFlow,2020.1.2,59.93706991236937,
11,Block512.xls,A,12,2,115,55,22,incongruent,Left,Right,Left,76,69,7,yellow,2,5,/home/docky/apps/exp/images/76Yi.jpeg,/home/docky/apps/exp/images/69Y.jpeg,0,10,10,10,0,1,1,1,1352.3995197640015,None,1352.3995197640015,None,1,4.409380766999675,1352.3995197640015,None,1356.8407926970012,None,1356.8407926970012,None,1359.3472227390012,None,1359.3472227390012,None,1.0671570029990107,1361.1484666659999,None,1361.1484666659999,None,5,1,1.0347866989995964,1362.2025529990005,None,1362.2025529990005,None,1362.2025529990005,None,1363.2542923700003,None,1,0.40200032599932456,1363.2542923700003,None,124,1363.6718181650012,None,140,A,1,2021_Jun_01_1056,GazeFlow,2020.1.2,59.93706991236937,
11,Block512.xls,A,12,3,66,6,21,incongruent,Right,Left,Right,38,39,1,blue,2,6,/home/docky/apps/exp/images/38B.jpeg,/home/docky/apps/exp/images/39Bi.jpeg,0,10,10,10,0,2,2,2,1364.673549901001,None,1364.673549901001,None,1,3.6747484220013575,1364.673549901001,None,1368.3816226899999,None,1368.3816226899999,None,1370.8849923450016,None,1370.8849923450016,None,1.5346039020005264,1372.6896264440002,None,1372.6896264440002,None,6,1,1.302100500999586,1374.2090906590001,None,1374.2090906590001,None,1374.2090906590001,None,1375.5274931960012,None,1,0.4008423710001807,1375.5274931960012,None,126,1375.9450959530004,None,140,A,1,2021_Jun_01_1056,GazeFlow,2020.1.2,59.93706991236937,
11,Block512.xls,A,12,4,35,35,12,congruent,Right,Right,Left,66,65,1,blue,2,5,/home/docky/apps/exp/images/66B.jpeg,/home/docky/apps/exp/images/35Yi.jpeg,0,10,10,10,0,3,3,3,1376.947585078,None,1376.947585078,None,1,3.5911353699993924,1376.947585078,None,1380.5721750660014,None,1380.5721750660014,None,1383.076642633001,None,1383.076642633001,None,1.2007929859992146,1384.8728413810004,None,1384.8728413810004,None,5,1,0.9011597169992456,1386.0656732370007,None,1386.0656732370007,None,1386.0656732370007,None,1386.9835069600013,None,1,0.4176640679997945,1386.9835069600013,None,128,1387.4176209310008,None,140,A,1,2021_Jun_01_1056,GazeFlow,2020.1.2,59.93706991236937,
11,Block512.xls,A,12,5,40,40,12,congruent,Right,Right,Left,79,76,3,blue,2,5,/home/docky/apps/exp/images/79Bi.jpeg,/home/docky/apps/exp/images/76B.jpeg,0,10,10,10,0,4,4,4,1388.4196908490012,None,1388.4196908490012,None,1,4.5259594620001735,1388.4196908490012,None,1392.9805690850008,None,1392.9805690850008,None,1395.4829137460001,None,1395.4829137460001,None,1.5177956129991799,1397.2857173380016,None,1397.2857173380016,None,5,1,0.9346365130004415,1398.7903817250008,None,1398.7903817250008,None,1398.7903817250008,None,1399.7416626499999,None,1,0.35082739900099114,1399.7416626499999,None,130,1400.1091356000015,None,140,A,1,2021_Jun_01_1056,GazeFlow,2020.1.2,59.93706991236937,
11,Block512.xls,A,12,6,64,4,21,incongruent,Right,Left,Right,65,66,1,blue,2,6,/home/docky/apps/exp/images/35Yi.jpeg,/home/docky/apps/exp/images/66B.jpeg,0,10,10,10,0,5,5,5,1401.110853055001,None,1401.110853055001,None,1,3.4907272910004394,1401.110853055001,None,1404.6352262620003,None,1404.6352262620003,None,1407.1231198500009,None,1407.1231198500009,None,1.183913634999044,1408.9368494380014,None,1408.9368494380014,None,6,1,0.9513010270002269,1410.11231486,None,1410.11231486,None,1410.11231486,None,1411.0803824840004,None,1,0.36784143099976063,1411.0803824840004,None,132,1411.4647445950013,None,140,A,1,2021_Jun_01_1056,GazeFlow,2020.1.2,59.93706991236937,
11,Block512.xls,A,12,7,12,12,11,congruent,Left,Left,Right,76,79,3,blue,2,6,/home/docky/apps/exp/images/76B.jpeg,/home/docky/apps/exp/images/79Bi.jpeg,0,10,10,10,0,6,6,6,1412.4664179850006,None,1412.4664179850006,None,1,3.891353892000552,1412.4664179850006,None,1416.391779253001,None,1416.391779253001,None,1418.8949278340006,None,1418.8949278340006,None,2.0190077949991974,1420.6982556740004,None,1420.6982556740004,None,5,0,0.8688379520008311,1422.7033024800003,None,1422.7033024800003,None,1422.7033024800003,None,1423.5882288130015,None,1,0.3335648399988713,1423.5882288130015,None,130,1423.9384849580001,None,140,A,1,2021_Jun_01_1056,GazeFlow,2020.1.2,59.93706991236937,
11,Block512.xls,A,12,8,49,49,12,congruent,Right,Right,Left,39,38,1,yellow,2,5,/home/docky/apps/exp/images/39Y.jpeg,/home/docky/apps/exp/images/38Yi.jpeg,0,10,10,10,0,7,7,7,1424.9407786520005,None,1424.9407786520005,None,1,4.342582302000665,1424.9407786520005,None,1429.3169130290007,None,1429.3169130290007,None,1431.8196830740017,None,1431.8196830740017,None,1.1502505039989046,1433.6229674920014,None,1433.6229674920014,None,6,0,0.9681384729992715,1434.760022601,None,1434.760022601,None,1434.760022601,None,1435.744483765,None,1,0.3850055319999228,1435.744483765,None,128,1436.1459202510014,None,140,A,1,2021_Jun_01_1056,GazeFlow,2020.1.2,59.93706991236937,
11,Block512.xls,A,,,,,,,,,,,,,,,,,,0,10,10,10,,,,,,,,,,,,,,,,,,,,,,,,,,,,,,,,,,,,,,,,,,,,140,A,1,2021_Jun_01_1056,GazeFlow,2020.1.2,59.93706991236937,
12,Block503.xls,A,3,1,22,22,11,congruent,Left,Left,Right,62,65,3,yellow,2,6,/home/docky/apps/exp/images/38Bi.jpeg,/home/docky/apps/exp/images/35B.jpeg,0,11,11,11,0,0,0,0,1459.4932413410006,None,1459.4932413410006,None,1,5.133711963999303,1459.4932413410006,None,1464.6556841460006,None,1464.6556841460006,None,1467.171774403001,None,1467.171774403001,None,2.1016692659995897,1468.9730923030002,None,1468.9730923030002,None,6,1,0.9680166320013086,1471.0638808080002,None,1471.0638808080002,None,1471.0638808080002,None,1472.0485311410011,None,1,0.3844207740003185,1472.0485311410011,None,130,1472.4494428510006,None,140,A,1,2021_Jun_01_1056,GazeFlow,2020.1.2,59.93706991236937,
12,Block503.xls,A,3,2,65,5,21,incongruent,Right,Left,Right,65,66,1,blue,2,6,/home/docky/apps/exp/images/35Y.jpeg,/home/docky/apps/exp/images/66Bi.jpeg,0,11,11,11,0,1,1,1,1473.451360051,None,1473.451360051,None,1,4.476059463000638,1473.451360051,None,1477.9613286190015,None,1477.9613286190015,None,1480.4644431710003,None,1480.4644431710003,None,1.1835413170010725,1482.2679448840008,None,1482.2679448840008,None,5,0,1.1186903990001156,1483.4381861330003,None,1483.4381861330003,None,1483.4381861330003,None,1484.5734182730012,None,1,0.33421656400059874,1484.5734182730012,None,128,1484.9240261470004,None,140,A,1,2021_Jun_01_1056,GazeFlow,2020.1.2,59.93706991236937,
12,Block503.xls,A,3,3,76,16,21,incongruent,Right,Left,Right,33,35,2,yellow,2,6,/home/docky/apps/exp/images/33Y.jpeg,/home/docky/apps/exp/images/35Yi.jpeg,0,11,11,11,0,2,2,2,1485.9255238770002,None,1485.9255238770002,None,1,4.17601521799952,1485.9255238770002,None,1490.1382869510016,None,1490.1382869510016,None,1492.639537481,None,1492.639537481,None,1.4012497450003139,1494.4414725880015,None,1494.4414725880015,None,6,1,1.1192374430011114,1495.828512037,None,1495.828512037,None,1495.828512037,None,1496.964223117,None,1,0.35088038700087054,1496.964223117,None,130,1497.3314924430015,None,140,A,1,2021_Jun_01_1056,GazeFlow,2020.1.2,59.93706991236937,
12,Block503.xls,A,3,4,29,29,11,congruent,Left,Left,Right,79,82,3,yellow,2,6,/home/docky/apps/exp/images/79Y.jpeg,/home/docky/apps/exp/images/80Yi.jpeg,0,11,11,11,0,3,3,3,1498.333205416,None,1498.333205416,None,1,3.9583475299987185,1498.333205416,None,1502.325335163001,None,1502.325335163001,None,1504.8281829320003,None,1504.8281829320003,None,1.9687074459998257,1506.63100046,None,1506.63100046,None,6,1,0.9679547889991227,1508.5868543650013,None,1508.5868543650013,None,1508.5868543650013,None,1509.5713563440004,None,1,0.3509059090010851,1509.5713563440004,None,132,1509.9389387890005,None,140,A,1,2021_Jun_01_1056,GazeFlow,2020.1.2,59.93706991236937,
12,Block503.xls,A,3,5,103,43,22,incongruent,Left,Right,Left,39,38,1,blue,2,5,/home/docky/apps/exp/images/39Bi.jpeg,/home/docky/apps/exp/images/38B.jpeg,0,11,11,11,0,4,4,4,1510.9413031640015,None,1510.9413031640015,None,1,5.1769793090006715,1510.9413031640015,None,1516.1520246280015,None,1516.1520246280015,None,1518.6569151480016,None,1518.6569151480016,None,3.271769655000753,1520.4585760870013,None,1520.4585760870013,None,6,0,0.9358551339992118,1523.7317043460007,None,1523.7317043460007,None,1523.7317043460007,None,1524.6841600840016,None,1,0.35090991300057794,1524.6841600840016,None,130,1525.0514548690007,None,140,A,1,2021_Jun_01_1056,GazeFlow,2020.1.2,59.93706991236937,
12,Block503.xls,A,3,6,47,47,12,congruent,Right,Right,Left,35,33,2,yellow,2,5,/home/docky/apps/exp/images/35Yi.jpeg,/home/docky/apps/exp/images/33Y.jpeg,0,11,11,11,0,5,5,5,1526.0537770710016,None,1526.0537770710016,None,1,4.225608446999104,1526.0537770710016,None,1530.3129667510002,None,1530.3129667510002,None,1532.8163726120001,None,1532.8163726120001,None,2.720393604000492,1534.621516565001,None,1534.621516565001,None,6,0,0.967558911001106,1537.343364421,None,1537.343364421,None,1537.343364421,None,1538.3271560780013,None,1,0.3841367140012153,1538.3271560780013,None,128,1538.7279331980008,None,140,A,1,2021_Jun_01_1056,GazeFlow,2020.1.2,59.93706991236937,
12,Block503.xls,A,3,7,20,20,11,congruent,Left,Left,Right,65,66,1,yellow,2,6,/home/docky/apps/exp/images/35Bi.jpeg,/home/docky/apps/exp/images/66Y.jpeg,0,11,11,11,0,6,6,6,1539.7306497640002,None,1539.7306497640002,None,1,4.191967808999834,1539.7306497640002,None,1543.9560661240012,None,1543.9560661240012,None,1546.4635711770006,None,1546.4635711770006,None,2.319493650000368,1548.2620341420006,None,1548.2620341420006,None,5,0,0.8677093790010986,1550.5685556490007,None,1550.5685556490007,None,1550.5685556490007,None,1551.4529112610016,None,1,0.33410459799961245,1551.4529112610016,None,126,1551.8035276520004,None,140,A,1,2021_Jun_01_1056,GazeFlow,2020.1.2,59.93706991236937,
12,Block503.xls,A,3,8,27,27,11,congruent,Left,Left,Right,72,77,5,yellow,2,6,/home/docky/apps/exp/images/72Yi.jpeg,/home/docky/apps/exp/images/77Y.jpeg,0,11,11,11,0,7,7,7,1552.8055921710002,None,1552.8055921710002,None,1,5.678376869000203,1552.8055921710002,None,1558.5177501080016,None,1558.5177501080016,None,1561.0210960650002,None,1561.0210960650002,None,1.4174340989993652,1562.8189933820013,None,1562.8189933820013,None,6,1,1.0690984550001303,1564.2282860070009,None,1564.2282860070009,None,1564.2282860070009,None,1565.3135253730015,None,1,0.4013304429990967,1565.3135253730015,None,128,1565.7311168310007,None,140,A,1,2021_Jun_01_1056,GazeFlow,2020.1.2,59.93706991236937,
12,Block503.xls,A,,,,,,,,,,,,,,,,,,0,11,11,11,,,,,,,,,,,,,,,,,,,,,,,,,,,,,,,,,,,,,,,,,,,,140,A,1,2021_Jun_01_1056,GazeFlow,2020.1.2,59.93706991236937,
13,Block501.xls,A,1,1,54,54,12,congruent,Right,Right,Left,75,69,6,yellow,2,5,/home/docky/apps/exp/images/76Y.jpeg,/home/docky/apps/exp/images/69Yi.jpeg,0,12,12,12,0,0,0,0,1587.222872376,None,1587.222872376,None,1,4.564797246001035,1587.222872376,None,1591.813364912001,None,1591.813364912001,None,1594.3356263840014,None,1594.3356263840014,None,1.1161057689987501,1596.1408536240015,None,1596.1408536240015,None,5,1,0.9345274570005131,1597.2425036640016,None,1597.2425036640016,None,1597.2425036640016,None,1598.1936761670004,None,1,0.48474401400017086,1598.1936761670004,None,130,1598.694606354,None,140,A,1,2021_Jun_01_1056,GazeFlow,2020.1.2,59.93706991236937,
13,Block501.xls,A,1,2,70,10,21,incongruent,Right,Left,Right,73,76,3,blue,2,6,/home/docky/apps/exp/images/73Bi.jpeg,/home/docky/apps/exp/images/76B.jpeg,0,12,12,12,0,1,1,1,1599.6967424480008,None,1599.6967424480008,None,1,6.379882249999355,1599.6967424480008,None,1606.1156975700014,None,1606.1156975700014,None,1608.61347027,None,1608.61347027,None,2.2357243440001184,1610.4170971970016,None,1610.4170971970016,None,6,1,0.9012946060011018,1612.6390558940002,None,1612.6390558940002,None,1612.6390558940002,None,1613.5569434380013,None,1,0.38447409499895,1613.5569434380013,None,132,1613.9574717450014,None,140,A,1,2021_Jun_01_1056,GazeFlow,2020.1.2,59.93706991236937,
13,Block501.xls,A,1,3,84,24,21,incongruent,Right,Left,Right,69,76,7,yellow,2,6,/home/docky/apps/exp/images/69Yi.jpeg,/home/docky/apps/exp/images/76Y.jpeg,0,12,12,12,0,2,2,2,1614.9597193010013,None,1614.9597193010013,None,1,4.042224893000821,1614.9597193010013,None,1619.0349966590002,None,1619.0349966590002,None,1621.5378058260012,None,1621.5378058260012,None,1.8183804179989238,1623.341980426001,None,1623.341980426001,None,6,1,0.9353803939993668,1625.1466167520011,None,1625.1466167520011,None,1625.1466167520011,None,1626.0983648890015,None,1,0.41739229100130615,1626.0983648890015,None,134,1626.5320444879999,None,140,A,1,2021_Jun_01_1056,GazeFlow,2020.1.2,59.93706991236937,
13,Block501.xls,A,1,4,26,26,11,congruent,Left,Left,Right,69,75,6,yellow,2,6,/home/docky/apps/exp/images/69Y.jpeg,/home/docky/apps/exp/images/76Yi.jpeg,0,12,12,12,0,3,3,3,1627.5341043839999,None,1627.5341043839999,None,1,4.325993742999344,1627.5341043839999,None,1631.8934870930007,None,1631.8934870930007,None,1634.3982200260016,None,1634.3982200260016,None,1.5685925260004296,1636.199432106001,None,1636.199432106001,None,6,1,1.0358632750012475,1637.7543616790008,None,1637.7543616790008,None,1637.7543616790008,None,1638.8062837470006,None,1,0.4004315020010836,1638.8062837470006,None,136,1639.2234430120006,None,140,A,1,2021_Jun_01_1056,GazeFlow,2020.1.2,59.93706991236937,
13,Block501.xls,A,1,5,97,37,22,incongruent,Left,Right,Left,79,73,6,blue,2,5,/home/docky/apps/exp/images/79B.jpeg,/home/docky/apps/exp/images/73Bi.jpeg,0,12,12,12,0,4,4,4,1640.2252394670013,None,1640.2252394670013,None,1,4.843274781000218,1640.2252394670013,None,1645.102793729,None,1645.102793729,None,1647.607310771,None,1647.607310771,None,1.267118882999057,1649.409570197,None,1649.409570197,None,5,1,1.185965225999098,1650.6627101700014,None,1650.6627101700014,None,1650.6627101700014,None,1651.865029687,None,1,0.36761149099947943,1651.865029687,None,138,1652.2490595870004,None,140,A,1,2021_Jun_01_1056,GazeFlow,2020.1.2,59.93706991236937,
13,Block501.xls,A,1,6,98,38,22,incongruent,Left,Right,Left,79,73,6,blue,2,5,/home/docky/apps/exp/images/79B.jpeg,/home/docky/apps/exp/images/73Bi.jpeg,0,12,12,12,0,5,5,5,1653.2505906690003,None,1653.2505906690003,None,1,4.192215503000625,1653.2505906690003,None,1657.4766367420016,None,1657.4766367420016,None,1659.9793623720016,None,1659.9793623720016,None,1.551137798000127,1661.7775599040015,None,1661.7775599040015,None,5,1,0.8852577309990011,1663.3207029610003,None,1663.3207029610003,None,1663.3207029610003,None,1664.222317924001,None,1,0.38432972699956736,1664.222317924001,None,140,1664.623138817,None,140,A,1,2021_Jun_01_1056,GazeFlow,2020.1.2,59.93706991236937,
13,Block501.xls,A,1,7,77,17,21,incongruent,Right,Left,Right,65,66,1,yellow,2,6,/home/docky/apps/exp/images/35B.jpeg,/home/docky/apps/exp/images/66Yi.jpeg,0,12,12,12,0,6,6,6,1665.6243868970014,None,1665.6243868970014,None,1,4.810823795000033,1665.6243868970014,None,1670.4684490060008,None,1670.4684490060008,None,1672.9714630770013,None,1672.9714630770013,None,3.1215130960008537,1674.7688442020008,None,1674.7688442020008,None,5,0,0.9191301060000114,1677.8979349370002,None,1677.8979349370002,None,1677.8979349370002,None,1678.8336332120016,None,1,0.3671694099994056,1678.8336332120016,None,138,1679.2177102670012,None,140,A,1,2021_Jun_01_1056,GazeFlow,2020.1.2,59.93706991236937,
13,Block501.xls,A,1,8,50,50,12,congruent,Right,Right,Left,66,65,1,yellow,2,5,/home/docky/apps/exp/images/66Y.jpeg,/home/docky/apps/exp/images/35Bi.jpeg,0,12,12,12,0,7,7,7,1680.2201214330016,None,1680.2201214330016,None,1,5.144034342998566,1680.2201214330016,None,1685.402548887001,None,1685.402548887001,None,1687.9008675920013,None,1687.9008675920013,None,1.5847047360002762,1689.7041498610015,None,1689.7041498610015,None,5,1,1.2192195410007116,1691.275204001,None,1691.275204001,None,1691.275204001,None,1692.5106740810006,None,1,0.33375829699980386,1692.5106740810006,None,140,1692.8608253940001,None,140,A,1,2021_Jun_01_1056,GazeFlow,2020.1.2,59.93706991236937,
13,Block501.xls,A,,,,,,,,,,,,,,,,,,0,12,12,12,,,,,,,,,,,,,,,,,,,,,,,,,,,,,,,,,,,,,,,,,,,,140,A,1,2021_Jun_01_1056,GazeFlow,2020.1.2,59.93706991236937,
14,Block513.xls,A,13,1,32,32,12,congruent,Right,Right,Left,19,16,3,blue,2,5,/home/docky/apps/exp/images/19B.jpeg,/home/docky/apps/exp/images/16Bi.jpeg,0,13,13,13,0,0,0,0,1713.1007061340006,None,1713.1007061340006,None,1,4.233490374999747,1713.1007061340006,None,1717.362177805,None,1717.362177805,None,1719.8807945000008,None,1719.8807945000008,None,1.7507655949993932,1721.684626661001,None,1721.684626661001,None,5,1,0.8509508779989119,1723.4209630960013,None,1723.4209630960013,None,1723.4209630960013,None,1724.2889441650004,None,1,0.3009432540002308,1724.2889441650004,None,142,1724.605796062,None,140,A,1,2021_Jun_01_1056,GazeFlow,2020.1.2,59.93706991236937,
14,Block513.xls,A,13,2,81,21,21,incongruent,Right,Left,Right,38,39,1,yellow,2,6,/home/docky/apps/exp/images/38Yi.jpeg,/home/docky/apps/exp/images/39Y.jpeg,0,13,13,13,0,1,1,1,1725.607992835001,None,1725.607992835001,None,1,3.9916250099995523,1725.607992835001,None,1729.6334194070005,None,1729.6334194070005,None,1732.136783793001,None,1732.136783793001,None,2.3029476680003427,1733.9353732960008,None,1733.9353732960008,None,6,1,0.8837414930003433,1736.2299778590004,None,1736.2299778590004,None,1736.2299778590004,None,1737.1302475580014,None,1,0.3504330200012191,1737.1302475580014,None,144,1737.497670363,None,140,A,1,2021_Jun_01_1056,GazeFlow,2020.1.2,59.93706991236937,
14,Block513.xls,A,13,3,92,32,22,incongruent,Left,Right,Left,19,16,3,blue,2,5,/home/docky/apps/exp/images/19B.jpeg,/home/docky/apps/exp/images/16Bi.jpeg,0,13,13,13,0,2,2,2,1738.4997458860016,None,1738.4997458860016,None,1,4.743191989000479,1738.4997458860016,None,1743.2765671040015,None,1743.2765671040015,None,1745.7799970670003,None,1745.7799970670003,None,2.653662227001405,1747.5829917840001,None,1747.5829917840001,None,5,1,0.8351597050004784,1750.2388776710013,None,1750.2388776710013,None,1750.2388776710013,None,1751.0910051280007,None,1,0.28364678000070853,1751.0910051280007,None,146,1751.3912075110002,None,140,A,1,2021_Jun_01_1056,GazeFlow,2020.1.2,59.93706991236937,
14,Block513.xls,A,13,4,6,6,11,congruent,Left,Left,Right,65,66,1,blue,2,6,/home/docky/apps/exp/images/35Y.jpeg,/home/docky/apps/exp/images/66Bi.jpeg,0,13,13,13,0,3,3,3,1752.3931602070006,None,1752.3931602070006,None,1,4.459909335999328,1752.3931602070006,None,1756.8865109360013,None,1756.8865109360013,None,1759.391253971,None,1759.391253971,None,2.369760273000793,1761.1924582650008,None,1761.1924582650008,None,6,1,0.833513221999965,1763.5495431380004,None,1763.5495431380004,None,1763.5495431380004,None,1764.3998969310014,None,1,0.36753370000042196,1764.3998969310014,None,148,1764.783887073001,None,140,A,1,2021_Jun_01_1056,GazeFlow,2020.1.2,59.93706991236937,
14,Block513.xls,A,13,5,67,7,21,incongruent,Right,Left,Right,38,39,1,blue,2,6,/home/docky/apps/exp/images/38Bi.jpeg,/home/docky/apps/exp/images/39B.jpeg,0,13,13,13,0,4,4,4,1765.7858653190015,None,1765.7858653190015,None,1,3.7914520720005385,1765.7858653190015,None,1769.608993912001,None,1769.608993912001,None,1772.1144679420013,None,1772.1144679420013,None,1.8182119789998978,1773.9115872680013,None,1773.9115872680013,None,6,1,0.8854164740005217,1775.7225566080015,None,1775.7225566080015,None,1775.7225566080015,None,1776.6241072170014,None,1,0.40013802199973725,1776.6241072170014,None,150,1777.0410944370014,None,140,A,1,2021_Jun_01_1056,GazeFlow,2020.1.2,59.93706991236937,
14,Block513.xls,A,13,6,111,51,22,incongruent,Left,Right,Left,66,65,1,yellow,2,5,/home/docky/apps/exp/images/66Yi.jpeg,/home/docky/apps/exp/images/35B.jpeg,0,13,13,13,0,5,5,5,1778.0430452110013,None,1778.0430452110013,None,1,3.725019692999922,1778.0430452110013,None,1781.8016680600012,None,1781.8016680600012,None,1784.3063116410012,None,1784.3063116410012,None,2.185681470000418,1786.107653205001,None,1786.107653205001,None,5,1,2.153683174001344,1788.2803289070016,None,1788.2803289070016,None,1788.2803289070016,None,1790.4505750410008,None,1,0.5178104879996681,1790.4505750410008,None,152,1790.985021022001,None,140,A,1,2021_Jun_01_1056,GazeFlow,2020.1.2,59.93706991236937,
14,Block513.xls,A,13,7,88,28,21,incongruent,Right,Left,Right,79,82,3,yellow,2,6,/home/docky/apps/exp/images/79Y.jpeg,/home/docky/apps/exp/images/80Yi.jpeg,0,13,13,13,0,6,6,6,1791.9872746290002,None,1791.9872746290002,None,1,3.7241982390005433,1791.9872746290002,None,1795.7474680310006,None,1795.7474680310006,None,1798.2501417870008,None,1798.2501417870008,None,1.4009639479991165,1800.0514540930017,None,1800.0514540930017,None,5,0,0.9686311130008107,1801.4391243030004,None,1801.4391243030004,None,1801.4391243030004,None,1802.4241085170015,None,1,0.36765652900066925,1802.4241085170015,None,150,1802.8082189720008,None,140,A,1,2021_Jun_01_1056,GazeFlow,2020.1.2,59.93706991236937,
14,Block513.xls,A,13,8,14,14,11,congruent,Left,Left,Right,80,83,3,blue,2,6,/home/docky/apps/exp/images/80B.jpeg,/home/docky/apps/exp/images/83Bi.jpeg,0,13,13,13,0,7,7,7,1803.8097550420007,None,1803.8097550420007,None,1,4.058632656000555,1803.8097550420007,None,1807.9022563610015,None,1807.9022563610015,None,1810.4068907420005,None,1810.4068907420005,None,2.0524611649998405,1812.2084095050013,None,1812.2084095050013,None,6,1,0.8844222009993246,1814.2473058840005,None,1814.2473058840005,None,1814.2473058840005,None,1815.1482546930001,None,1,0.384499247000349,1815.1482546930001,None,152,1815.5492654320005,None,140,A,1,2021_Jun_01_1056,GazeFlow,2020.1.2,59.93706991236937,
14,Block513.xls,A,,,,,,,,,,,,,,,,,,0,13,13,13,,,,,,,,,,,,,,,,,,,,,,,,,,,,,,,,,,,,,,,,,,,,140,A,1,2021_Jun_01_1056,GazeFlow,2020.1.2,59.93706991236937,
15,Block514.xls,A,14,1,113,53,22,incongruent,Left,Right,Left,75,69,6,yellow,2,5,/home/docky/apps/exp/images/76Y.jpeg,/home/docky/apps/exp/images/69Yi.jpeg,0,14,14,14,0,0,0,0,1834.7703324900012,None,1834.7703324900012,None,1,5.5281087620005565,1834.7703324900012,None,1840.3261501940015,None,1840.3261501940015,None,1842.8365065010003,None,1842.8365065010003,None,1.233358944000429,1844.6387336430016,None,1844.6387336430016,None,5,1,0.9179850189993886,1845.8587778150013,None,1845.8587778150013,None,1845.8587778150013,None,1846.7935665960013,None,1,0.4514378139992914,1846.7935665960013,None,154,1847.2611135790012,None,140,A,1,2021_Jun_01_1056,GazeFlow,2020.1.2,59.93706991236937,
15,Block514.xls,A,14,2,45,45,12,congruent,Right,Right,Left,39,38,1,blue,2,5,/home/docky/apps/exp/images/39B.jpeg,/home/docky/apps/exp/images/38Bi.jpeg,0,14,14,14,0,1,1,1,1848.2629612790006,None,1848.2629612790006,None,1,3.991695474000153,1848.2629612790006,None,1852.288257571001,None,1852.288257571001,None,1854.7932937330006,None,1854.7932937330006,None,3.4888367370003834,1856.5939233050012,None,1856.5939233050012,None,5,1,1.1680358720004733,1860.086857194001,None,1860.086857194001,None,1860.086857194001,None,1861.2713012960012,None,1,0.417847188999076,1861.2713012960012,None,156,1861.7056025640013,None,140,A,1,2021_Jun_01_1056,GazeFlow,2020.1.2,59.93706991236937,
15,Block514.xls,A,14,3,52,52,12,congruent,Right,Right,Left,75,69,6,yellow,2,5,/home/docky/apps/exp/images/76Y.jpeg,/home/docky/apps/exp/images/69Yi.jpeg,0,14,14,14,0,2,2,2,1862.7080266550001,None,1862.7080266550001,None,1,3.6573318850005307,1862.7080266550001,None,1866.3992245030004,None,1866.3992245030004,None,1868.9019229270016,None,1868.9019229270016,None,1.9185062710002967,1870.7052940150006,None,1870.7052940150006,None,5,1,0.9186287440006708,1872.6107508730001,None,1872.6107508730001,None,1872.6107508730001,None,1873.545693041,None,1,0.4004072330008057,1873.545693041,None,158,1873.962860859001,None,140,A,1,2021_Jun_01_1056,GazeFlow,2020.1.2,59.93706991236937,
15,Block514.xls,A,14,4,106,46,22,incongruent,Left,Right,Left,35,33,2,yellow,2,5,/home/docky/apps/exp/images/35Yi.jpeg,/home/docky/apps/exp/images/33Y.jpeg,0,14,14,14,0,3,3,3,1874.9649371240012,None,1874.9649371240012,None,1,4.308855178998783,1874.9649371240012,None,1879.3076625130016,None,1879.3076625130016,None,1881.812090376001,None,1881.812090376001,None,2.186033349000354,1883.6156496910007,None,1883.6156496910007,None,5,1,0.9680757139994967,1885.7862864080016,None,1885.7862864080016,None,1885.7862864080016,None,1886.770994982,None,1,0.4342069949998404,1886.770994982,None,160,1887.222147384,None,140,A,1,2021_Jun_01_1056,GazeFlow,2020.1.2,59.93706991236937,
15,Block514.xls,A,14,5,109,49,22,incongruent,Left,Right,Left,39,38,1,yellow,2,5,/home/docky/apps/exp/images/39Yi.jpeg,/home/docky/apps/exp/images/38Y.jpeg,0,14,14,14,0,4,4,4,1888.224086481001,None,1888.224086481001,None,1,3.8918243179996352,1888.224086481001,None,1892.1493321260004,None,1892.1493321260004,None,1894.6518842100013,None,1894.6518842100013,None,1.5011021810005332,1896.4552308319999,None,1896.4552308319999,None,6,0,0.9520981409987144,1897.9432735110004,None,1897.9432735110004,None,1897.9432735110004,None,1898.9115673420001,None,1,0.3335721459989145,1898.9115673420001,None,158,1899.262017952,None,140,A,1,2021_Jun_01_1056,GazeFlow,2020.1.2,59.93706991236937,
15,Block514.xls,A,14,6,89,29,21,incongruent,Right,Left,Right,79,82,3,yellow,2,6,/home/docky/apps/exp/images/79Yi.jpeg,/home/docky/apps/exp/images/80Y.jpeg,0,14,14,14,0,5,5,5,1900.263802042,None,1900.263802042,None,1,4.0920761470006255,1900.263802042,None,1904.3880342600005,None,1904.3880342600005,None,1906.8929978260003,None,1906.8929978260003,None,2.085491870999249,1908.6963005090001,None,1908.6963005090001,None,6,1,0.8520374239997182,1910.7681695840001,None,1910.7681695840001,None,1910.7681695840001,None,1911.635950152,None,1,0.4342467240003316,1911.635950152,None,160,1912.0870440050003,None,140,A,1,2021_Jun_01_1056,GazeFlow,2020.1.2,59.93706991236937,
15,Block514.xls,A,14,7,91,31,22,incongruent,Left,Right,Left,19,16,3,blue,2,5,/home/docky/apps/exp/images/19Bi.jpeg,/home/docky/apps/exp/images/16B.jpeg,0,14,14,14,0,6,6,6,1913.0887332890015,None,1913.0887332890015,None,1,4.560155949000546,1913.0887332890015,None,1917.6823083250001,None,1917.6823083250001,None,1920.1870170830007,None,1920.1870170830007,None,1.534606220000569,1921.987011262001,None,1921.987011262001,None,5,1,0.9523132430003898,1923.5095852330014,None,1923.5095852330014,None,1923.5095852330014,None,1924.4779393550016,None,1,0.4504440460004844,1924.4779393550016,None,162,1924.945187155001,None,140,A,1,2021_Jun_01_1056,GazeFlow,2020.1.2,59.93706991236937,
15,Block514.xls,A,14,8,79,19,21,incongruent,Right,Left,Right,62,65,3,yellow,2,6,/home/docky/apps/exp/images/38B.jpeg,/home/docky/apps/exp/images/35Bi.jpeg,0,14,14,14,0,7,7,7,1925.9471941880001,None,1925.9471941880001,None,1,4.109022271999493,1925.9471941880001,None,1930.0897966620014,None,1930.0897966620014,None,1932.5924562850014,None,1932.5924562850014,None,3.2380668480000168,1934.398165519,None,1934.398165519,None,6,1,0.8026433890008775,1937.6357003379999,None,1937.6357003379999,None,1937.6357003379999,None,1938.4548064360006,None,1,0.4843699109987938,1938.4548064360006,None,164,1938.9554143900004,None,140,A,1,2021_Jun_01_1056,GazeFlow,2020.1.2,59.93706991236937,
15,Block514.xls,A,,,,,,,,,,,,,,,,,,0,14,14,14,,,,,,,,,,,,,,,,,,,,,,,,,,,,,,,,,,,,,,,,,,,,140,A,1,2021_Jun_01_1056,GazeFlow,2020.1.2,59.93706991236937,
