Nblock,condsFile,grouping,Block,TrialBlock,N,trialN,trialCond,gazeCon,gazedirR,corrBinR,corrBinP,valLBY,valRBY,diff,colorCube,feedbacktext,corrAns,imageL,imageR,SelBlocks.thisRepN,SelBlocks.thisTrialN,SelBlocks.thisN,SelBlocks.thisIndex,Trials.thisRepN,Trials.thisTrialN,Trials.thisN,Trials.thisIndex,waitCube.started,waitCube.stopped,text_3.started,text_3.stopped,StartKeyPress.keys,StartKeyPress.rt,StartKeyPress.started,StartKeyPress.stopped,StimL.started,StimL.stopped,StimR.started,StimR.stopped,imageStim2L.started,imageStim2L.stopped,imageStim2R.started,imageStim2R.stopped,RTkeyRelease,imageStim3L.started,imageStim3L.stopped,imageStim3R.started,imageStim3R.stopped,dropResp.keys,dropResp.corr,dropResp.rt,dropResp.started,dropResp.stopped,imageStim5L.started,imageStim5L.stopped,imageStim5R.started,imageStim5R.stopped,text_2.started,text_2.stopped,ReturnSpace.keys,ReturnSpace.rt,ReturnSpace.started,ReturnSpace.stopped,totalpoints,textFeedback.started,textFeedback.stopped,participant,group,session,date,expName,psychopyVersion,frameRate,
1,Block809.xls,B,9,1,93,93,None,congruent,Right,Right,Left,80,79,1,yellow,2,5,/home/docky/apps/exp/images/80Y.jpeg,/home/docky/apps/exp/images/79Yi.jpeg,0,0,0,0,0,0,0,0,43.021923521000645,None,43.021923521000645,None,1,7.2536704070007545,43.021923521000645,None,50.3012686710008,None,50.3012686710008,None,52.8240913919999,None,52.8240913919999,None,0.949341817999084,54.627514347001124,None,54.627514347001124,None,6,0,0.7845955890006735,55.55954570600079,None,55.55954570600079,None,55.55954570600079,None,56.36108426100145,None,1,0.3838357620006718,56.36108426100145,None,-2,56.76149302200065,None,141,B,1,2021_Jun_01_1326,GazeFlow,2020.1.2,59.86052497684305,
1,Block809.xls,B,9,2,15,15,None,congruent,Left,Left,Right,38,39,1,blue,2,6,/home/docky/apps/exp/images/38B.jpeg,/home/docky/apps/exp/images/39Bi.jpeg,0,0,0,0,0,1,1,1,57.763529566000216,None,57.763529566000216,None,1,2.9564231269996526,57.763529566000216,None,60.75377929000024,None,60.75377929000024,None,63.25700326200058,None,63.25700326200058,None,1.2172040050008945,65.05971443599992,None,65.05971443599992,None,5,0,0.6840357249984663,66.2639235000006,None,66.2639235000006,None,66.2639235000006,None,66.96474250500069,None,1,0.40089549599906604,66.96474250500069,None,-4,67.38206112199987,None,141,B,1,2021_Jun_01_1326,GazeFlow,2020.1.2,59.86052497684305,
1,Block809.xls,B,9,3,117,21,None,incongruent,Left,Right,Left,39,38,1,yellow,2,5,/home/docky/apps/exp/images/39Yi.jpeg,/home/docky/apps/exp/images/38Y.jpeg,0,0,0,0,0,2,2,2,68.3839438820014,None,68.3839438820014,None,1,3.324091820999456,68.3839438820014,None,71.74190593999992,None,71.74190593999992,None,74.25022679500034,None,74.25022679500034,None,1.050194598001326,76.04852840500098,None,76.04852840500098,None,5,1,0.7008831050006847,77.0850874910011,None,77.0850874910011,None,77.0850874910011,None,77.80261149600119,None,1,0.367087320999417,77.80261149600119,None,-2,78.18661914100085,None,141,B,1,2021_Jun_01_1326,GazeFlow,2020.1.2,59.86052497684305,
1,Block809.xls,B,9,4,94,94,None,congruent,Right,Right,Left,80,79,1,yellow,2,5,/home/docky/apps/exp/images/80Y.jpeg,/home/docky/apps/exp/images/79Yi.jpeg,0,0,0,0,0,3,3,3,79.18843494500106,None,79.18843494500106,None,1,3.2407794020000438,79.18843494500106,None,82.46629635099998,None,82.46629635099998,None,84.96749373800048,None,84.96749373800048,None,1.1837006050009222,86.7689238030016,None,86.7689238030016,None,5,1,0.7009644350000599,87.93939713300097,None,87.93939713300097,None,87.93939713300097,None,88.65717745600159,None,1,0.33389784900100494,88.65717745600159,None,0,89.00751200300147,None,141,B,1,2021_Jun_01_1326,GazeFlow,2020.1.2,59.86052497684305,
1,Block809.xls,B,9,5,41,41,None,congruent,Right,Right,Left,79,76,3,blue,2,5,/home/docky/apps/exp/images/79Bi.jpeg,/home/docky/apps/exp/images/76B.jpeg,0,0,0,0,0,4,4,4,90.00942708799994,None,90.00942708799994,None,1,3.390667752000809,90.00942708799994,None,93.43384163000155,None,93.43384163000155,None,95.93877454600079,None,95.93877454600079,None,1.1671408840011281,97.74218079999991,None,97.74218079999991,None,5,1,0.7006517449990497,98.8941182360013,None,98.8941182360013,None,98.8941182360013,None,99.61145082300027,None,1,0.31740488700052083,99.61145082300027,None,2,99.94546409100076,None,141,B,1,2021_Jun_01_1326,GazeFlow,2020.1.2,59.86052497684305,
1,Block809.xls,B,9,6,36,36,None,congruent,Right,Right,Left,79,73,6,blue,2,5,/home/docky/apps/exp/images/79Bi.jpeg,/home/docky/apps/exp/images/73B.jpeg,0,0,0,0,0,5,5,5,100.94741125400105,None,100.94741125400105,None,1,3.0065598620003584,100.94741125400105,None,103.98949307500152,None,103.98949307500152,None,106.49073201100146,None,106.49073201100146,None,1.6345066879985097,108.29397385500124,None,108.29397385500124,None,5,1,0.6170683290001762,109.91557853199993,None,109.91557853199993,None,109.91557853199993,None,110.54961416300102,None,1,0.35121595800046634,110.54961416300102,None,4,110.91693354000017,None,141,B,1,2021_Jun_01_1326,GazeFlow,2020.1.2,59.86052497684305,
1,Block809.xls,B,9,7,78,78,None,congruent,Right,Right,Left,39,38,1,yellow,2,5,/home/docky/apps/exp/images/39Yi.jpeg,/home/docky/apps/exp/images/38Y.jpeg,0,0,0,0,0,6,6,6,111.91887849600062,None,111.91887849600062,None,1,2.706254110998998,111.91887849600062,None,114.65843182400022,None,114.65843182400022,None,117.16322520100039,None,117.16322520100039,None,1.0673272839994752,118.95975123500102,None,118.95975123500102,None,5,1,0.6504952989998856,120.01840712900048,None,120.01840712900048,None,120.01840712900048,None,120.68582056800005,None,1,0.23368185599974822,120.68582056800005,None,6,120.93643974600127,None,141,B,1,2021_Jun_01_1326,GazeFlow,2020.1.2,59.86052497684305,
1,Block809.xls,B,9,8,29,29,None,congruent,Right,Right,Left,38,35,3,blue,2,5,/home/docky/apps/exp/images/38B.jpeg,/home/docky/apps/exp/images/35Bi.jpeg,0,0,0,0,0,7,7,7,121.9380467280007,None,121.9380467280007,None,1,3.4911678770004073,121.9380467280007,None,125.462778901001,None,125.462778901001,None,127.96770486200148,None,127.96770486200148,None,0.9666766460013605,129.76942578200033,None,129.76942578200033,None,5,1,0.6673990170002071,130.72257453800012,None,130.72257453800012,None,130.72257453800012,None,131.40643615800036,None,1,0.18396959100027743,131.40643615800036,None,8,131.6068952580008,None,141,B,1,2021_Jun_01_1326,GazeFlow,2020.1.2,59.86052497684305,
1,Block809.xls,B,,,,,,,,,,,,,,,,,,0,0,0,0,,,,,,,,,,,,,,,,,,,,,,,,,,,,,,,,,,,,,,,,,,,,141,B,1,2021_Jun_01_1326,GazeFlow,2020.1.2,59.86052497684305,
2,Block805.xls,B,5,1,16,16,None,congruent,Left,Left,Right,73,76,3,blue,2,6,/home/docky/apps/exp/images/73B.jpeg,/home/docky/apps/exp/images/76Bi.jpeg,0,1,1,1,0,0,0,0,149.86087851500088,None,149.86087851500088,None,1,4.314406852001412,149.86087851500088,None,154.20554256500145,None,154.20554256500145,None,156.7233576310009,None,156.7233576310009,None,1.1996174759988207,158.52702515800047,None,158.52702515800047,None,6,1,0.9180501589999039,159.71194135299993,None,159.71194135299993,None,159.71194135299993,None,160.6465828119999,None,1,0.28451623099863355,160.6465828119999,None,10,160.94739341100103,None,141,B,1,2021_Jun_01_1326,GazeFlow,2020.1.2,59.86052497684305,
2,Block805.xls,B,5,2,2,2,None,congruent,Left,Left,Right,16,19,3,blue,2,6,/home/docky/apps/exp/images/16B.jpeg,/home/docky/apps/exp/images/19Bi.jpeg,0,1,1,1,0,1,1,1,161.94931464100046,None,161.94931464100046,None,1,2.8392625280012,161.94931464100046,None,164.8225728890011,None,164.8225728890011,None,167.327418021001,None,167.327418021001,None,1.1507336750000832,169.12900551300118,None,169.12900551300118,None,6,1,0.6342093910006952,170.26575218200014,None,170.26575218200014,None,170.26575218200014,None,170.9166106950015,None,1,0.23386934799964365,170.9166106950015,None,12,171.16720787500162,None,141,B,1,2021_Jun_01_1326,GazeFlow,2020.1.2,59.86052497684305,
2,Block805.xls,B,5,3,64,64,None,congruent,Left,Left,Right,69,76,7,yellow,2,6,/home/docky/apps/exp/images/69Y.jpeg,/home/docky/apps/exp/images/76Yi.jpeg,0,1,1,1,0,2,2,2,172.16913209400082,None,172.16913209400082,None,1,2.9395592019991454,172.16913209400082,None,175.1426059810001,None,175.1426059810001,None,177.6454811020012,None,177.6454811020012,None,1.1672461620000831,179.4490255569999,None,179.4490255569999,None,6,1,0.600494678999894,180.60261174000152,None,180.60261174000152,None,180.60261174000152,None,181.21993052900143,None,1,0.25063624100039306,181.21993052900143,None,14,181.48705423200045,None,141,B,1,2021_Jun_01_1326,GazeFlow,2020.1.2,59.86052497684305,
2,Block805.xls,B,5,4,61,61,None,congruent,Left,Left,Right,38,39,1,yellow,2,6,/home/docky/apps/exp/images/38Yi.jpeg,/home/docky/apps/exp/images/39Y.jpeg,0,1,1,1,0,3,3,3,182.48901884100087,None,182.48901884100087,None,1,2.95699403800063,182.48901884100087,None,185.47927656899992,None,185.47927656899992,None,187.98395554400122,None,187.98395554400122,None,1.1167563109993353,189.78623767099998,None,189.78623767099998,None,5,0,0.7173135400007595,190.8893907390011,None,190.8893907390011,None,190.8893907390011,None,191.62339545800023,None,1,0.25063529100043525,191.62339545800023,None,12,191.89068739400136,None,141,B,1,2021_Jun_01_1326,GazeFlow,2020.1.2,59.86052497684305,
2,Block805.xls,B,5,5,23,23,None,congruent,Left,Left,Right,80,83,3,blue,2,6,/home/docky/apps/exp/images/80B.jpeg,/home/docky/apps/exp/images/83Bi.jpeg,0,1,1,1,0,4,4,4,192.89276021600017,None,192.89276021600017,None,1,3.440350988999853,192.89276021600017,None,196.36519250200035,None,196.36519250200035,None,198.87183506800102,None,198.87183506800102,None,1.099958290998984,200.67553163000048,None,200.67553163000048,None,6,1,1.18531356099993,201.7603761340015,None,201.7603761340015,None,201.7603761340015,None,202.9619469019999,None,1,0.28473174099963217,202.9619469019999,None,14,203.2629488170005,None,141,B,1,2021_Jun_01_1326,GazeFlow,2020.1.2,59.86052497684305,
2,Block805.xls,B,5,6,87,87,None,congruent,Right,Right,Left,76,69,7,yellow,2,5,/home/docky/apps/exp/images/76Yi.jpeg,/home/docky/apps/exp/images/69Y.jpeg,0,1,1,1,0,5,5,5,204.2646904180001,None,204.2646904180001,None,1,2.3720031249995372,204.2646904180001,None,206.67114474900154,None,206.67114474900154,None,209.17743772200083,None,209.17743772200083,None,1.033720319999702,210.9714038230013,None,210.9714038230013,None,5,1,0.684304346999852,211.99696331800078,None,211.99696331800078,None,211.99696331800078,None,212.69765373000155,None,1,0.28417424200051755,212.69765373000155,None,16,212.99820811500103,None,141,B,1,2021_Jun_01_1326,GazeFlow,2020.1.2,59.86052497684305,
2,Block805.xls,B,5,7,4,4,None,congruent,Left,Left,Right,35,38,3,blue,2,6,/home/docky/apps/exp/images/35B.jpeg,/home/docky/apps/exp/images/38Bi.jpeg,0,1,1,1,0,6,6,6,214.00014985000053,None,214.00014985000053,None,1,3.056583679999676,214.00014985000053,None,217.09061759799988,None,217.09061759799988,None,219.5959024950007,None,219.5959024950007,None,0.8834289380010887,221.397325371001,None,221.397325371001,None,6,1,0.6674790700017184,222.26685924600133,None,222.26685924600133,None,222.26685924600133,None,222.9510062590016,None,1,0.2671514160010702,222.9510062590016,None,18,223.23477523600013,None,141,B,1,2021_Jun_01_1326,GazeFlow,2020.1.2,59.86052497684305,
2,Block805.xls,B,5,8,114,18,None,incongruent,Right,Left,Right,79,82,3,yellow,2,6,/home/docky/apps/exp/images/79Y.jpeg,/home/docky/apps/exp/images/80Yi.jpeg,0,1,1,1,0,7,7,7,224.23721999300142,None,224.23721999300142,None,1,3.05622574500012,224.23721999300142,None,227.32718443500016,None,227.32718443500016,None,229.83188210200024,None,229.83188210200024,None,1.0502365360007389,231.63397287200132,None,231.63397287200132,None,6,1,0.7012505879993114,232.67034097600117,None,232.67034097600117,None,232.67034097600117,None,233.3876889940002,None,1,0.25078154999937396,233.3876889940002,None,20,233.6551738090002,None,141,B,1,2021_Jun_01_1326,GazeFlow,2020.1.2,59.86052497684305,
2,Block805.xls,B,,,,,,,,,,,,,,,,,,0,1,1,1,,,,,,,,,,,,,,,,,,,,,,,,,,,,,,,,,,,,,,,,,,,,141,B,1,2021_Jun_01_1326,GazeFlow,2020.1.2,59.86052497684305,
3,Block804.xls,B,4,1,95,95,None,congruent,Right,Right,Left,80,79,1,yellow,2,5,/home/docky/apps/exp/images/80Yi.jpeg,/home/docky/apps/exp/images/79Y.jpeg,0,2,2,2,0,0,0,0,253.96303437300048,None,253.96303437300048,None,1,3.4447515579995525,253.96303437300048,None,257.4341659649999,None,257.4341659649999,None,259.95732110300014,None,259.95732110300014,None,0.9826136230003613,261.76084686500144,None,261.76084686500144,None,5,1,0.7842802250015666,262.7289322960005,None,262.7289322960005,None,262.7289322960005,None,263.52983214100095,None,1,0.21750426600010542,263.52983214100095,None,22,263.76366042000154,None,141,B,1,2021_Jun_01_1326,GazeFlow,2020.1.2,59.86052497684305,
3,Block804.xls,B,4,2,107,11,None,incongruent,Left,Right,Left,83,80,3,blue,2,5,/home/docky/apps/exp/images/83Bi.jpeg,/home/docky/apps/exp/images/80B.jpeg,0,2,2,2,0,1,1,1,264.76568471800056,None,264.76568471800056,None,1,2.638961205000669,264.76568471800056,None,267.43860144800055,None,267.43860144800055,None,269.94313329800025,None,269.94313329800025,None,0.9665035910002189,271.74555193700144,None,271.74555193700144,None,5,1,0.701027952000004,272.6981832040001,None,272.6981832040001,None,272.6981832040001,None,273.41553074500007,None,1,0.2506233770000108,273.41553074500007,None,24,273.68291052600034,None,141,B,1,2021_Jun_01_1326,GazeFlow,2020.1.2,59.86052497684305,
3,Block804.xls,B,4,3,27,27,None,congruent,Right,Right,Left,19,16,3,blue,2,5,/home/docky/apps/exp/images/19Bi.jpeg,/home/docky/apps/exp/images/16B.jpeg,0,2,2,2,0,2,2,2,274.68525278000016,None,274.68525278000016,None,1,2.3381560359994182,274.68525278000016,None,277.05726249800136,None,277.05726249800136,None,279.56554938200134,None,279.56554938200134,None,0.966740240000945,281.3631125820011,None,281.3631125820011,None,5,1,0.7344177269987995,282.31669916400097,None,282.31669916400097,None,282.31669916400097,None,283.06773569100005,None,1,0.31778765600029146,283.06773569100005,None,26,283.4017476070003,None,141,B,1,2021_Jun_01_1326,GazeFlow,2020.1.2,59.86052497684305,
3,Block804.xls,B,4,4,101,5,None,incongruent,Right,Left,Right,76,79,3,blue,2,6,/home/docky/apps/exp/images/76B.jpeg,/home/docky/apps/exp/images/79Bi.jpeg,0,2,2,2,0,3,3,3,284.4038942140014,None,284.4038942140014,None,1,2.4384620969995012,284.4038942140014,None,286.87638675200105,None,286.87638675200105,None,289.3792825240016,None,289.3792825240016,None,0.8832550240003911,291.1827571570011,None,291.1827571570011,None,6,1,0.6678400450000481,292.05214610500116,None,292.05214610500116,None,292.05214610500116,None,292.7362065790003,None,1,0.28404610400139063,292.7362065790003,None,28,293.03698009600157,None,141,B,1,2021_Jun_01_1326,GazeFlow,2020.1.2,59.86052497684305,
3,Block804.xls,B,4,5,47,47,None,congruent,Right,Right,Left,39,38,1,blue,2,5,/home/docky/apps/exp/images/39Bi.jpeg,/home/docky/apps/exp/images/38B.jpeg,0,2,2,2,0,4,4,4,294.03959068900076,None,294.03959068900076,None,1,2.77218719099983,294.03959068900076,None,296.8456916110008,None,296.8456916110008,None,299.3525936060014,None,299.3525936060014,None,0.983505273999981,301.1516853910016,None,301.1516853910016,None,6,0,0.6842768259994045,302.12198893500135,None,302.12198893500135,None,302.12198893500135,None,302.8226933490005,None,1,0.2673954469992168,302.8226933490005,None,26,303.1065770060013,None,141,B,1,2021_Jun_01_1326,GazeFlow,2020.1.2,59.86052497684305,
3,Block804.xls,B,4,6,90,90,None,congruent,Right,Right,Left,77,72,5,yellow,2,5,/home/docky/apps/exp/images/77Yi.jpeg,/home/docky/apps/exp/images/72Y.jpeg,0,2,2,2,0,5,5,5,304.1085740210001,None,304.1085740210001,None,1,2.438774980000744,304.1085740210001,None,306.58165903400004,None,306.58165903400004,None,309.0839500990005,None,309.0839500990005,None,0.9500789430003351,310.8829904360009,None,310.8829904360009,None,5,1,0.7174132380005176,311.82434006699987,None,311.82434006699987,None,311.82434006699987,None,312.5583983730012,None,1,0.30040879800071707,312.5583983730012,None,28,312.87573992800026,None,141,B,1,2021_Jun_01_1326,GazeFlow,2020.1.2,59.86052497684305,
3,Block804.xls,B,4,7,12,12,None,congruent,Left,Left,Right,38,39,1,blue,2,6,/home/docky/apps/exp/images/38B.jpeg,/home/docky/apps/exp/images/39Bi.jpeg,0,2,2,2,0,6,6,6,313.87749540000004,None,313.87749540000004,None,1,2.539044995999575,313.87749540000004,None,316.4505070660016,None,316.4505070660016,None,318.95383952200064,None,318.95383952200064,None,0.9833333090009546,320.75887898700057,None,320.75887898700057,None,6,1,0.6841578410003422,321.72669211799985,None,321.72669211799985,None,321.72669211799985,None,322.4272473780002,None,1,0.25110599999970873,322.4272473780002,None,30,322.6946339790011,None,141,B,1,2021_Jun_01_1326,GazeFlow,2020.1.2,59.86052497684305,
3,Block804.xls,B,4,8,20,20,None,congruent,Left,Left,Right,76,79,3,blue,2,6,/home/docky/apps/exp/images/76Bi.jpeg,/home/docky/apps/exp/images/79B.jpeg,0,2,2,2,0,7,7,7,323.6969581630001,None,323.6969581630001,None,1,2.889280121000411,323.6969581630001,None,326.62018972199985,None,326.62018972199985,None,329.1248049700007,None,329.1248049700007,None,1.3008485629998177,330.92139922500064,None,330.92139922500064,None,6,1,0.6007921769996756,332.213826864001,None,332.213826864001,None,332.213826864001,None,332.831023267001,None,1,0.2674560470004508,332.831023267001,None,32,333.11460818400155,None,141,B,1,2021_Jun_01_1326,GazeFlow,2020.1.2,59.86052497684305,
3,Block804.xls,B,,,,,,,,,,,,,,,,,,0,2,2,2,,,,,,,,,,,,,,,,,,,,,,,,,,,,,,,,,,,,,,,,,,,,141,B,1,2021_Jun_01_1326,GazeFlow,2020.1.2,59.86052497684305,
4,Block814.xls,B,14,1,99,3,None,incongruent,Right,Left,Right,65,66,1,blue,2,6,/home/docky/apps/exp/images/35Yi.jpeg,/home/docky/apps/exp/images/66B.jpeg,0,3,3,3,0,0,0,0,353.74064246300077,None,353.74064246300077,None,1,3.178079928999068,353.74064246300077,None,356.94305728900144,None,356.94305728900144,None,359.46728316700137,None,359.46728316700137,None,1.0158544160003657,361.2709023360003,None,361.2709023360003,None,5,0,0.6508460599998216,362.27203260900023,None,362.27203260900023,None,362.27203260900023,None,362.9394225169999,None,1,0.26728400600040914,362.9394225169999,None,30,363.22336509100023,None,141,B,1,2021_Jun_01_1326,GazeFlow,2020.1.2,59.86052497684305,
4,Block814.xls,B,14,2,34,34,None,congruent,Right,Right,Left,66,65,1,blue,2,5,/home/docky/apps/exp/images/66B.jpeg,/home/docky/apps/exp/images/35Yi.jpeg,0,3,3,3,0,1,1,1,364.22522438099986,None,364.22522438099986,None,1,3.1406434740001714,364.22522438099986,None,367.39935633500136,None,367.39935633500136,None,369.9024490520005,None,369.9024490520005,None,0.9502314860001206,371.7052994149999,None,371.7052994149999,None,5,1,0.7342724049995013,372.6422371100016,None,372.6422371100016,None,372.6422371100016,None,373.39313120299994,None,1,0.26731339899924933,373.39313120299994,None,32,373.67699669500144,None,141,B,1,2021_Jun_01_1326,GazeFlow,2020.1.2,59.86052497684305,
4,Block814.xls,B,14,3,91,91,None,congruent,Right,Right,Left,77,72,5,yellow,2,5,/home/docky/apps/exp/images/77Yi.jpeg,/home/docky/apps/exp/images/72Y.jpeg,0,3,3,3,0,2,2,2,374.67892147400016,None,374.67892147400016,None,1,3.023308474001169,374.67892147400016,None,377.7344146890009,None,377.7344146890009,None,380.2394400150006,None,380.2394400150006,None,1.0003655069995148,382.04272852900067,None,382.04272852900067,None,5,1,0.6341654130010284,383.02883812800064,None,383.02883812800064,None,383.02883812800064,None,383.6795529760002,None,1,0.28404629200122145,383.6795529760002,None,34,383.98057291700025,None,141,B,1,2021_Jun_01_1326,GazeFlow,2020.1.2,59.86052497684305,
4,Block814.xls,B,14,4,68,68,None,congruent,Left,Left,Right,72,77,5,yellow,2,6,/home/docky/apps/exp/images/72Yi.jpeg,/home/docky/apps/exp/images/77Y.jpeg,0,3,3,3,0,3,3,3,384.98227326600136,None,384.98227326600136,None,1,2.505584046999502,384.98227326600136,None,387.52169659799983,None,387.52169659799983,None,390.0251234309999,None,390.0251234309999,None,1.1337858870010677,391.82285362699986,None,391.82285362699986,None,6,1,0.6675690520005446,392.9482282980007,None,392.9482282980007,None,392.9482282980007,None,393.63229219000095,None,1,0.2673940250006126,393.63229219000095,None,36,393.91636424600074,None,141,B,1,2021_Jun_01_1326,GazeFlow,2020.1.2,59.86052497684305,
4,Block814.xls,B,14,5,66,66,None,congruent,Left,Left,Right,69,76,7,yellow,2,6,/home/docky/apps/exp/images/69Yi.jpeg,/home/docky/apps/exp/images/76Y.jpeg,0,3,3,3,0,4,4,4,394.9182164590002,None,394.9182164590002,None,1,2.2217126449995703,394.9182164590002,None,397.17373558500003,None,397.17373558500003,None,399.6767983940008,None,399.6767983940008,None,1.0669498160004878,401.4803382040009,None,401.4803382040009,None,6,1,0.6341454089997569,402.5336407340001,None,402.5336407340001,None,402.5336407340001,None,403.1843665410015,None,1,0.28429593200053205,403.1843665410015,None,38,403.4851565170011,None,141,B,1,2021_Jun_01_1326,GazeFlow,2020.1.2,59.86052497684305,
4,Block814.xls,B,14,6,115,19,None,incongruent,Left,Right,Left,80,79,1,yellow,2,5,/home/docky/apps/exp/images/80Yi.jpeg,/home/docky/apps/exp/images/79Y.jpeg,0,3,3,3,0,5,5,5,404.4870800230001,None,404.4870800230001,None,1,2.421866050000972,404.4870800230001,None,406.9426854760004,None,406.9426854760004,None,409.4461777460001,None,409.4461777460001,None,0.9500559750013053,411.2486272590013,None,411.2486272590013,None,5,1,0.7171429800000624,412.18583160600065,None,412.18583160600065,None,412.18583160600065,None,412.9199637620004,None,1,0.26769122800033074,412.9199637620004,None,40,413.20373512100014,None,141,B,1,2021_Jun_01_1326,GazeFlow,2020.1.2,59.86052497684305,
4,Block814.xls,B,14,7,9,9,None,congruent,Left,Left,Right,65,66,1,blue,2,6,/home/docky/apps/exp/images/35Yi.jpeg,/home/docky/apps/exp/images/66B.jpeg,0,3,3,3,0,6,6,6,414.206247383001,None,414.206247383001,None,1,2.722219954999673,414.206247383001,None,416.9623164960012,None,416.9623164960012,None,419.4685032080015,None,419.4685032080015,None,1.1671252100004494,421.2687597490003,None,421.2687597490003,None,5,0,0.7006750990003638,422.42240008500085,None,422.42240008500085,None,422.42240008500085,None,423.1396519560003,None,1,0.2505480780000653,423.1396519560003,None,38,423.40686328800075,None,141,B,1,2021_Jun_01_1326,GazeFlow,2020.1.2,59.86052497684305,
4,Block814.xls,B,14,8,14,14,None,congruent,Left,Left,Right,38,39,1,blue,2,6,/home/docky/apps/exp/images/38Bi.jpeg,/home/docky/apps/exp/images/39B.jpeg,0,3,3,3,0,7,7,7,424.40898944200126,None,424.40898944200126,None,1,2.690014383999369,424.40898944200126,None,427.13198424500115,None,427.13198424500115,None,429.6368992940006,None,429.6368992940006,None,1.7184621910000715,431.4384456660009,None,431.4384456660009,None,5,0,0.6173200690009253,433.1430543360002,None,433.1430543360002,None,433.1430543360002,None,433.7772737410014,None,1,0.20103023599949665,433.7772737410014,None,36,433.994736482,None,141,B,1,2021_Jun_01_1326,GazeFlow,2020.1.2,59.86052497684305,
4,Block814.xls,B,,,,,,,,,,,,,,,,,,0,3,3,3,,,,,,,,,,,,,,,,,,,,,,,,,,,,,,,,,,,,,,,,,,,,141,B,1,2021_Jun_01_1326,GazeFlow,2020.1.2,59.86052497684305,
5,Block812.xls,B,12,1,18,18,None,congruent,Left,Left,Right,73,76,3,blue,2,6,/home/docky/apps/exp/images/73B.jpeg,/home/docky/apps/exp/images/76Bi.jpeg,0,4,4,4,0,0,0,0,461.61691542600056,None,461.61691542600056,None,1,3.645039076998728,461.61691542600056,None,465.2996748180012,None,465.2996748180012,None,467.81090220700025,None,467.81090220700025,None,0.7990356990012515,469.612951856001,None,469.612951856001,None,6,1,0.7007463319987437,470.3988091560004,None,470.3988091560004,None,470.3988091560004,None,471.1159350240014,None,1,0.3178147779999563,471.1159350240014,None,38,471.45008530500127,None,141,B,1,2021_Jun_01_1326,GazeFlow,2020.1.2,59.86052497684305,
5,Block812.xls,B,12,2,3,3,None,congruent,Left,Left,Right,16,19,3,blue,2,6,/home/docky/apps/exp/images/16Bi.jpeg,/home/docky/apps/exp/images/19B.jpeg,0,4,4,4,0,1,1,1,472.45286662299986,None,472.45286662299986,None,1,3.072997181001483,472.45286662299986,None,475.56357266800114,None,475.56357266800114,None,478.0640517310003,None,478.0640517310003,None,0.9501327079997282,479.86130697299996,None,479.86130697299996,None,6,1,0.6340695720009535,480.80242852300034,None,480.80242852300034,None,480.80242852300034,None,481.4530365160008,None,1,0.267185929000334,481.4530365160008,None,40,481.7371176460001,None,141,B,1,2021_Jun_01_1326,GazeFlow,2020.1.2,59.86052497684305,
5,Block812.xls,B,12,3,56,56,None,congruent,Left,Left,Right,62,65,3,yellow,2,6,/home/docky/apps/exp/images/38Bi.jpeg,/home/docky/apps/exp/images/35B.jpeg,0,4,4,4,0,2,2,2,482.73927388000084,None,482.73927388000084,None,1,2.989269064999462,482.73927388000084,None,485.76255527300054,None,485.76255527300054,None,488.2680273980004,None,488.2680273980004,None,1.8685430260011344,490.06918567499997,None,490.06918567499997,None,5,0,0.8352029399993626,491.92369496300125,None,491.92369496300125,None,491.92369496300125,None,492.77572838700144,None,1,0.3667203619988868,492.77572838700144,None,38,493.15886910600057,None,141,B,1,2021_Jun_01_1326,GazeFlow,2020.1.2,59.86052497684305,
5,Block812.xls,B,12,4,11,11,None,congruent,Left,Left,Right,38,39,1,blue,2,6,/home/docky/apps/exp/images/38B.jpeg,/home/docky/apps/exp/images/39Bi.jpeg,0,4,4,4,0,3,3,3,494.1612534420001,None,494.1612534420001,None,1,3.87463450299947,494.1612534420001,None,498.0694963720016,None,498.0694963720016,None,500.57477033800023,None,500.57477033800023,None,1.1503101429989329,502.37662209300106,None,502.37662209300106,None,6,1,0.7009399339985976,503.512901944001,None,503.512901944001,None,503.512901944001,None,504.2304623170003,None,1,0.2509251570008928,504.2304623170003,None,40,504.49771177300136,None,141,B,1,2021_Jun_01_1326,GazeFlow,2020.1.2,59.86052497684305,
5,Block812.xls,B,12,5,116,20,None,incongruent,Left,Right,Left,35,33,2,yellow,2,5,/home/docky/apps/exp/images/35Yi.jpeg,/home/docky/apps/exp/images/33Y.jpeg,0,4,4,4,0,4,4,4,505.49988248500085,None,505.49988248500085,None,1,2.689393079999718,505.49988248500085,None,508.2226931390014,None,508.2226931390014,None,510.72553526200136,None,510.72553526200136,None,1.0333367040002486,512.5288462080007,None,512.5288462080007,None,5,1,0.7508494729991071,513.5491176140004,None,513.5491176140004,None,513.5491176140004,None,514.316663728001,None,1,0.2672458219985856,514.316663728001,None,42,514.6004636180005,None,141,B,1,2021_Jun_01_1326,GazeFlow,2020.1.2,59.86052497684305,
5,Block812.xls,B,12,6,40,40,None,congruent,Right,Right,Left,79,76,3,blue,2,5,/home/docky/apps/exp/images/79Bi.jpeg,/home/docky/apps/exp/images/76B.jpeg,0,4,4,4,0,5,5,5,515.602728838001,None,515.602728838001,None,1,3.0062981039991428,515.602728838001,None,518.6429961360009,None,518.6429961360009,None,521.1462646,None,521.1462646,None,1.000188915999388,522.9437566470006,None,522.9437566470006,None,5,1,0.7008777929986536,523.9361232830015,None,523.9361232830015,None,523.9361232830015,None,524.6536326840014,None,1,0.2840474879994872,524.6536326840014,None,44,524.9544393150009,None,141,B,1,2021_Jun_01_1326,GazeFlow,2020.1.2,59.86052497684305,
5,Block812.xls,B,12,7,76,76,None,congruent,Right,Right,Left,39,38,1,yellow,2,5,/home/docky/apps/exp/images/39Yi.jpeg,/home/docky/apps/exp/images/38Y.jpeg,0,4,4,4,0,6,6,6,525.9562820710016,None,525.9562820710016,None,1,3.440496492999955,525.9562820710016,None,529.430695776,None,529.430695776,None,531.935332119001,None,531.935332119001,None,1.4678267409999535,533.7390047990011,None,533.7390047990011,None,5,1,0.6838231629990332,535.1913773960005,None,535.1913773960005,None,535.1913773960005,None,535.8919376890008,None,1,0.26797239700135833,535.8919376890008,None,46,536.1763910410009,None,141,B,1,2021_Jun_01_1326,GazeFlow,2020.1.2,59.86052497684305,
5,Block812.xls,B,12,8,77,77,None,congruent,Right,Right,Left,39,38,1,yellow,2,5,/home/docky/apps/exp/images/39Y.jpeg,/home/docky/apps/exp/images/38Yi.jpeg,0,4,4,4,0,7,7,7,537.177803388,None,537.177803388,None,1,2.9235706119998213,537.177803388,None,540.1347757940002,None,540.1347757940002,None,542.6380164560014,None,542.6380164560014,None,0.9502597869995952,544.4430066160003,None,544.4430066160003,None,5,1,0.8010803050001414,545.3776467240004,None,545.3776467240004,None,545.3776467240004,None,546.1955714410014,None,1,0.3338652649999858,546.1955714410014,None,48,546.545944812,None,141,B,1,2021_Jun_01_1326,GazeFlow,2020.1.2,59.86052497684305,
5,Block812.xls,B,,,,,,,,,,,,,,,,,,0,4,4,4,,,,,,,,,,,,,,,,,,,,,,,,,,,,,,,,,,,,,,,,,,,,141,B,1,2021_Jun_01_1326,GazeFlow,2020.1.2,59.86052497684305,
6,Block803.xls,B,3,1,84,84,None,congruent,Right,Right,Left,75,69,6,yellow,2,5,/home/docky/apps/exp/images/76Yi.jpeg,/home/docky/apps/exp/images/69Y.jpeg,0,5,5,5,0,0,0,0,564.4836975690014,None,564.4836975690014,None,1,3.3295915059989056,564.4836975690014,None,567.841525889,None,567.841525889,None,570.3603883579999,None,570.3603883579999,None,0.9331329950000509,572.1620074010007,None,572.1620074010007,None,5,1,0.7343931430004886,573.0814684910001,None,573.0814684910001,None,573.0814684910001,None,573.8323241450016,None,1,0.3509347799990792,573.8323241450016,None,50,574.1997006000001,None,141,B,1,2021_Jun_01_1326,GazeFlow,2020.1.2,59.86052497684305,
6,Block803.xls,B,3,2,82,82,None,congruent,Right,Right,Left,66,65,1,yellow,2,5,/home/docky/apps/exp/images/66Y.jpeg,/home/docky/apps/exp/images/35Bi.jpeg,0,5,5,5,0,1,1,1,575.2019268870008,None,575.2019268870008,None,1,2.7229782289996365,575.2019268870008,None,577.9597371670006,None,577.9597371670006,None,580.4614415750002,None,580.4614415750002,None,1.3343186099991726,582.2661667070006,None,582.2661667070006,None,6,0,0.8511809069987066,583.585359861001,None,583.585359861001,None,583.585359861001,None,584.4531004550008,None,1,0.28464954500122985,584.4531004550008,None,48,584.7539945850003,None,141,B,1,2021_Jun_01_1326,GazeFlow,2020.1.2,59.86052497684305,
6,Block803.xls,B,3,3,80,80,None,congruent,Right,Right,Left,66,65,1,yellow,2,5,/home/docky/apps/exp/images/66Yi.jpeg,/home/docky/apps/exp/images/35B.jpeg,0,5,5,5,0,2,2,2,585.7556394270014,None,585.7556394270014,None,1,2.472133467999811,585.7556394270014,None,588.2615792220004,None,588.2615792220004,None,590.7663131970003,None,590.7663131970003,None,0.9834365249989787,592.5679347900004,None,592.5679347900004,None,5,1,0.700697628000853,593.5380654600012,None,593.5380654600012,None,593.5380654600012,None,594.2551892640004,None,1,0.3341921560004266,594.2551892640004,None,50,594.6063032520015,None,141,B,1,2021_Jun_01_1326,GazeFlow,2020.1.2,59.86052497684305,
6,Block803.xls,B,3,4,79,79,None,congruent,Right,Right,Left,66,65,1,yellow,2,5,/home/docky/apps/exp/images/66Y.jpeg,/home/docky/apps/exp/images/35Bi.jpeg,0,5,5,5,0,3,3,3,595.6082262560012,None,595.6082262560012,None,1,6.04565552799977,595.6082262560012,None,601.6875749200008,None,601.6875749200008,None,604.1906746840014,None,604.1906746840014,None,0.9667702170008852,605.9886302660016,None,605.9886302660016,None,5,1,0.7508524879995093,606.9473608940007,None,606.9473608940007,None,606.9473608940007,None,607.7151004290008,None,1,0.3505480539988639,607.7151004290008,None,52,608.0822679480007,None,141,B,1,2021_Jun_01_1326,GazeFlow,2020.1.2,59.86052497684305,
6,Block803.xls,B,3,5,92,92,None,congruent,Right,Right,Left,77,72,5,yellow,2,5,/home/docky/apps/exp/images/77Y.jpeg,/home/docky/apps/exp/images/72Yi.jpeg,0,5,5,5,0,4,4,4,609.0839747040009,None,609.0839747040009,None,1,2.8400607540006604,609.0839747040009,None,611.9574551340011,None,611.9574551340011,None,614.4625423080015,None,614.4625423080015,None,1.1002770390005026,616.2645660960006,None,616.2645660960006,None,5,1,0.7343071769992093,617.3508849870013,None,617.3508849870013,None,617.3508849870013,None,618.101660444001,None,1,0.5017104340004153,618.101660444001,None,54,618.6198502010011,None,141,B,1,2021_Jun_01_1326,GazeFlow,2020.1.2,59.86052497684305,
6,Block803.xls,B,3,6,106,10,None,incongruent,Left,Right,Left,79,76,3,blue,2,5,/home/docky/apps/exp/images/79Bi.jpeg,/home/docky/apps/exp/images/76B.jpeg,0,5,5,5,0,5,5,5,619.6213819940003,None,619.6213819940003,None,1,2.605793579001329,619.6213819940003,None,622.2592813660012,None,622.2592813660012,None,624.7655578869999,None,624.7655578869999,None,1.2840676460000395,626.5676682550002,None,626.5676682550002,None,5,1,0.6841548030006379,627.8379048550014,None,627.8379048550014,None,627.8379048550014,None,628.5387126000005,None,1,0.31704505900052027,628.5387126000005,None,56,628.8725823060013,None,141,B,1,2021_Jun_01_1326,GazeFlow,2020.1.2,59.86052497684305,
6,Block803.xls,B,3,7,25,25,None,congruent,Right,Right,Left,19,16,3,blue,2,5,/home/docky/apps/exp/images/19Bi.jpeg,/home/docky/apps/exp/images/16B.jpeg,0,5,5,5,0,6,6,6,629.874757900001,None,629.874757900001,None,1,2.8060236450000957,629.874757900001,None,632.7127839220011,None,632.7127839220011,None,635.2180323870016,None,635.2180323870016,None,1.0502087309996568,637.0191090290009,None,637.0191090290009,None,5,1,0.7175551039999846,638.0577992850012,None,638.0577992850012,None,638.0577992850012,None,638.7917177090003,None,1,0.4178616749995854,638.7917177090003,None,58,639.2260174930016,None,141,B,1,2021_Jun_01_1326,GazeFlow,2020.1.2,59.86052497684305,
6,Block803.xls,B,3,8,46,46,None,congruent,Right,Right,Left,39,38,1,blue,2,5,/home/docky/apps/exp/images/39B.jpeg,/home/docky/apps/exp/images/38Bi.jpeg,0,5,5,5,0,7,7,7,640.2281973830013,None,640.2281973830013,None,1,2.856579059000069,640.2281973830013,None,643.1179349390004,None,643.1179349390004,None,645.6230056390013,None,645.6230056390013,None,1.0002735090001806,647.425041415001,None,647.425041415001,None,5,1,0.734088936000262,648.4112347210012,None,648.4112347210012,None,648.4112347210012,None,649.1620492080001,None,1,0.3841547329993773,649.1620492080001,None,60,649.5630363870005,None,141,B,1,2021_Jun_01_1326,GazeFlow,2020.1.2,59.86052497684305,
6,Block803.xls,B,,,,,,,,,,,,,,,,,,0,5,5,5,,,,,,,,,,,,,,,,,,,,,,,,,,,,,,,,,,,,,,,,,,,,141,B,1,2021_Jun_01_1326,GazeFlow,2020.1.2,59.86052497684305,
7,Block810.xls,B,10,1,119,23,None,incongruent,Left,Right,Left,76,69,7,yellow,2,5,/home/docky/apps/exp/images/76Yi.jpeg,/home/docky/apps/exp/images/69Y.jpeg,0,6,6,6,0,0,0,0,674.1302898570011,None,674.1302898570011,None,1,3.5607821730009164,674.1302898570011,None,677.7168172950005,None,677.7168172950005,None,680.2404599970014,None,680.2404599970014,None,0.9493690700001025,682.0425337190009,None,682.0425337190009,None,5,1,0.8678169940012594,682.9784050510007,None,682.9784050510007,None,682.9784050510007,None,683.8625284310001,None,1,0.3510124619988346,683.8625284310001,None,62,684.2306887800005,None,141,B,1,2021_Jun_01_1326,GazeFlow,2020.1.2,59.86052497684305,
7,Block810.xls,B,10,2,43,43,None,congruent,Right,Right,Left,83,80,3,blue,2,5,/home/docky/apps/exp/images/83B.jpeg,/home/docky/apps/exp/images/80Bi.jpeg,0,6,6,6,0,1,1,1,685.2319354230003,None,685.2319354230003,None,1,2.7563107000005402,685.2319354230003,None,688.0220400920007,None,688.0220400920007,None,690.525223097,None,690.525223097,None,0.9499310229984985,692.3286608650014,None,692.3286608650014,None,5,1,0.7344843179998861,693.2648295830004,None,693.2648295830004,None,693.2648295830004,None,694.0158444480003,None,1,0.38445880800099985,694.0158444480003,None,64,694.4167751090008,None,141,B,1,2021_Jun_01_1326,GazeFlow,2020.1.2,59.86052497684305,
7,Block810.xls,B,10,3,53,53,None,congruent,Left,Left,Right,65,66,1,yellow,2,6,/home/docky/apps/exp/images/35Bi.jpeg,/home/docky/apps/exp/images/66Y.jpeg,0,6,6,6,0,2,2,2,695.4186101310006,None,695.4186101310006,None,1,3.2570889910002734,695.4186101310006,None,698.7075858280004,None,698.7075858280004,None,701.2126835710005,None,701.2126835710005,None,0.916611621998527,703.0137946300001,None,703.0137946300001,None,6,1,0.6840388149994396,703.9191648830001,None,703.9191648830001,None,703.9191648830001,None,704.6196041190015,None,1,0.33452177199978905,704.6196041190015,None,66,704.9705969800016,None,141,B,1,2021_Jun_01_1326,GazeFlow,2020.1.2,59.86052497684305,
7,Block810.xls,B,10,4,74,74,None,congruent,Right,Right,Left,35,33,2,yellow,2,5,/home/docky/apps/exp/images/35Y.jpeg,/home/docky/apps/exp/images/33Yi.jpeg,0,6,6,6,0,3,3,3,705.9726052660008,None,705.9726052660008,None,1,2.589189111999076,705.9726052660008,None,708.5954865350013,None,708.5954865350013,None,711.0984530390015,None,711.0984530390015,None,0.9333042660000501,712.8956329900011,None,712.8956329900011,None,5,1,0.7343316090009466,713.8215139170006,None,713.8215139170006,None,713.8215139170006,None,714.5727834680001,None,1,0.3837438039990957,714.5727834680001,None,68,714.9732436300001,None,141,B,1,2021_Jun_01_1326,GazeFlow,2020.1.2,59.86052497684305,
7,Block810.xls,B,10,5,21,21,None,congruent,Left,Left,Right,76,79,3,blue,2,6,/home/docky/apps/exp/images/76B.jpeg,/home/docky/apps/exp/images/79Bi.jpeg,0,6,6,6,0,4,4,4,715.9752655620014,None,715.9752655620014,None,1,2.4894500840000546,715.9752655620014,None,718.4978168960006,None,718.4978168960006,None,721.0065311280014,None,721.0065311280014,None,0.9837389980002627,722.7991801810003,None,722.7991801810003,None,6,1,0.7345277029999124,723.7741760560002,None,723.7741760560002,None,723.7741760560002,None,724.5251059670009,None,1,0.35082941700056836,724.5251059670009,None,70,724.8924030990001,None,141,B,1,2021_Jun_01_1326,GazeFlow,2020.1.2,59.86052497684305,
7,Block810.xls,B,10,6,85,85,None,congruent,Right,Right,Left,75,69,6,yellow,2,5,/home/docky/apps/exp/images/76Y.jpeg,/home/docky/apps/exp/images/69Yi.jpeg,0,6,6,6,0,5,5,5,725.8946616379999,None,725.8946616379999,None,1,2.3221400670008734,725.8946616379999,None,728.2507153790011,None,728.2507153790011,None,730.7548480610003,None,730.7548480610003,None,1.1169452570011345,732.5560974430009,None,732.5560974430009,None,5,1,0.7681616709996888,733.6599485410006,None,733.6599485410006,None,733.6599485410006,None,734.4444340380014,None,1,0.43473223699947994,734.4444340380014,None,72,734.8957307860001,None,141,B,1,2021_Jun_01_1326,GazeFlow,2020.1.2,59.86052497684305,
7,Block810.xls,B,10,7,49,49,None,congruent,Left,Left,Right,33,35,2,yellow,2,6,/home/docky/apps/exp/images/33Yi.jpeg,/home/docky/apps/exp/images/35Y.jpeg,0,6,6,6,0,6,6,6,735.8973565300003,None,735.8973565300003,None,1,2.5394103689995973,735.8973565300003,None,738.470121923001,None,738.470121923001,None,740.9771605390015,None,740.9771605390015,None,1.0672058109994396,742.7757290570007,None,742.7757290570007,None,6,1,0.6841774399999849,743.8300213359998,None,743.8300213359998,None,743.8300213359998,None,744.5306651050014,None,1,0.36774538200006646,744.5306651050014,None,74,744.9150554370008,None,141,B,1,2021_Jun_01_1326,GazeFlow,2020.1.2,59.86052497684305,
7,Block810.xls,B,10,8,63,63,None,congruent,Left,Left,Right,38,39,1,yellow,2,6,/home/docky/apps/exp/images/38Y.jpeg,/home/docky/apps/exp/images/39Yi.jpeg,0,6,6,6,0,7,7,7,745.9168097580005,None,745.9168097580005,None,1,2.6558148130006884,745.9168097580005,None,748.6066255780006,None,748.6066255780006,None,751.1110802570001,None,751.1110802570001,None,1.0168493119999766,752.9069049270001,None,752.9069049270001,None,5,0,0.7007468119991245,753.9162178030001,None,753.9162178030001,None,753.9162178030001,None,754.6336895650002,None,1,0.3844223400010378,754.6336895650002,None,72,755.0343688130015,None,141,B,1,2021_Jun_01_1326,GazeFlow,2020.1.2,59.86052497684305,
7,Block810.xls,B,,,,,,,,,,,,,,,,,,0,6,6,6,,,,,,,,,,,,,,,,,,,,,,,,,,,,,,,,,,,,,,,,,,,,141,B,1,2021_Jun_01_1326,GazeFlow,2020.1.2,59.86052497684305,
8,Block801.xls,B,1,1,1,1,None,congruent,Left,Left,Right,16,19,3,blue,2,6,/home/docky/apps/exp/images/16Bi.jpeg,/home/docky/apps/exp/images/19B.jpeg,0,7,7,7,0,0,0,0,774.0725936750005,None,774.0725936750005,None,1,3.380424861999927,774.0725936750005,None,777.481280684,None,777.481280684,None,780.000846379,None,780.000846379,None,0.9659497519987781,781.7979525740011,None,781.7979525740011,None,6,1,0.7846888690000924,782.7554212630002,None,782.7554212630002,None,782.7554212630002,None,783.5568326560006,None,1,0.3503958089986554,783.5568326560006,None,74,783.9237148790016,None,141,B,1,2021_Jun_01_1326,GazeFlow,2020.1.2,59.86052497684305,
8,Block801.xls,B,1,2,105,9,None,incongruent,Left,Right,Left,79,73,6,blue,2,5,/home/docky/apps/exp/images/79B.jpeg,/home/docky/apps/exp/images/73Bi.jpeg,0,7,7,7,0,1,1,1,784.9257588290002,None,784.9257588290002,None,1,2.5056726679995336,784.9257588290002,None,787.4654734860014,None,787.4654734860014,None,789.9680535840016,None,789.9680535840016,None,1.016801800000394,791.771149219001,None,791.771149219001,None,5,1,0.7343981080011872,792.774958774,None,792.774958774,None,792.774958774,None,793.525815252,None,1,0.41757217300073535,793.525815252,None,76,793.9601333420014,None,141,B,1,2021_Jun_01_1326,GazeFlow,2020.1.2,59.86052497684305,
8,Block801.xls,B,1,3,62,62,None,congruent,Left,Left,Right,38,39,1,yellow,2,6,/home/docky/apps/exp/images/38Y.jpeg,/home/docky/apps/exp/images/39Yi.jpeg,0,7,7,7,0,2,2,2,794.9621478460012,None,794.9621478460012,None,1,2.906696437001301,794.9621478460012,None,797.9021475050013,None,797.9021475050013,None,800.410443359,None,800.410443359,None,1.835009071000968,802.2090106619999,None,802.2090106619999,None,6,1,0.8019864360012434,804.0302881309999,None,804.0302881309999,None,804.0302881309999,None,804.8484203420012,None,1,0.3502638879999722,804.8484203420012,None,78,805.2152237690007,None,141,B,1,2021_Jun_01_1326,GazeFlow,2020.1.2,59.86052497684305,
8,Block801.xls,B,1,4,38,38,None,congruent,Right,Right,Left,79,73,6,blue,2,5,/home/docky/apps/exp/images/79B.jpeg,/home/docky/apps/exp/images/73Bi.jpeg,0,7,7,7,0,3,3,3,806.2172282010015,None,806.2172282010015,None,1,2.822652831000596,806.2172282010015,None,809.0734456620012,None,809.0734456620012,None,811.5788079350004,None,811.5788079350004,None,1.033378525999069,813.3820291720003,None,813.3820291720003,None,5,1,0.7675271740008611,814.4004829189998,None,814.4004829189998,None,814.4004829189998,None,815.1845272910014,None,1,0.43532397899980424,815.1845272910014,None,80,815.6360133260005,None,141,B,1,2021_Jun_01_1326,GazeFlow,2020.1.2,59.86052497684305,
8,Block801.xls,B,1,5,6,6,None,congruent,Left,Left,Right,35,38,3,blue,2,6,/home/docky/apps/exp/images/35Bi.jpeg,/home/docky/apps/exp/images/38B.jpeg,0,7,7,7,0,4,4,4,816.6376560180015,None,816.6376560180015,None,1,2.9897031970012904,816.6376560180015,None,819.6610015250008,None,819.6610015250008,None,822.1637317390014,None,822.1637317390014,None,0.9500364720006473,823.9617045240011,None,823.9617045240011,None,6,1,0.7011552900003153,824.9039119540012,None,824.9039119540012,None,824.9039119540012,None,825.6216041590014,None,1,0.36776902199926553,825.6216041590014,None,82,826.0056747690014,None,141,B,1,2021_Jun_01_1326,GazeFlow,2020.1.2,59.86052497684305,
8,Block801.xls,B,1,6,51,51,None,congruent,Left,Left,Right,33,35,2,yellow,2,6,/home/docky/apps/exp/images/33Yi.jpeg,/home/docky/apps/exp/images/35Y.jpeg,0,7,7,7,0,5,5,5,827.0078251170016,None,827.0078251170016,None,1,3.240080769000997,827.0078251170016,None,830.2816166230004,None,830.2816166230004,None,832.7864734539999,None,832.7864734539999,None,1.0169067150000046,834.5886499970002,None,834.5886499970002,None,6,1,0.8178384010006994,835.5912855510014,None,835.5912855510014,None,835.5912855510014,None,836.4257375600009,None,1,0.4009003270002722,836.4257375600009,None,84,836.8431712590009,None,141,B,1,2021_Jun_01_1326,GazeFlow,2020.1.2,59.86052497684305,
8,Block801.xls,B,1,7,73,73,None,congruent,Right,Right,Left,35,33,2,yellow,2,5,/home/docky/apps/exp/images/35Yi.jpeg,/home/docky/apps/exp/images/33Y.jpeg,0,7,7,7,0,6,6,6,837.8453184130012,None,837.8453184130012,None,1,2.856199675001335,837.8453184130012,None,840.7355383070008,None,840.7355383070008,None,843.2401985340002,None,843.2401985340002,None,1.0003267339998274,845.0413892010001,None,845.0413892010001,None,5,1,0.7672670400006609,846.028496197001,None,846.028496197001,None,846.028496197001,None,846.8127098420009,None,1,0.40078477099996235,846.8127098420009,None,86,847.2301816700001,None,141,B,1,2021_Jun_01_1326,GazeFlow,2020.1.2,59.86052497684305,
8,Block801.xls,B,1,8,96,96,None,congruent,Right,Right,Left,80,79,1,yellow,2,5,/home/docky/apps/exp/images/80Yi.jpeg,/home/docky/apps/exp/images/79Y.jpeg,0,7,7,7,0,7,7,7,848.2321268260002,None,848.2321268260002,None,1,2.942282541998793,848.2321268260002,None,851.207290710001,None,851.207290710001,None,853.730575937001,None,853.730575937001,None,1.1335981079992052,855.5115709750007,None,855.5115709750007,None,5,1,0.8014402909993805,856.6322544470004,None,856.6322544470004,None,856.6322544470004,None,857.4500688950011,None,1,0.43486587799998233,857.4500688950011,None,88,857.9014524510003,None,141,B,1,2021_Jun_01_1326,GazeFlow,2020.1.2,59.86052497684305,
8,Block801.xls,B,,,,,,,,,,,,,,,,,,0,7,7,7,,,,,,,,,,,,,,,,,,,,,,,,,,,,,,,,,,,,,,,,,,,,141,B,1,2021_Jun_01_1326,GazeFlow,2020.1.2,59.86052497684305,
9,Block802.xls,B,2,1,30,30,None,congruent,Right,Right,Left,38,35,3,blue,2,5,/home/docky/apps/exp/images/38B.jpeg,/home/docky/apps/exp/images/35Bi.jpeg,0,8,8,8,0,0,0,0,877.122652375001,None,877.122652375001,None,1,2.8927918690005754,877.122652375001,None,880.041433022001,None,880.041433022001,None,882.5650627989999,None,882.5650627989999,None,1.0495899819998158,884.3511687120008,None,884.3511687120008,None,5,1,0.7175689020004938,885.3882846430006,None,885.3882846430006,None,885.3882846430006,None,886.1224758030003,None,1,0.41759842799910984,886.1224758030003,None,90,886.556608410001,None,141,B,1,2021_Jun_01_1326,GazeFlow,2020.1.2,59.86052497684305,
9,Block802.xls,B,2,2,5,5,None,congruent,Left,Left,Right,35,38,3,blue,2,6,/home/docky/apps/exp/images/35B.jpeg,/home/docky/apps/exp/images/38Bi.jpeg,0,8,8,8,0,1,1,1,887.558753016001,None,887.558753016001,None,1,2.639397041000848,887.558753016001,None,890.2313482050013,None,890.2313482050013,None,892.7346752009998,None,892.7346752009998,None,1.0170728579996648,894.5377270280005,None,894.5377270280005,None,6,1,0.6679018300001189,895.5412819410012,None,895.5412819410012,None,895.5412819410012,None,896.2255793180011,None,1,0.3673321530004614,896.2255793180011,None,92,896.6093038810013,None,141,B,1,2021_Jun_01_1326,GazeFlow,2020.1.2,59.86052497684305,
9,Block802.xls,B,2,3,103,7,None,incongruent,Left,Right,Left,19,16,3,blue,2,5,/home/docky/apps/exp/images/19Bi.jpeg,/home/docky/apps/exp/images/16B.jpeg,0,8,8,8,0,2,2,2,897.6115654420009,None,897.6115654420009,None,1,2.572204602000056,897.6115654420009,None,900.2174775809999,None,900.2174775809999,None,902.7203599670011,None,902.7203599670011,None,0.9666226419994928,904.5258949610015,None,904.5258949610015,None,5,1,0.8177412860004551,905.4772801560011,None,905.4772801560011,None,905.4772801560011,None,906.3118228600015,None,1,0.38431485799992515,906.3118228600015,None,94,906.7127905760008,None,141,B,1,2021_Jun_01_1326,GazeFlow,2020.1.2,59.86052497684305,
9,Block802.xls,B,2,4,35,35,None,congruent,Right,Right,Left,66,65,1,blue,2,5,/home/docky/apps/exp/images/66B.jpeg,/home/docky/apps/exp/images/35Yi.jpeg,0,8,8,8,0,3,3,3,907.7143563930003,None,907.7143563930003,None,1,2.9063680239996756,907.7143563930003,None,910.654569743001,None,910.654569743001,None,913.1592854250011,None,913.1592854250011,None,1.1332906010011357,914.9573527400007,None,914.9573527400007,None,5,1,1.168498262999492,916.0813251920008,None,916.0813251920008,None,916.0813251920008,None,917.266629963,None,1,0.3679418320007244,917.266629963,None,96,917.6508293670013,None,141,B,1,2021_Jun_01_1326,GazeFlow,2020.1.2,59.86052497684305,
9,Block802.xls,B,2,5,42,42,None,congruent,Right,Right,Left,83,80,3,blue,2,5,/home/docky/apps/exp/images/83Bi.jpeg,/home/docky/apps/exp/images/80B.jpeg,0,8,8,8,0,4,4,4,918.6520596640003,None,918.6520596640003,None,1,2.9571025609984645,918.6520596640003,None,921.6427875720001,None,921.6427875720001,None,924.1456360110005,None,924.1456360110005,None,0.9837173890009581,925.9433940870003,None,925.9433940870003,None,5,1,0.8011553749984159,926.9190198190008,None,926.9190198190008,None,926.9190198190008,None,927.7365951580014,None,1,0.4348602400004893,927.7365951580014,None,98,928.1873456789999,None,141,B,1,2021_Jun_01_1326,GazeFlow,2020.1.2,59.86052497684305,
9,Block802.xls,B,2,6,104,8,None,incongruent,Left,Right,Left,38,35,3,blue,2,5,/home/docky/apps/exp/images/38B.jpeg,/home/docky/apps/exp/images/35Bi.jpeg,0,8,8,8,0,5,5,5,929.1896584770002,None,929.1896584770002,None,1,2.8730284059984115,929.1896584770002,None,932.0961912970015,None,932.0961912970015,None,934.5997296320002,None,934.5997296320002,None,1.1169543500000145,936.4030446270008,None,936.4030446270008,None,5,1,0.7675431160005246,937.506235746001,None,937.506235746001,None,937.506235746001,None,938.2904352270016,None,1,0.40062528399903385,938.2904352270016,None,100,938.7080241170006,None,141,B,1,2021_Jun_01_1326,GazeFlow,2020.1.2,59.86052497684305,
9,Block802.xls,B,2,7,22,22,None,congruent,Left,Left,Right,80,83,3,blue,2,6,/home/docky/apps/exp/images/80Bi.jpeg,/home/docky/apps/exp/images/83B.jpeg,0,8,8,8,0,6,6,6,939.7100410319999,None,939.7100410319999,None,1,3.791044081999644,939.7100410319999,None,943.5349934940004,None,943.5349934940004,None,946.0396575880004,None,946.0396575880004,None,0.9999966199993651,947.8375073960015,None,947.8375073960015,None,6,1,0.7009441999998671,948.827975659,None,948.827975659,None,948.827975659,None,949.5455635760009,None,1,0.41751441300039005,949.5455635760009,None,102,949.9796130949999,None,141,B,1,2021_Jun_01_1326,GazeFlow,2020.1.2,59.86052497684305,
9,Block802.xls,B,2,8,54,54,None,congruent,Left,Left,Right,65,66,1,yellow,2,6,/home/docky/apps/exp/images/35Bi.jpeg,/home/docky/apps/exp/images/66Y.jpeg,0,8,8,8,0,7,7,7,950.9817978480005,None,950.9817978480005,None,1,2.889697926999361,950.9817978480005,None,953.9054611219999,None,953.9054611219999,None,956.4084654880007,None,956.4084654880007,None,1.1338393580008415,958.211439566001,None,958.211439566001,None,5,0,1.0680941789996723,959.3320421080007,None,959.3320421080007,None,959.3320421080007,None,960.4167854060015,None,1,0.5521350920007535,960.4167854060015,None,100,960.9848371970002,None,141,B,1,2021_Jun_01_1326,GazeFlow,2020.1.2,59.86052497684305,
9,Block802.xls,B,,,,,,,,,,,,,,,,,,0,8,8,8,,,,,,,,,,,,,,,,,,,,,,,,,,,,,,,,,,,,,,,,,,,,141,B,1,2021_Jun_01_1326,GazeFlow,2020.1.2,59.86052497684305,
10,Block813.xls,B,13,1,70,70,None,congruent,Left,Left,Right,79,82,3,yellow,2,6,/home/docky/apps/exp/images/79Yi.jpeg,/home/docky/apps/exp/images/80Y.jpeg,0,9,9,9,0,0,0,0,981.5774336670002,None,981.5774336670002,None,1,2.9943036290005693,981.5774336670002,None,984.5998370010002,None,984.5998370010002,None,987.1197790080005,None,987.1197790080005,None,0.8992199019994587,988.9169365220005,None,988.9169365220005,None,6,1,0.7010327200005122,989.8078284440016,None,989.8078284440016,None,989.8078284440016,None,990.525260538001,None,1,0.4507940050007164,990.525260538001,None,102,990.992856275001,None,141,B,1,2021_Jun_01_1326,GazeFlow,2020.1.2,59.86052497684305,
10,Block813.xls,B,13,2,60,60,None,congruent,Left,Left,Right,38,39,1,yellow,2,6,/home/docky/apps/exp/images/38Yi.jpeg,/home/docky/apps/exp/images/39Y.jpeg,0,9,9,9,0,1,1,1,991.9946824580002,None,991.9946824580002,None,1,3.04019582500041,991.9946824580002,None,995.0686358990006,None,995.0686358990006,None,997.5710193650011,None,997.5710193650011,None,1.0006206519992702,999.374761817,None,999.374761817,None,6,1,0.6843165600002976,1000.3615383169999,None,1000.3615383169999,None,1000.3615383169999,None,1001.06224225,None,1,0.4343380709997291,1001.06224225,None,104,1001.5132990870006,None,141,B,1,2021_Jun_01_1326,GazeFlow,2020.1.2,59.86052497684305,
10,Block813.xls,B,13,3,81,81,None,congruent,Right,Right,Left,66,65,1,yellow,2,5,/home/docky/apps/exp/images/66Y.jpeg,/home/docky/apps/exp/images/35Bi.jpeg,0,9,9,9,0,2,2,2,1002.5154832349999,None,1002.5154832349999,None,1,2.62253872600013,1002.5154832349999,None,1005.1712348680012,None,1005.1712348680012,None,1007.6771203110002,None,1007.6771203110002,None,0.967264836999675,1009.4781550610005,None,1009.4781550610005,None,5,1,0.7839679169992451,1010.4313878070006,None,1010.4313878070006,None,1010.4313878070006,None,1011.2319688140014,None,1,0.4510478709999006,1011.2319688140014,None,106,1011.6997954140006,None,141,B,1,2021_Jun_01_1326,GazeFlow,2020.1.2,59.86052497684305,
10,Block813.xls,B,13,4,110,14,None,incongruent,Right,Left,Right,65,66,1,yellow,2,6,/home/docky/apps/exp/images/35B.jpeg,/home/docky/apps/exp/images/66Yi.jpeg,0,9,9,9,0,3,3,3,1012.7016135890008,None,1012.7016135890008,None,1,3.1735669530007726,1012.7016135890008,None,1015.9067108200015,None,1015.9067108200015,None,1018.4117142140003,None,1018.4117142140003,None,0.9833823919998395,1020.2148770370004,None,1020.2148770370004,None,6,1,0.6840429470012168,1021.1854888840007,None,1021.1854888840007,None,1021.1854888840007,None,1021.8863441760004,None,1,0.3342939510002907,1021.8863441760004,None,108,1022.2367561669998,None,141,B,1,2021_Jun_01_1326,GazeFlow,2020.1.2,59.86052497684305,
10,Block813.xls,B,13,5,17,17,None,congruent,Left,Left,Right,73,76,3,blue,2,6,/home/docky/apps/exp/images/73Bi.jpeg,/home/docky/apps/exp/images/76B.jpeg,0,9,9,9,0,4,4,4,1023.2391069620007,None,1023.2391069620007,None,1,2.756073660999391,1023.2391069620007,None,1026.0290579290013,None,1026.0290579290013,None,1028.532045983,None,1028.532045983,None,0.9500983289999567,1030.3369556369998,None,1030.3369556369998,None,6,1,0.7179313340002409,1031.271643674001,None,1031.271643674001,None,1031.271643674001,None,1032.00590285,None,1,0.4509961179992388,1032.00590285,None,110,1032.4732366100015,None,141,B,1,2021_Jun_01_1326,GazeFlow,2020.1.2,59.86052497684305,
10,Block813.xls,B,13,6,111,15,None,incongruent,Right,Left,Right,62,65,3,yellow,2,6,/home/docky/apps/exp/images/38B.jpeg,/home/docky/apps/exp/images/35Bi.jpeg,0,9,9,9,0,5,5,5,1033.4751427970004,None,1033.4751427970004,None,1,2.9732221360009135,1033.4751427970004,None,1036.482395096,None,1036.482395096,None,1038.9907683520014,None,1038.9907683520014,None,0.9671439339999779,1040.7908394140013,None,1040.7908394140013,None,6,1,0.7173767530002806,1041.7421604980009,None,1041.7421604980009,None,1041.7421604980009,None,1042.4761683390007,None,1,0.3678402099994855,1042.4761683390007,None,112,1042.8602525770002,None,141,B,1,2021_Jun_01_1326,GazeFlow,2020.1.2,59.86052497684305,
10,Block813.xls,B,13,7,55,55,None,congruent,Left,Left,Right,65,66,1,yellow,2,6,/home/docky/apps/exp/images/35B.jpeg,/home/docky/apps/exp/images/66Yi.jpeg,0,9,9,9,0,6,6,6,1043.8623651980015,None,1043.8623651980015,None,1,2.9060580969999137,1043.8623651980015,None,1046.8007472120007,None,1046.8007472120007,None,1049.3052428070005,None,1049.3052428070005,None,0.8832431319988245,1051.1105940980015,None,1051.1105940980015,None,6,1,0.7173607080003421,1051.978926699001,None,1051.978926699001,None,1051.978926699001,None,1052.7127599610012,None,1,0.4176130859996192,1052.7127599610012,None,114,1053.1468936630008,None,141,B,1,2021_Jun_01_1326,GazeFlow,2020.1.2,59.86052497684305,
10,Block813.xls,B,13,8,26,26,None,congruent,Right,Right,Left,19,16,3,blue,2,5,/home/docky/apps/exp/images/19B.jpeg,/home/docky/apps/exp/images/16Bi.jpeg,0,9,9,9,0,7,7,7,1054.1489056050013,None,1054.1489056050013,None,1,2.8562378419992456,1054.1489056050013,None,1057.0387163680007,None,1057.0387163680007,None,1059.5419605390016,None,1059.5419605390016,None,0.9000702279990946,1061.3453658980015,None,1061.3453658980015,None,5,1,0.7843994560007559,1062.2318905270004,None,1062.2318905270004,None,1062.2318905270004,None,1063.0329001440005,None,1,0.4508220740008255,1063.0329001440005,None,116,1063.500232796001,None,141,B,1,2021_Jun_01_1326,GazeFlow,2020.1.2,59.86052497684305,
10,Block813.xls,B,,,,,,,,,,,,,,,,,,0,9,9,9,,,,,,,,,,,,,,,,,,,,,,,,,,,,,,,,,,,,,,,,,,,,141,B,1,2021_Jun_01_1326,GazeFlow,2020.1.2,59.86052497684305,
11,Block806.xls,B,6,1,10,10,None,congruent,Left,Left,Right,65,66,1,blue,2,6,/home/docky/apps/exp/images/35Y.jpeg,/home/docky/apps/exp/images/66Bi.jpeg,0,10,10,10,0,0,0,0,1082.3559550630016,None,1082.3559550630016,None,1,3.2617882779995853,1082.3559550630016,None,1085.6445205480013,None,1085.6445205480013,None,1088.16601859,None,1088.16601859,None,0.9663301410000713,1089.9631150170007,None,1089.9631150170007,None,6,1,0.7343666939996183,1090.9207460200014,None,1090.9207460200014,None,1090.9207460200014,None,1091.6716965660016,None,1,0.3842337320002116,1091.6716965660016,None,118,1092.0725733130002,None,141,B,1,2021_Jun_01_1326,GazeFlow,2020.1.2,59.86052497684305,
11,Block806.xls,B,6,2,89,89,None,congruent,Right,Right,Left,76,69,7,yellow,2,5,/home/docky/apps/exp/images/76Yi.jpeg,/home/docky/apps/exp/images/69Y.jpeg,0,10,10,10,0,1,1,1,1093.0743566770016,None,1093.0743566770016,None,1,2.7893219830002636,1093.0743566770016,None,1095.895794420001,None,1095.895794420001,None,1098.4023701780006,None,1098.4023701780006,None,0.9333581480004796,1100.2041764670012,None,1100.2041764670012,None,5,1,0.8009084910008823,1101.1239923700014,None,1101.1239923700014,None,1101.1239923700014,None,1101.9417741390007,None,1,0.38427114300066023,1101.9417741390007,None,120,1102.342491716001,None,141,B,1,2021_Jun_01_1326,GazeFlow,2020.1.2,59.86052497684305,
11,Block806.xls,B,6,3,88,88,None,congruent,Right,Right,Left,76,69,7,yellow,2,5,/home/docky/apps/exp/images/76Y.jpeg,/home/docky/apps/exp/images/69Yi.jpeg,0,10,10,10,0,2,2,2,1103.3443714990008,None,1103.3443714990008,None,1,2.8730513000009523,1103.3443714990008,None,1106.251467219001,None,1106.251467219001,None,1108.7539206400015,None,1108.7539206400015,None,0.9171280880000268,1110.5593844060004,None,1110.5593844060004,None,5,1,0.7508773740009929,1111.460819582,None,1111.460819582,None,1111.460819582,None,1112.228266641001,None,1,0.41750233699895034,1112.228266641001,None,122,1112.662599487001,None,141,B,1,2021_Jun_01_1326,GazeFlow,2020.1.2,59.86052497684305,
11,Block806.xls,B,6,4,109,13,None,incongruent,Right,Left,Right,33,35,2,yellow,2,6,/home/docky/apps/exp/images/33Yi.jpeg,/home/docky/apps/exp/images/35Y.jpeg,0,10,10,10,0,3,3,3,1113.6643042600008,None,1113.6643042600008,None,1,2.589986939001392,1113.6643042600008,None,1116.2873271879998,None,1116.2873271879998,None,1118.7904980250005,None,1118.7904980250005,None,0.9667648520007788,1120.5934668170012,None,1120.5934668170012,None,6,1,0.7174973229994066,1121.5470465300004,None,1121.5470465300004,None,1121.5470465300004,None,1122.2814496620013,None,1,0.3671005489995878,1122.2814496620013,None,124,1122.665112347,None,141,B,1,2021_Jun_01_1326,GazeFlow,2020.1.2,59.86052497684305,
11,Block806.xls,B,6,5,37,37,None,congruent,Right,Right,Left,79,73,6,blue,2,5,/home/docky/apps/exp/images/79Bi.jpeg,/home/docky/apps/exp/images/73B.jpeg,0,10,10,10,0,4,4,4,1123.6672321770002,None,1123.6672321770002,None,1,2.6056377529985184,1123.6672321770002,None,1126.3050323670013,None,1126.3050323670013,None,1128.8094142570008,None,1128.8094142570008,None,0.9167751670011057,1130.6123435440004,None,1130.6123435440004,None,5,1,0.7174192230013432,1131.5164360220006,None,1131.5164360220006,None,1131.5164360220006,None,1132.2505493690005,None,1,0.4174600710011873,1132.2505493690005,None,126,1132.6846987030003,None,141,B,1,2021_Jun_01_1326,GazeFlow,2020.1.2,59.86052497684305,
11,Block806.xls,B,6,6,108,12,None,incongruent,Left,Right,Left,39,38,1,blue,2,5,/home/docky/apps/exp/images/39Bi.jpeg,/home/docky/apps/exp/images/38B.jpeg,0,10,10,10,0,5,5,5,1133.6868251730011,None,1133.6868251730011,None,1,2.822630222000953,1133.6868251730011,None,1136.543492019,None,1136.543492019,None,1139.0466166730002,None,1139.0466166730002,None,1.5014261750002333,1140.8449270700003,None,1140.8449270700003,None,6,0,0.9521217920009803,1142.3371838330004,None,1142.3371838330004,None,1142.3371838330004,None,1143.30572382,None,1,0.36771130000124685,1143.30572382,None,124,1143.689798245001,None,141,B,1,2021_Jun_01_1326,GazeFlow,2020.1.2,59.86052497684305,
11,Block806.xls,B,6,7,52,52,None,congruent,Left,Left,Right,65,66,1,yellow,2,6,/home/docky/apps/exp/images/35B.jpeg,/home/docky/apps/exp/images/66Yi.jpeg,0,10,10,10,0,6,6,6,1144.6913815710013,None,1144.6913815710013,None,1,2.8566228309991857,1144.6913815710013,None,1147.5812974650016,None,1147.5812974650016,None,1150.0848076560014,None,1150.0848076560014,None,1.6846445650007809,1151.8826262130005,None,1151.8826262130005,None,5,0,1.051995165000335,1153.559296755,None,1153.559296755,None,1153.559296755,None,1154.627749999001,None,1,0.3502613229993585,1154.627749999001,None,122,1154.9946798560013,None,141,B,1,2021_Jun_01_1326,GazeFlow,2020.1.2,59.86052497684305,
11,Block806.xls,B,6,8,75,75,None,congruent,Right,Right,Left,35,33,2,yellow,2,5,/home/docky/apps/exp/images/35Yi.jpeg,/home/docky/apps/exp/images/33Y.jpeg,0,10,10,10,0,7,7,7,1155.996845234,None,1155.996845234,None,1,3.1232945490010025,1155.996845234,None,1159.1540542350012,None,1159.1540542350012,None,1161.6571773240012,None,1161.6571773240012,None,0.9500308869992296,1163.4605292680008,None,1163.4605292680008,None,5,1,0.7676253299996461,1164.3969921060016,None,1164.3969921060016,None,1164.3969921060016,None,1165.1812030950005,None,1,0.4341919179987599,1165.1812030950005,None,124,1165.631999663001,None,141,B,1,2021_Jun_01_1326,GazeFlow,2020.1.2,59.86052497684305,
11,Block806.xls,B,,,,,,,,,,,,,,,,,,0,10,10,10,,,,,,,,,,,,,,,,,,,,,,,,,,,,,,,,,,,,,,,,,,,,141,B,1,2021_Jun_01_1326,GazeFlow,2020.1.2,59.86052497684305,
12,Block811.xls,B,11,1,86,86,None,congruent,Right,Right,Left,75,69,6,yellow,2,5,/home/docky/apps/exp/images/76Y.jpeg,/home/docky/apps/exp/images/69Yi.jpeg,0,11,11,11,0,0,0,0,1185.8384645990009,None,1185.8384645990009,None,1,3.1005750040003477,1185.8384645990009,None,1188.9630135759999,None,1188.9630135759999,None,1191.4834485760002,None,1191.4834485760002,None,0.899194030000217,1193.2869582940002,None,1193.2869582940002,None,5,1,0.7842584170011833,1194.17140594,None,1194.17140594,None,1194.17140594,None,1194.9724502070003,None,1,0.4009130840004218,1194.9724502070003,None,126,1195.3899429440007,None,141,B,1,2021_Jun_01_1326,GazeFlow,2020.1.2,59.86052497684305,
12,Block811.xls,B,11,2,83,83,None,congruent,Right,Right,Left,75,69,6,yellow,2,5,/home/docky/apps/exp/images/76Yi.jpeg,/home/docky/apps/exp/images/69Y.jpeg,0,11,11,11,0,1,1,1,1196.3917789200004,None,1196.3917789200004,None,1,3.490854448000391,1196.3917789200004,None,1199.9163921610016,None,1199.9163921610016,None,1202.4197606060006,None,1202.4197606060006,None,0.8496987689995876,1204.2249076960015,None,1204.2249076960015,None,5,1,0.7673634160000802,1205.0594414490006,None,1205.0594414490006,None,1205.0594414490006,None,1205.8436998420002,None,1,0.38377682700047444,1205.8436998420002,None,128,1206.244278727001,None,141,B,1,2021_Jun_01_1326,GazeFlow,2020.1.2,59.86052497684305,
12,Block811.xls,B,11,3,28,28,None,congruent,Right,Right,Left,38,35,3,blue,2,5,/home/docky/apps/exp/images/38Bi.jpeg,/home/docky/apps/exp/images/35B.jpeg,0,11,11,11,0,2,2,2,1207.2462349470006,None,1207.2462349470006,None,1,2.8394848620009725,1207.2462349470006,None,1210.1235151960009,None,1210.1235151960009,None,1212.622700467,None,1212.622700467,None,0.9666162539997458,1214.4263381500004,None,1214.4263381500004,None,5,1,0.7513906459989812,1215.379132999,None,1215.379132999,None,1215.379132999,None,1216.1468187580012,None,1,0.4175093680005375,1216.1468187580012,None,130,1216.5812494150014,None,141,B,1,2021_Jun_01_1326,GazeFlow,2020.1.2,59.86052497684305,
12,Block811.xls,B,11,4,58,58,None,congruent,Left,Left,Right,62,65,3,yellow,2,6,/home/docky/apps/exp/images/38B.jpeg,/home/docky/apps/exp/images/35Bi.jpeg,0,11,11,11,0,3,3,3,1217.5829720770016,None,1217.5829720770016,None,1,3.6911731460004376,1217.5829720770016,None,1221.3081064870003,None,1221.3081064870003,None,1223.8137018840007,None,1223.8137018840007,None,0.9166688370005431,1225.6150708599998,None,1225.6150708599998,None,6,1,0.750823381000373,1226.5175843470006,None,1226.5175843470006,None,1226.5175843470006,None,1227.2852065759998,None,1,0.350728348001212,1227.2852065759998,None,132,1227.6527782230005,None,141,B,1,2021_Jun_01_1326,GazeFlow,2020.1.2,59.86052497684305,
12,Block811.xls,B,11,5,32,32,None,congruent,Right,Right,Left,66,65,1,blue,2,5,/home/docky/apps/exp/images/66Bi.jpeg,/home/docky/apps/exp/images/35Y.jpeg,0,11,11,11,0,4,4,4,1228.6545184780007,None,1228.6545184780007,None,1,2.5055865319991426,1228.6545184780007,None,1231.1938424740001,None,1231.1938424740001,None,1233.6967767800015,None,1233.6967767800015,None,1.0169994870011578,1235.5002697420005,None,1235.5002697420005,None,5,1,0.8009802799988393,1236.503742926001,None,1236.503742926001,None,1236.503742926001,None,1237.3214263280006,None,1,0.4009728049986734,1237.3214263280006,None,134,1237.7385167500015,None,141,B,1,2021_Jun_01_1326,GazeFlow,2020.1.2,59.86052497684305,
12,Block811.xls,B,11,6,67,67,None,congruent,Left,Left,Right,72,77,5,yellow,2,6,/home/docky/apps/exp/images/72Y.jpeg,/home/docky/apps/exp/images/77Yi.jpeg,0,11,11,11,0,5,5,5,1238.7407553700014,None,1238.7407553700014,None,1,3.0232157680002274,1238.7407553700014,None,1241.797278209,None,1241.797278209,None,1244.3026692530002,None,1244.3026692530002,None,0.8997755180007516,1246.1048549780007,None,1246.1048549780007,None,6,1,0.7341940969999996,1246.9907056540014,None,1246.9907056540014,None,1246.9907056540014,None,1247.7414521360006,None,1,0.3675974199995835,1247.7414521360006,None,136,1248.1254814880012,None,141,B,1,2021_Jun_01_1326,GazeFlow,2020.1.2,59.86052497684305,
12,Block811.xls,B,11,7,120,24,None,incongruent,Left,Right,Left,77,72,5,yellow,2,5,/home/docky/apps/exp/images/77Y.jpeg,/home/docky/apps/exp/images/72Yi.jpeg,0,11,11,11,0,6,6,6,1249.1279638960004,None,1249.1279638960004,None,1,2.822882603000835,1249.1279638960004,None,1251.989219348001,None,1251.989219348001,None,1254.488970886001,None,1254.488970886001,None,0.9833760649999022,1256.290550175001,None,1256.290550175001,None,5,1,0.8175250299991603,1257.2608789280002,None,1257.2608789280002,None,1257.2608789280002,None,1258.0948850180012,None,1,0.41738356099995144,1258.0948850180012,None,138,1258.5291041400014,None,141,B,1,2021_Jun_01_1326,GazeFlow,2020.1.2,59.86052497684305,
12,Block811.xls,B,11,8,57,57,None,congruent,Left,Left,Right,62,65,3,yellow,2,6,/home/docky/apps/exp/images/38Bi.jpeg,/home/docky/apps/exp/images/35B.jpeg,0,11,11,11,0,7,7,7,1259.5312582590013,None,1259.5312582590013,None,1,2.8398454100006347,1259.5312582590013,None,1262.4044950930002,None,1262.4044950930002,None,1264.9091000730004,None,1264.9091000730004,None,0.8166466889997537,1266.7124694150007,None,1266.7124694150007,None,6,1,0.7676062300015474,1267.5139119020005,None,1267.5139119020005,None,1267.5139119020005,None,1268.298446529001,None,1,0.3670333080008277,1268.298446529001,None,140,1268.68236798,None,141,B,1,2021_Jun_01_1326,GazeFlow,2020.1.2,59.86052497684305,
12,Block811.xls,B,,,,,,,,,,,,,,,,,,0,11,11,11,,,,,,,,,,,,,,,,,,,,,,,,,,,,,,,,,,,,,,,,,,,,141,B,1,2021_Jun_01_1326,GazeFlow,2020.1.2,59.86052497684305,
13,Block808.xls,B,8,1,118,22,None,incongruent,Left,Right,Left,75,69,6,yellow,2,5,/home/docky/apps/exp/images/76Y.jpeg,/home/docky/apps/exp/images/69Yi.jpeg,0,12,12,12,0,0,0,0,1293.3819146880014,None,1293.3819146880014,None,1,6.21926714500114,1293.3819146880014,None,1299.6284310270003,None,1299.6284310270003,None,1302.1483614160006,None,1302.1483614160006,None,0.29877178400056437,1303.945786780001,None,1303.945786780001,None,5,1,15.268874961999245,1304.246118268,None,1304.246118268,None,1304.246118268,None,1319.5313799060004,None,1,5.728160984999704,1319.5313799060004,None,142,1325.275933459001,None,141,B,1,2021_Jun_01_1326,GazeFlow,2020.1.2,59.86052497684305,
13,Block808.xls,B,8,2,7,7,None,congruent,Left,Left,Right,65,66,1,blue,2,6,/home/docky/apps/exp/images/35Yi.jpeg,/home/docky/apps/exp/images/66B.jpeg,0,12,12,12,0,1,1,1,1326.2778808070016,None,1326.2778808070016,None,1,2.1043384130007325,1326.2778808070016,None,1328.4159440990006,None,1328.4159440990006,None,1330.919017346001,None,1330.919017346001,None,1.5520335500004876,1332.7220007619999,None,1332.7220007619999,None,6,1,0.7680265759991016,1334.2774095530003,None,1334.2774095530003,None,1334.2774095530003,None,1335.0613604240007,None,1,0.4515323649993661,1335.0613604240007,None,144,1335.5291815159999,None,141,B,1,2021_Jun_01_1326,GazeFlow,2020.1.2,59.86052497684305,
13,Block808.xls,B,8,3,112,16,None,incongruent,Right,Left,Right,69,76,7,yellow,2,6,/home/docky/apps/exp/images/69Yi.jpeg,/home/docky/apps/exp/images/76Y.jpeg,0,12,12,12,0,2,2,2,1336.5312383190012,None,1336.5312383190012,None,1,10.404195017999882,1336.5312383190012,None,1346.968749869,None,1346.968749869,None,1349.4718756800012,None,1349.4718756800012,None,1.3513247869996121,1351.2749751610008,None,1351.2749751610008,None,5,0,0.825085485001182,1352.6227215670006,None,1352.6227215670006,None,1352.6227215670006,None,1353.4638192720013,None,1,0.46806497200122976,1353.4638192720013,None,142,1353.9481146940016,None,141,B,1,2021_Jun_01_1326,GazeFlow,2020.1.2,59.86052497684305,
13,Block808.xls,B,8,4,97,1,None,incongruent,Right,Left,Right,16,19,3,blue,2,6,/home/docky/apps/exp/images/16Bi.jpeg,/home/docky/apps/exp/images/19B.jpeg,0,12,12,12,0,3,3,3,1354.9502786990015,None,1354.9502786990015,None,1,4.826370970000426,1354.9502786990015,None,1359.8102678390005,None,1359.8102678390005,None,1362.314939381,None,1362.314939381,None,1.3012093479992473,1364.1185598470001,None,1364.1185598470001,None,5,0,0.8077959639995242,1365.4144985500006,None,1365.4144985500006,None,1365.4144985500006,None,1366.2388221780002,None,1,0.40099153600021964,1366.2388221780002,None,140,1366.6561218430015,None,141,B,1,2021_Jun_01_1326,GazeFlow,2020.1.2,59.86052497684305,
13,Block808.xls,B,8,5,24,24,None,congruent,Left,Left,Right,80,83,3,blue,2,6,/home/docky/apps/exp/images/80Bi.jpeg,/home/docky/apps/exp/images/83B.jpeg,0,12,12,12,0,4,4,4,1367.6583314360014,None,1367.6583314360014,None,1,4.141595675000644,1367.6583314360014,None,1371.8337103310005,None,1371.8337103310005,None,1374.3387922030015,None,1374.3387922030015,None,1.1343867800005683,1376.1472925730013,None,1376.1472925730013,None,6,1,0.690102777998618,1377.2716613860011,None,1377.2716613860011,None,1377.2716613860011,None,1377.9783013560009,None,1,0.38463115400008974,1377.9783013560009,None,142,1378.3790389160004,None,141,B,1,2021_Jun_01_1326,GazeFlow,2020.1.2,59.86052497684305,
13,Block808.xls,B,8,6,13,13,None,congruent,Left,Left,Right,38,39,1,blue,2,6,/home/docky/apps/exp/images/38Bi.jpeg,/home/docky/apps/exp/images/39B.jpeg,0,12,12,12,0,5,5,5,1379.3810565430013,None,1379.3810565430013,None,1,3.0562762069985183,1379.3810565430013,None,1382.4707381429998,None,1382.4707381429998,None,1384.974364482001,None,1384.974364482001,None,1.1172710649989313,1386.7793812260006,None,1386.7793812260006,None,6,1,0.7243741980000777,1387.891472579,None,1387.891472579,None,1387.891472579,None,1388.632445352001,None,1,0.416911350999726,1388.632445352001,None,144,1389.0666568060005,None,141,B,1,2021_Jun_01_1326,GazeFlow,2020.1.2,59.86052497684305,
13,Block808.xls,B,8,7,8,8,None,congruent,Left,Left,Right,65,66,1,blue,2,6,/home/docky/apps/exp/images/35Y.jpeg,/home/docky/apps/exp/images/66Bi.jpeg,0,12,12,12,0,6,6,6,1390.0682568370012,None,1390.0682568370012,None,1,3.440604131999862,1390.0682568370012,None,1393.5409314330009,None,1393.5409314330009,None,1396.0471903870002,None,1396.0471903870002,None,0.9505374039999879,1397.8452451850007,None,1397.8452451850007,None,6,1,0.7233850910015462,1398.7961312470015,None,1398.7961312470015,None,1398.7961312470015,None,1399.536373291001,None,1,0.4341726250004285,1399.536373291001,None,146,1399.987108493,None,141,B,1,2021_Jun_01_1326,GazeFlow,2020.1.2,59.86052497684305,
13,Block808.xls,B,8,8,31,31,None,congruent,Right,Right,Left,66,65,1,blue,2,5,/home/docky/apps/exp/images/66B.jpeg,/home/docky/apps/exp/images/35Yi.jpeg,0,12,12,12,0,7,7,7,1400.9891298370003,None,1400.9891298370003,None,1,3.190219945001445,1400.9891298370003,None,1404.2133127630004,None,1404.2133127630004,None,1406.7180321180003,None,1406.7180321180003,None,1.0672106919992075,1408.519876249,None,1408.519876249,None,5,1,0.8844687430009799,1409.5731369600016,None,1409.5731369600016,None,1409.5731369600016,None,1410.4744488960005,None,1,0.4681744859990431,1410.4744488960005,None,148,1410.959012116,None,141,B,1,2021_Jun_01_1326,GazeFlow,2020.1.2,59.86052497684305,
13,Block808.xls,B,,,,,,,,,,,,,,,,,,0,12,12,12,,,,,,,,,,,,,,,,,,,,,,,,,,,,,,,,,,,,,,,,,,,,141,B,1,2021_Jun_01_1326,GazeFlow,2020.1.2,59.86052497684305,
14,Block815.xls,B,15,1,65,65,None,congruent,Left,Left,Right,69,76,7,yellow,2,6,/home/docky/apps/exp/images/69Yi.jpeg,/home/docky/apps/exp/images/76Y.jpeg,0,13,13,13,0,0,0,0,1438.446953523,None,1438.446953523,None,1,5.234368330999132,1438.446953523,None,1443.7082293330004,None,1443.7082293330004,None,1446.2281907900015,None,1446.2281907900015,None,1.3170202130004327,1448.030418104001,None,1448.030418104001,None,6,1,0.7010901820012805,1449.3336912210016,None,1449.3336912210016,None,1449.3336912210016,None,1450.0514187120007,None,1,0.3845405270003539,1450.0514187120007,None,150,1450.4524681399998,None,141,B,1,2021_Jun_01_1326,GazeFlow,2020.1.2,59.86052497684305,
14,Block815.xls,B,15,2,102,6,None,incongruent,Right,Left,Right,80,83,3,blue,2,6,/home/docky/apps/exp/images/80B.jpeg,/home/docky/apps/exp/images/83Bi.jpeg,0,13,13,13,0,1,1,1,1451.4539538040008,None,1451.4539538040008,None,1,2.872897433999242,1451.4539538040008,None,1454.3604701820004,None,1454.3604701820004,None,1456.865343077001,None,1456.865343077001,None,0.9333271080013219,1458.6670794600013,None,1458.6670794600013,None,6,1,0.7342545019982936,1459.5870048380002,None,1459.5870048380002,None,1459.5870048380002,None,1460.3377543850002,None,1,0.4008938520000811,1460.3377543850002,None,152,1460.7550292350006,None,141,B,1,2021_Jun_01_1326,GazeFlow,2020.1.2,59.86052497684305,
14,Block815.xls,B,15,3,33,33,None,congruent,Right,Right,Left,66,65,1,blue,2,5,/home/docky/apps/exp/images/66Bi.jpeg,/home/docky/apps/exp/images/35Y.jpeg,0,13,13,13,0,2,2,2,1461.75720077,None,1461.75720077,None,1,2.705998487001125,1461.75720077,None,1464.4971665730009,None,1464.4971665730009,None,1467.0017761030012,None,1467.0017761030012,None,0.9165179440005886,1468.7981576210004,None,1468.7981576210004,None,5,1,0.7845651010011352,1469.7065437210003,None,1469.7065437210003,None,1469.7065437210003,None,1470.507608146001,None,1,0.38401545499982603,1470.507608146001,None,154,1470.9084615270003,None,141,B,1,2021_Jun_01_1326,GazeFlow,2020.1.2,59.86052497684305,
14,Block815.xls,B,15,4,72,72,None,congruent,Left,Left,Right,79,82,3,yellow,2,6,/home/docky/apps/exp/images/79Yi.jpeg,/home/docky/apps/exp/images/80Y.jpeg,0,13,13,13,0,3,3,3,1471.910605815001,None,1471.910605815001,None,1,3.0230343109997193,1471.910605815001,None,1474.9674377160009,None,1474.9674377160009,None,1477.472235878,None,1477.472235878,None,0.9164708719999908,1479.2737587460015,None,1479.2737587460015,None,6,1,0.7009801099993638,1480.1767700260007,None,1480.1767700260007,None,1480.1767700260007,None,1480.8945059390007,None,1,0.3674273490014457,1480.8945059390007,None,156,1481.27849866,None,141,B,1,2021_Jun_01_1326,GazeFlow,2020.1.2,59.86052497684305,
14,Block815.xls,B,15,5,100,4,None,incongruent,Right,Left,Right,73,76,3,blue,2,6,/home/docky/apps/exp/images/73B.jpeg,/home/docky/apps/exp/images/76Bi.jpeg,0,13,13,13,0,4,4,4,1482.2802103180002,None,1482.2802103180002,None,1,2.8065430379992904,1482.2802103180002,None,1485.1213612930005,None,1485.1213612930005,None,1487.6249032619999,None,1487.6249032619999,None,0.8665072200001305,1489.4272860690016,None,1489.4272860690016,None,6,1,0.9347184750004089,1490.279833521001,None,1490.279833521001,None,1490.279833521001,None,1491.2311243290005,None,1,0.31734458199935034,1491.2311243290005,None,158,1491.565262946,None,141,B,1,2021_Jun_01_1326,GazeFlow,2020.1.2,59.86052497684305,
14,Block815.xls,B,15,6,45,45,None,congruent,Right,Right,Left,39,38,1,blue,2,5,/home/docky/apps/exp/images/39B.jpeg,/home/docky/apps/exp/images/38Bi.jpeg,0,13,13,13,0,5,5,5,1492.5668844950014,None,1492.5668844950014,None,1,2.9232929369991325,1492.5668844950014,None,1495.529685466001,None,1495.529685466001,None,1498.0312801420005,None,1498.0312801420005,None,0.8833289200010768,1499.825446969,None,1499.825446969,None,5,1,0.7847604309990857,1500.7001579530006,None,1500.7001579530006,None,1500.7001579530006,None,1501.5011139770013,None,1,0.43415654499949596,1501.5011139770013,None,160,1501.9522366410001,None,141,B,1,2021_Jun_01_1326,GazeFlow,2020.1.2,59.86052497684305,
14,Block815.xls,B,15,7,98,2,None,incongruent,Right,Left,Right,35,38,3,blue,2,6,/home/docky/apps/exp/images/35Bi.jpeg,/home/docky/apps/exp/images/38B.jpeg,0,13,13,13,0,6,6,6,1502.9541346620008,None,1502.9541346620008,None,1,3.0063583020000806,1502.9541346620008,None,1505.9944030240003,None,1505.9944030240003,None,1508.4975779570013,None,1508.4975779570013,None,1.5343621259999054,1510.3027222640012,None,1510.3027222640012,None,6,1,1.034430824998708,1511.8218435070012,None,1511.8218435070012,None,1511.8218435070012,None,1512.873902094001,None,1,0.3172999400012486,1512.873902094001,None,162,1513.2071293490008,None,141,B,1,2021_Jun_01_1326,GazeFlow,2020.1.2,59.86052497684305,
14,Block815.xls,B,15,8,59,59,None,congruent,Left,Left,Right,38,39,1,yellow,2,6,/home/docky/apps/exp/images/38Yi.jpeg,/home/docky/apps/exp/images/39Y.jpeg,0,13,13,13,0,7,7,7,1514.2091514420008,None,1514.2091514420008,None,1,2.6223300629990263,1514.2091514420008,None,1516.8651842510008,None,1516.8651842510008,None,1519.3682369830003,None,1519.3682369830003,None,0.7997282510004879,1521.1738808040009,None,1521.1738808040009,None,6,1,0.7674999939990812,1521.958115937001,None,1521.958115937001,None,1521.958115937001,None,1522.7424603550007,None,1,0.48428520600100455,1522.7424603550007,None,164,1523.243466031001,None,141,B,1,2021_Jun_01_1326,GazeFlow,2020.1.2,59.86052497684305,
14,Block815.xls,B,,,,,,,,,,,,,,,,,,0,13,13,13,,,,,,,,,,,,,,,,,,,,,,,,,,,,,,,,,,,,,,,,,,,,141,B,1,2021_Jun_01_1326,GazeFlow,2020.1.2,59.86052497684305,
15,Block807.xls,B,7,1,71,71,None,congruent,Left,Left,Right,79,82,3,yellow,2,6,/home/docky/apps/exp/images/79Y.jpeg,/home/docky/apps/exp/images/80Yi.jpeg,0,14,14,14,0,0,0,0,1550.8332503910005,None,1550.8332503910005,None,1,3.361454068999592,1550.8332503910005,None,1554.226653398,None,1554.226653398,None,1556.7428679690001,None,1556.7428679690001,None,0.9159980550011824,1558.5466598490002,None,1558.5466598490002,None,6,1,0.7514486429990939,1559.4473164910014,None,1559.4473164910014,None,1559.4473164910014,None,1560.2149401510014,None,1,0.45118538300084765,1560.2149401510014,None,166,1560.6828017860007,None,141,B,1,2021_Jun_01_1326,GazeFlow,2020.1.2,59.86052497684305,
15,Block807.xls,B,7,2,44,44,None,congruent,Right,Right,Left,83,80,3,blue,2,5,/home/docky/apps/exp/images/83Bi.jpeg,/home/docky/apps/exp/images/80B.jpeg,0,14,14,14,0,1,1,1,1561.6843707970002,None,1561.6843707970002,None,1,2.7729368709988194,1561.6843707970002,None,1564.4896476210015,None,1564.4896476210015,None,1566.9960594830009,None,1566.9960594830009,None,0.7831765610008006,1568.7922138070007,None,1568.7922138070007,None,5,1,0.7674059469991334,1569.5673022400006,None,1569.5673022400006,None,1569.5673022400006,None,1570.35133899,None,1,0.4844245590011269,1570.35133899,None,168,1570.8526490000004,None,141,B,1,2021_Jun_01_1326,GazeFlow,2020.1.2,59.86052497684305,
15,Block807.xls,B,7,3,48,48,None,congruent,Right,Right,Left,39,38,1,blue,2,5,/home/docky/apps/exp/images/39Bi.jpeg,/home/docky/apps/exp/images/38B.jpeg,0,14,14,14,0,2,2,2,1571.8544889559998,None,1571.8544889559998,None,1,3.758486492999509,1571.8544889559998,None,1575.6445489450016,None,1575.6445489450016,None,1578.1495686960006,None,1578.1495686960006,None,1.2005015979993914,1579.9471287770011,None,1579.9471287770011,None,5,1,0.8678163479999057,1581.1394696410007,None,1581.1394696410007,None,1581.1394696410007,None,1582.024185102,None,1,0.36844889799976954,1582.024185102,None,170,1582.4086296800015,None,141,B,1,2021_Jun_01_1326,GazeFlow,2020.1.2,59.86052497684305,
15,Block807.xls,B,7,4,113,17,None,incongruent,Right,Left,Right,72,77,5,yellow,2,6,/home/docky/apps/exp/images/72Yi.jpeg,/home/docky/apps/exp/images/77Y.jpeg,0,14,14,14,0,3,3,3,1583.4101321480011,None,1583.4101321480011,None,1,3.0734698190008203,1583.4101321480011,None,1586.515764107,None,1586.515764107,None,1589.0224848940015,None,1589.0224848940015,None,0.7829542320014298,1590.819099016,None,1590.819099016,None,6,1,0.7341638460002287,1591.593426278001,None,1591.593426278001,None,1591.593426278001,None,1592.3444210180005,None,1,0.35073570699933043,1592.3444210180005,None,172,1592.7115826670015,None,141,B,1,2021_Jun_01_1326,GazeFlow,2020.1.2,59.86052497684305,
15,Block807.xls,B,7,5,69,69,None,congruent,Left,Left,Right,72,77,5,yellow,2,6,/home/docky/apps/exp/images/72Y.jpeg,/home/docky/apps/exp/images/77Yi.jpeg,0,14,14,14,0,4,4,4,1593.7139739540016,None,1593.7139739540016,None,1,3.640705996000179,1593.7139739540016,None,1597.3905336870012,None,1597.3905336870012,None,1599.893217922001,None,1599.893217922001,None,0.8833147429995734,1601.6966066140012,None,1601.6966066140012,None,6,1,0.7515356160001829,1602.5643688290002,None,1602.5643688290002,None,1602.5643688290002,None,1603.332105464,None,1,0.4510643239991623,1603.332105464,None,174,1603.7997311950003,None,141,B,1,2021_Jun_01_1326,GazeFlow,2020.1.2,59.86052497684305,
15,Block807.xls,B,7,6,39,39,None,congruent,Right,Right,Left,79,76,3,blue,2,5,/home/docky/apps/exp/images/79B.jpeg,/home/docky/apps/exp/images/76Bi.jpeg,0,14,14,14,0,5,5,5,1604.801915338001,None,1604.801915338001,None,1,3.1400294769991888,1604.801915338001,None,1607.9728332440009,None,1607.9728332440009,None,1610.4826344470002,None,1610.4826344470002,None,0.9165021570006502,1612.2816734380012,None,1612.2816734380012,None,5,1,0.7337926030013477,1613.1855020420007,None,1613.1855020420007,None,1613.1855020420007,None,1613.9358647360004,None,1,0.4345414970011916,1613.9358647360004,None,176,1614.3870648110005,None,141,B,1,2021_Jun_01_1326,GazeFlow,2020.1.2,59.86052497684305,
15,Block807.xls,B,7,7,50,50,None,congruent,Left,Left,Right,33,35,2,yellow,2,6,/home/docky/apps/exp/images/33Y.jpeg,/home/docky/apps/exp/images/35Yi.jpeg,0,14,14,14,0,6,6,6,1615.388922211001,None,1615.388922211001,None,1,2.7563998390014604,1615.388922211001,None,1618.1786100560003,None,1618.1786100560003,None,1620.683703988001,None,1620.683703988001,None,0.9505840010006068,1622.4874475640008,None,1622.4874475640008,None,6,1,0.7179798039978778,1623.421759854,None,1623.421759854,None,1623.421759854,None,1624.1559312200025,None,1,0.4510188510030275,1624.1559312200025,None,178,1624.6237639539995,None,141,B,1,2021_Jun_01_1326,GazeFlow,2020.1.2,59.86052497684305,
15,Block807.xls,B,7,8,19,19,None,congruent,Left,Left,Right,76,79,3,blue,2,6,/home/docky/apps/exp/images/76B.jpeg,/home/docky/apps/exp/images/79Bi.jpeg,0,14,14,14,0,7,7,7,1625.6255395490025,None,1625.6255395490025,None,1,3.29080194099879,1625.6255395490025,None,1628.949784243001,None,1628.949784243001,None,1631.4531335379997,None,1631.4531335379997,None,0.9836666680021153,1633.2565296529992,None,1633.2565296529992,None,6,1,0.7339924049992987,1634.2263092500016,None,1634.2263092500016,None,1634.2263092500016,None,1634.976970116999,None,1,0.434628741000779,1634.976970116999,None,180,1635.4276783139994,None,141,B,1,2021_Jun_01_1326,GazeFlow,2020.1.2,59.86052497684305,
15,Block807.xls,B,,,,,,,,,,,,,,,,,,0,14,14,14,,,,,,,,,,,,,,,,,,,,,,,,,,,,,,,,,,,,,,,,,,,,141,B,1,2021_Jun_01_1326,GazeFlow,2020.1.2,59.86052497684305,
