Nblock,condsFile,grouping,Block,TrialBlock,N,trialN,trialCond,gazeCon,gazedirR,corrBinR,corrBinP,valLBY,valRBY,diff,colorCube,feedbacktext,corrAns,imageL,imageR,SelBlocks.thisRepN,SelBlocks.thisTrialN,SelBlocks.thisN,SelBlocks.thisIndex,Trials.thisRepN,Trials.thisTrialN,Trials.thisN,Trials.thisIndex,waitCube.started,waitCube.stopped,text_3.started,text_3.stopped,StartKeyPress.keys,StartKeyPress.rt,StartKeyPress.started,StartKeyPress.stopped,StimL.started,StimL.stopped,StimR.started,StimR.stopped,imageStim2L.started,imageStim2L.stopped,imageStim2R.started,imageStim2R.stopped,RTkeyRelease,imageStim3L.started,imageStim3L.stopped,imageStim3R.started,imageStim3R.stopped,dropResp.keys,dropResp.corr,dropResp.rt,dropResp.started,dropResp.stopped,imageStim5L.started,imageStim5L.stopped,imageStim5R.started,imageStim5R.stopped,text_2.started,text_2.stopped,ReturnSpace.keys,ReturnSpace.rt,ReturnSpace.started,ReturnSpace.stopped,totalpoints,textFeedback.started,textFeedback.stopped,participant,group,session,date,expName,psychopyVersion,frameRate,
1,Block502.xls,A,2,1,93,33,22,incongruent,Left,Right,Left,38,35,3,blue,2,5,/home/docky/apps/exp/images/38B.jpeg,/home/docky/apps/exp/images/35Bi.jpeg,0,0,0,0,0,0,0,0,51.770955608000804,None,51.770955608000804,None,1,4.794357836999552,51.770955608000804,None,56.598163048998686,None,56.598163048998686,None,59.11934667300011,None,59.11934667300011,None,1.3836546780003118,60.906012012001156,None,60.906012012001156,None,5,1,1.0189664350000385,62.27210753400141,None,62.27210753400141,None,62.27210753400141,None,63.30741425499946,None,1,0.6010550809987762,63.30741425499946,None,2,63.924909230001504,None,142,A,1,2021_Jun_01_1500,GazeFlow,2020.1.2,59.77460741066983,
1,Block502.xls,A,2,2,42,42,12,congruent,Right,Right,Left,83,80,3,blue,2,5,/home/docky/apps/exp/images/83Bi.jpeg,/home/docky/apps/exp/images/80B.jpeg,0,0,0,0,0,1,1,1,64.92706047899992,None,64.92706047899992,None,1,3.641174091000721,64.92706047899992,None,68.60156122099943,None,68.60156122099943,None,71.10507473300095,None,71.10507473300095,None,1.7013656260023708,72.90831708100086,None,72.90831708100086,None,5,1,1.719684056002734,74.59628246699867,None,74.59628246699867,None,74.59628246699867,None,76.33229197499895,None,1,2.37196701799985,76.33229197499895,None,4,78.720702128001,None,142,A,1,2021_Jun_01_1500,GazeFlow,2020.1.2,59.77460741066983,
1,Block502.xls,A,2,3,9,9,11,congruent,Left,Left,Right,38,39,1,blue,2,6,/home/docky/apps/exp/images/38Bi.jpeg,/home/docky/apps/exp/images/39B.jpeg,0,0,0,0,0,2,2,2,79.72271905100206,None,79.72271905100206,None,1,3.974513585999375,79.72271905100206,None,83.73115165900163,None,83.73115165900163,None,86.23433658900103,None,86.23433658900103,None,1.2674602690021857,88.03931009699954,None,88.03931009699954,None,5,0,2.97229845900074,89.2911136699986,None,89.2911136699986,None,89.2911136699986,None,92.28061816199988,None,1,0.8348018239994417,92.28061816199988,None,2,93.13204373999906,None,142,A,1,2021_Jun_01_1500,GazeFlow,2020.1.2,59.77460741066983,
1,Block502.xls,A,2,4,23,23,11,congruent,Left,Left,Right,38,39,1,yellow,2,6,/home/docky/apps/exp/images/38Yi.jpeg,/home/docky/apps/exp/images/39Y.jpeg,0,0,0,0,0,3,3,3,94.13405079600125,None,94.13405079600125,None,1,4.4087556960002985,94.13405079600125,None,98.57642670199857,None,98.57642670199857,None,101.08152014000007,None,101.08152014000007,None,1.7349859959977039,102.88360974099851,None,102.88360974099851,None,5,0,1.3686496739974245,104.60449095399963,None,104.60449095399963,None,104.60449095399963,None,105.99019109100118,None,1,0.651332261000789,105.99019109100118,None,0,106.6576999200006,None,142,A,1,2021_Jun_01_1500,GazeFlow,2020.1.2,59.77460741066983,
1,Block502.xls,A,2,5,57,57,12,congruent,Right,Right,Left,77,72,5,yellow,2,5,/home/docky/apps/exp/images/77Y.jpeg,/home/docky/apps/exp/images/72Yi.jpeg,0,0,0,0,0,4,4,4,107.65998124600083,None,107.65998124600083,None,1,4.726403606000531,107.65998124600083,None,112.4203839949987,None,112.4203839949987,None,114.92354060399884,None,114.92354060399884,None,1.517620287999307,116.72870322499875,None,116.72870322499875,None,5,1,1.168796571000712,118.23099081300097,None,118.23099081300097,None,118.23099081300097,None,119.4164855300005,None,1,0.7343964320025407,119.4164855300005,None,2,120.16752065100081,None,142,A,1,2021_Jun_01_1500,GazeFlow,2020.1.2,59.77460741066983,
1,Block502.xls,A,2,6,118,58,22,incongruent,Left,Right,Left,80,79,1,yellow,2,5,/home/docky/apps/exp/images/80Yi.jpeg,/home/docky/apps/exp/images/79Y.jpeg,0,0,0,0,0,5,5,5,121.1695330399998,None,121.1695330399998,None,1,4.9434885020018555,121.1695330399998,None,126.14694576900001,None,126.14694576900001,None,128.65025308300028,None,128.65025308300028,None,1.4673765919978905,130.45498741600022,None,130.45498741600022,None,5,1,1.2694308639984229,131.90738210700147,None,131.90738210700147,None,131.90738210700147,None,133.1930202479998,None,1,0.6675265489975573,133.1930202479998,None,4,133.87737798799935,None,142,A,1,2021_Jun_01_1500,GazeFlow,2020.1.2,59.77460741066983,
1,Block502.xls,A,2,7,101,41,22,incongruent,Left,Right,Left,83,80,3,blue,2,5,/home/docky/apps/exp/images/83Bi.jpeg,/home/docky/apps/exp/images/80B.jpeg,0,0,0,0,0,6,6,6,134.87916733800012,None,134.87916733800012,None,1,4.275855996998871,134.87916733800012,None,139.18893828599903,None,139.18893828599903,None,141.69192296899928,None,141.69192296899928,None,0.3659305309993215,143.49540264499956,None,143.49540264499956,None,5,1,3.194770083999174,143.85878050199972,None,143.85878050199972,None,143.85878050199972,None,147.0700779079998,None,1,0.9186839520007197,147.0700779079998,None,6,148.0051163829994,None,142,A,1,2021_Jun_01_1500,GazeFlow,2020.1.2,59.77460741066983,
1,Block502.xls,A,2,8,69,9,21,incongruent,Right,Left,Right,73,76,3,blue,2,6,/home/docky/apps/exp/images/73B.jpeg,/home/docky/apps/exp/images/76Bi.jpeg,0,0,0,0,0,7,7,7,149.00729866099937,None,149.00729866099937,None,1,8.767312665997451,149.00729866099937,None,157.80830391400013,None,157.80830391400013,None,160.31177132800076,None,160.31177132800076,None,2.45329446499818,162.11656554699948,None,162.11656554699948,None,6,1,1.6882861590020184,164.5696516019998,None,164.5696516019998,None,164.5696516019998,None,166.27413639299994,None,1,0.7687182089975977,166.27413639299994,None,8,167.05895937099922,None,142,A,1,2021_Jun_01_1500,GazeFlow,2020.1.2,59.77460741066983,
1,Block502.xls,A,,,,,,,,,,,,,,,,,,0,0,0,0,,,,,,,,,,,,,,,,,,,,,,,,,,,,,,,,,,,,,,,,,,,,142,A,1,2021_Jun_01_1500,GazeFlow,2020.1.2,59.77460741066983,
2,Block506.xls,A,6,1,120,60,22,incongruent,Left,Right,Left,80,79,1,yellow,2,5,/home/docky/apps/exp/images/80Yi.jpeg,/home/docky/apps/exp/images/79Y.jpeg,0,1,1,1,0,0,0,0,190.70563721800136,None,190.70563721800136,None,1,6.469215062003059,190.70563721800136,None,197.20527255599882,None,197.20527255599882,None,199.7231803579998,None,199.7231803579998,None,2.2525004819981405,201.52617155500047,None,201.52617155500047,None,6,0,1.1516427290007414,203.78114892500162,None,203.78114892500162,None,203.78114892500162,None,204.94917178000105,None,1,0.7020625799996196,204.94917178000105,None,6,205.66727706800157,None,142,A,1,2021_Jun_01_1500,GazeFlow,2020.1.2,59.77460741066983,
2,Block506.xls,A,6,2,51,51,12,congruent,Right,Right,Left,66,65,1,yellow,2,5,/home/docky/apps/exp/images/66Y.jpeg,/home/docky/apps/exp/images/35Bi.jpeg,0,1,1,1,0,1,1,1,206.66917747200205,None,206.66917747200205,None,1,4.759607492000214,206.66917747200205,None,211.462785609001,None,211.462785609001,None,213.96896996899886,None,213.96896996899886,None,2.2866494990012143,215.7706376979986,None,215.7706376979986,None,5,1,1.0682961380007328,218.05887846000041,None,218.05887846000041,None,218.05887846000041,None,219.1434257990004,None,1,0.7687389900020207,219.1434257990004,None,8,219.92828721000114,None,142,A,1,2021_Jun_01_1500,GazeFlow,2020.1.2,59.77460741066983,
2,Block506.xls,A,6,3,119,59,22,incongruent,Left,Right,Left,80,79,1,yellow,2,5,/home/docky/apps/exp/images/80Y.jpeg,/home/docky/apps/exp/images/79Yi.jpeg,0,1,1,1,0,2,2,2,220.93029559700153,None,220.93029559700153,None,1,4.5930291099975875,220.93029559700153,None,225.55721856400123,None,225.55721856400123,None,228.0595278360015,None,228.0595278360015,None,1.7021121370016772,229.86344508000184,None,229.86344508000184,None,5,1,1.1017814420010836,231.56816413300112,None,231.56816413300112,None,231.56816413300112,None,232.68646212300155,None,1,0.8518755149998469,232.68646212300155,None,10,233.55469376600013,None,142,A,1,2021_Jun_01_1500,GazeFlow,2020.1.2,59.77460741066983,
2,Block506.xls,A,6,4,28,28,11,congruent,Left,Left,Right,72,77,5,yellow,2,6,/home/docky/apps/exp/images/72Y.jpeg,/home/docky/apps/exp/images/77Yi.jpeg,0,1,1,1,0,3,3,3,234.55680214899985,None,234.55680214899985,None,1,3.8910246480008936,234.55680214899985,None,238.48170224899877,None,238.48170224899877,None,240.98468962400148,None,240.98468962400148,None,1.4015251600030751,242.78807239999878,None,242.78807239999878,None,6,1,1.225439166999422,244.18628328200066,None,244.18628328200066,None,244.18628328200066,None,245.4278927939995,None,1,0.6514411690004636,245.4278927939995,None,12,246.09584043400173,None,142,A,1,2021_Jun_01_1500,GazeFlow,2020.1.2,59.77460741066983,
2,Block506.xls,A,6,5,85,25,21,incongruent,Right,Left,Right,69,75,6,yellow,2,6,/home/docky/apps/exp/images/69Y.jpeg,/home/docky/apps/exp/images/76Yi.jpeg,0,1,1,1,0,4,4,4,247.09771763900062,None,247.09771763900062,None,1,3.4402810179999506,247.09771763900062,None,250.5716077270008,None,250.5716077270008,None,253.07665007299875,None,253.07665007299875,None,2.0359280789998593,254.88023223100026,None,254.88023223100026,None,6,1,1.0848086010009865,256.9177087060016,None,256.9177087060016,None,256.9177087060016,None,258.01895597100156,None,1,0.5345129029992677,258.01895597100156,None,14,258.5700541660008,None,142,A,1,2021_Jun_01_1500,GazeFlow,2020.1.2,59.77460741066983,
2,Block506.xls,A,6,6,71,11,21,incongruent,Right,Left,Right,76,79,3,blue,2,6,/home/docky/apps/exp/images/76B.jpeg,/home/docky/apps/exp/images/79Bi.jpeg,0,1,1,1,0,5,5,5,259.57198772500124,None,259.57198772500124,None,1,4.208364627997071,259.57198772500124,None,263.814304462001,None,263.814304462001,None,266.3018374320018,None,266.3018374320018,None,2.1024710810015677,268.1204273479998,None,268.1204273479998,None,6,1,0.934759858999314,270.20936327600066,None,270.20936327600066,None,270.20936327600066,None,271.1614713900017,None,1,0.5838111539997044,271.1614713900017,None,16,271.7617855890021,None,142,A,1,2021_Jun_01_1500,GazeFlow,2020.1.2,59.77460741066983,
2,Block506.xls,A,6,7,56,56,12,congruent,Right,Right,Left,76,69,7,yellow,2,5,/home/docky/apps/exp/images/76Yi.jpeg,/home/docky/apps/exp/images/69Y.jpeg,0,1,1,1,0,6,6,6,272.7638998520015,None,272.7638998520015,None,1,4.543259106998448,272.7638998520015,None,277.3445436010006,None,277.3445436010006,None,279.84387840400086,None,279.84387840400086,None,1.8517809780023526,281.6469028060019,None,281.6469028060019,None,5,1,1.101294397998572,283.48536363400126,None,283.48536363400126,None,283.48536363400126,None,284.6036493169995,None,1,1.001755453999067,284.6036493169995,None,18,285.6220644749992,None,142,A,1,2021_Jun_01_1500,GazeFlow,2020.1.2,59.77460741066983,
2,Block506.xls,A,6,8,33,33,12,congruent,Right,Right,Left,38,35,3,blue,2,5,/home/docky/apps/exp/images/38B.jpeg,/home/docky/apps/exp/images/35Bi.jpeg,0,1,1,1,0,7,7,7,286.62429687500116,None,286.62429687500116,None,1,3.6247491110007104,286.62429687500116,None,290.28599188500084,None,290.28599188500084,None,292.78710157800015,None,292.78710157800015,None,2.2865220540006703,294.58876516300006,None,294.58876516300006,None,5,1,1.2012718280020636,296.86178428100175,None,296.86178428100175,None,296.86178428100175,None,298.0797589370013,None,1,0.5510902660025749,298.0797589370013,None,20,298.647756655002,None,142,A,1,2021_Jun_01_1500,GazeFlow,2020.1.2,59.77460741066983,
2,Block506.xls,A,,,,,,,,,,,,,,,,,,0,1,1,1,,,,,,,,,,,,,,,,,,,,,,,,,,,,,,,,,,,,,,,,,,,,142,A,1,2021_Jun_01_1500,GazeFlow,2020.1.2,59.77460741066983,
3,Block505.xls,A,5,1,1,1,11,congruent,Left,Left,Right,16,19,3,blue,2,6,/home/docky/apps/exp/images/16Bi.jpeg,/home/docky/apps/exp/images/19B.jpeg,0,2,2,2,0,0,0,0,315.2303398309996,None,315.2303398309996,None,1,3.849304261002544,315.2303398309996,None,319.10126381699956,None,319.10126381699956,None,321.6250348649992,None,321.6250348649992,None,8.865262549999898,323.4266777289995,None,323.4266777289995,None,6,1,2.287062457999127,332.2970387999994,None,332.2970387999994,None,332.2970387999994,None,334.6008922860019,None,1,1.703683514999284,334.6008922860019,None,22,336.3210742070005,None,142,A,1,2021_Jun_01_1500,GazeFlow,2020.1.2,59.77460741066983,
3,Block505.xls,A,5,2,10,10,11,congruent,Left,Left,Right,73,76,3,blue,2,6,/home/docky/apps/exp/images/73B.jpeg,/home/docky/apps/exp/images/76Bi.jpeg,0,2,2,2,0,1,1,1,337.3230326289995,None,337.3230326289995,None,1,5.544729348999681,337.3230326289995,None,342.901233397999,None,342.901233397999,None,345.4059627940005,None,345.4059627940005,None,2.135475862000021,347.20810984299897,None,347.20810984299897,None,6,1,1.0013406090001808,349.32976968599905,None,349.32976968599905,None,349.32976968599905,None,350.3479661620004,None,1,0.6177620019989263,350.3479661620004,None,24,350.98256786099955,None,142,A,1,2021_Jun_01_1500,GazeFlow,2020.1.2,59.77460741066983,
3,Block505.xls,A,5,3,95,35,22,incongruent,Left,Right,Left,66,65,1,blue,2,5,/home/docky/apps/exp/images/66B.jpeg,/home/docky/apps/exp/images/35Yi.jpeg,0,2,2,2,0,2,2,2,351.984484847002,None,351.984484847002,None,1,9.853527816001588,351.984484847002,None,361.8711306160003,None,361.8711306160003,None,364.37607913800093,None,364.37607913800093,None,1.233914412001468,366.178223283001,None,366.178223283001,None,5,1,0.9681578020026791,367.3982229639987,None,367.3982229639987,None,367.3982229639987,None,368.3830614719991,None,1,0.5516917909990298,368.3830614719991,None,26,368.95113194200167,None,142,A,1,2021_Jun_01_1500,GazeFlow,2020.1.2,59.77460741066983,
3,Block505.xls,A,5,4,46,46,12,congruent,Right,Right,Left,35,33,2,yellow,2,5,/home/docky/apps/exp/images/35Yi.jpeg,/home/docky/apps/exp/images/33Y.jpeg,0,2,2,2,0,3,3,3,369.9528328609995,None,369.9528328609995,None,1,3.7244086989994685,369.9528328609995,None,373.7110493459986,None,373.7110493459986,None,376.21371225500116,None,376.21371225500116,None,1.334398681003222,378.0171741109989,None,378.0171741109989,None,5,1,0.9685033130008378,379.338074350002,None,379.338074350002,None,379.338074350002,None,380.32308761199965,None,1,0.7513374189984461,380.32308761199965,None,28,381.0908578720009,None,142,A,1,2021_Jun_01_1500,GazeFlow,2020.1.2,59.77460741066983,
3,Block505.xls,A,5,5,78,18,21,incongruent,Right,Left,Right,65,66,1,yellow,2,6,/home/docky/apps/exp/images/35Bi.jpeg,/home/docky/apps/exp/images/66Y.jpeg,0,2,2,2,0,4,4,4,382.09270068299884,None,382.09270068299884,None,1,4.359376053998858,382.09270068299884,None,386.4853896530003,None,386.4853896530003,None,388.989115761,None,388.989115761,None,1.4010606499978167,390.7939519169995,None,390.7939519169995,None,6,1,1.0189798419996805,392.1795388520004,None,392.1795388520004,None,392.1795388520004,None,393.214907294001,None,1,0.45112489800158073,393.214907294001,None,30,393.68256011300036,None,142,A,1,2021_Jun_01_1500,GazeFlow,2020.1.2,59.77460741066983,
3,Block505.xls,A,5,6,43,43,12,congruent,Right,Right,Left,83,80,3,blue,2,5,/home/docky/apps/exp/images/83B.jpeg,/home/docky/apps/exp/images/80Bi.jpeg,0,2,2,2,0,5,5,5,394.6839551689991,None,394.6839551689991,None,1,5.2274996010019095,394.6839551689991,None,399.94504830499864,None,399.94504830499864,None,402.44846060800046,None,402.44846060800046,None,1.7682175250010914,404.24756430100024,None,404.24756430100024,None,5,1,1.1191757480009983,406.0065273670007,None,406.0065273670007,None,406.0065273670007,None,407.1417858720015,None,1,0.5843329319977784,407.1417858720015,None,32,407.74291313399954,None,142,A,1,2021_Jun_01_1500,GazeFlow,2020.1.2,59.77460741066983,
3,Block505.xls,A,5,7,44,44,12,congruent,Right,Right,Left,39,38,1,blue,2,5,/home/docky/apps/exp/images/39Bi.jpeg,/home/docky/apps/exp/images/38B.jpeg,0,2,2,2,0,6,6,6,408.74487682499966,None,408.74487682499966,None,1,4.325994209000783,408.74487682499966,None,413.10415226400073,None,413.10415226400073,None,415.60980512199967,None,415.60980512199967,None,1.3506992330003413,417.40483306999886,None,417.40483306999886,None,5,1,1.1025123730032647,418.7479394010006,None,418.7479394010006,None,418.7479394010006,None,419.86672455200096,None,1,0.6679322070012859,419.86672455200096,None,34,420.55072268300137,None,142,A,1,2021_Jun_01_1500,GazeFlow,2020.1.2,59.77460741066983,
3,Block505.xls,A,5,8,116,56,22,incongruent,Left,Right,Left,77,72,5,yellow,2,5,/home/docky/apps/exp/images/77Y.jpeg,/home/docky/apps/exp/images/72Y.jpeg,0,2,2,2,0,7,7,7,421.55340050200175,None,421.55340050200175,None,1,3.891059801000665,421.55340050200175,None,425.47846092599866,None,425.47846092599866,None,427.9829897939999,None,427.9829897939999,None,1.451241201000812,429.78406111000004,None,429.78406111000004,None,5,1,1.1190920379995077,431.2222216420014,None,431.2222216420014,None,431.2222216420014,None,432.3575882209989,None,1,1.2524018439980864,432.3575882209989,None,36,433.6262459950012,None,142,A,1,2021_Jun_01_1500,GazeFlow,2020.1.2,59.77460741066983,
3,Block505.xls,A,,,,,,,,,,,,,,,,,,0,2,2,2,,,,,,,,,,,,,,,,,,,,,,,,,,,,,,,,,,,,,,,,,,,,142,A,1,2021_Jun_01_1500,GazeFlow,2020.1.2,59.77460741066983,
4,Block509.xls,A,9,1,34,34,12,congruent,Right,Right,Left,38,35,3,blue,2,5,/home/docky/apps/exp/images/38Bi.jpeg,/home/docky/apps/exp/images/35B.jpeg,0,3,3,3,0,0,0,0,452.3313348679985,None,452.3313348679985,None,1,5.966862157001742,452.3313348679985,None,458.32900115899974,None,458.32900115899974,None,460.8469461429995,None,460.8469461429995,None,1.2832505349979328,462.6505616550021,None,462.6505616550021,None,5,1,1.1525225609984773,463.9189543229986,None,463.9189543229986,None,463.9189543229986,None,465.0877171659995,None,1,0.5674216770021303,465.0877171659995,None,38,465.67191969600026,None,142,A,1,2021_Jun_01_1500,GazeFlow,2020.1.2,59.77460741066983,
4,Block509.xls,A,9,2,7,7,11,congruent,Left,Left,Right,65,66,1,blue,2,6,/home/docky/apps/exp/images/35Yi.jpeg,/home/docky/apps/exp/images/66B.jpeg,0,3,3,3,0,1,1,1,466.67391456100086,None,466.67391456100086,None,1,4.275549529000273,466.67391456100086,None,470.98319354900013,None,470.98319354900013,None,473.48805053199976,None,473.48805053199976,None,1.3508680240011017,475.28532783600167,None,475.28532783600167,None,6,1,1.1191856619989267,476.62716046100104,None,476.62716046100104,None,476.62716046100104,None,477.76253529899986,None,1,0.5839774759988359,477.76253529899986,None,40,478.363313277001,None,142,A,1,2021_Jun_01_1500,GazeFlow,2020.1.2,59.77460741066983,
4,Block509.xls,A,9,3,74,14,21,incongruent,Right,Left,Right,80,83,3,blue,2,6,/home/docky/apps/exp/images/80B.jpeg,/home/docky/apps/exp/images/83Bi.jpeg,0,3,3,3,0,2,2,2,479.3650512189997,None,479.3650512189997,None,1,6.914095809999708,479.3650512189997,None,486.3132989980004,None,486.3132989980004,None,488.81793058399853,None,488.81793058399853,None,1.5178778730005433,490.619681477001,None,490.619681477001,None,6,1,1.1018056610009808,492.1240608650005,None,492.1240608650005,None,492.1240608650005,None,493.24252798900125,None,1,1.23532140899988,493.24252798900125,None,42,494.4946362900009,None,142,A,1,2021_Jun_01_1500,GazeFlow,2020.1.2,59.77460741066983,
4,Block509.xls,A,9,4,19,19,11,congruent,Left,Left,Right,65,66,1,yellow,2,6,/home/docky/apps/exp/images/35Bi.jpeg,/home/docky/apps/exp/images/66Y.jpeg,0,3,3,3,0,3,3,3,495.4968940869985,None,495.4968940869985,None,1,4.041405378000491,495.4968940869985,None,499.57225521000146,None,499.57225521000146,None,502.07685470700017,None,502.07685470700017,None,1.2337905349995708,503.88059584499933,None,503.88059584499933,None,6,1,1.1691479940018326,505.0989079409992,None,505.0989079409992,None,505.0989079409992,None,506.2844241290004,None,1,0.5173678930004826,506.2844241290004,None,44,506.8183329989988,None,142,A,1,2021_Jun_01_1500,GazeFlow,2020.1.2,59.77460741066983,
4,Block509.xls,A,9,5,60,60,12,congruent,Right,Right,Left,80,79,1,yellow,2,5,/home/docky/apps/exp/images/80Yi.jpeg,/home/docky/apps/exp/images/79Y.jpeg,0,3,3,3,0,4,4,4,507.82033154799865,None,507.82033154799865,None,1,4.009011753001687,507.82033154799865,None,511.8630791630021,None,511.8630791630021,None,514.3677286290003,None,514.3677286290003,None,1.785024714001338,516.174361444002,None,516.174361444002,None,6,0,1.0357742550004332,517.9407534839993,None,517.9407534839993,None,517.9407534839993,None,518.9923099400003,None,1,0.5008240349998232,518.9923099400003,None,42,519.5096772680008,None,142,A,1,2021_Jun_01_1500,GazeFlow,2020.1.2,59.77460741066983,
4,Block509.xls,A,9,6,83,23,21,incongruent,Right,Left,Right,38,39,1,yellow,2,6,/home/docky/apps/exp/images/38Yi.jpeg,/home/docky/apps/exp/images/39Y.jpeg,0,3,3,3,0,5,5,5,520.5121552220007,None,520.5121552220007,None,1,4.776370837000286,520.5121552220007,None,525.3221743719987,None,525.3221743719987,None,527.8252280810011,None,527.8252280810011,None,1.5510439409990795,529.6284400699988,None,529.6284400699988,None,5,0,1.0519126780018269,531.166419956,None,531.166419956,None,531.166419956,None,532.2351105830021,None,1,0.5173726809989603,532.2351105830021,None,40,532.7690161640021,None,142,A,1,2021_Jun_01_1500,GazeFlow,2020.1.2,59.77460741066983,
4,Block509.xls,A,9,7,4,4,11,congruent,Left,Left,Right,35,38,3,blue,2,6,/home/docky/apps/exp/images/35B.jpeg,/home/docky/apps/exp/images/38Bi.jpeg,0,3,3,3,0,6,6,6,533.770849397999,None,533.770849397999,None,1,4.74329760999899,533.770849397999,None,538.5477689969994,None,538.5477689969994,None,541.0527519930001,None,541.0527519930001,None,1.7854681009994238,542.8545574960008,None,542.8545574960008,None,6,1,1.0855990819982253,544.6258211450004,None,544.6258211450004,None,544.6258211450004,None,545.7277260869996,None,1,0.4341682459998992,545.7277260869996,None,42,546.1783273869987,None,142,A,1,2021_Jun_01_1500,GazeFlow,2020.1.2,59.77460741066983,
4,Block509.xls,A,9,8,24,24,11,congruent,Left,Left,Right,38,39,1,yellow,2,6,/home/docky/apps/exp/images/38Y.jpeg,/home/docky/apps/exp/images/39Yi.jpeg,0,3,3,3,0,7,7,7,547.1801655769996,None,547.1801655769996,None,1,5.010516324000491,547.1801655769996,None,552.224382921002,None,552.224382921002,None,554.7276780889988,None,554.7276780889988,None,1.9352055370000016,556.5306353839987,None,556.5306353839987,None,5,0,1.0180865029979032,558.4528462679991,None,558.4528462679991,None,558.4528462679991,None,559.4873906590001,None,1,0.48420105199693353,559.4873906590001,None,40,559.9883852579987,None,142,A,1,2021_Jun_01_1500,GazeFlow,2020.1.2,59.77460741066983,
4,Block509.xls,A,,,,,,,,,,,,,,,,,,0,3,3,3,,,,,,,,,,,,,,,,,,,,,,,,,,,,,,,,,,,,,,,,,,,,142,A,1,2021_Jun_01_1500,GazeFlow,2020.1.2,59.77460741066983,
5,Block504.xls,A,4,1,11,11,11,congruent,Left,Left,Right,73,76,3,blue,2,6,/home/docky/apps/exp/images/73Bi.jpeg,/home/docky/apps/exp/images/76B.jpeg,0,4,4,4,0,0,0,0,580.729108083,None,580.729108083,None,1,4.700277477997588,580.729108083,None,585.4580979029997,None,585.4580979029997,None,587.9772308159991,None,587.9772308159991,None,2.4194201919999614,589.7807758390009,None,589.7807758390009,None,6,1,1.0848211420016014,592.1852171999999,None,592.1852171999999,None,592.1852171999999,None,593.286434226,None,1,0.6512893630024337,593.286434226,None,42,593.9542489150008,None,142,A,1,2021_Jun_01_1500,GazeFlow,2020.1.2,59.77460741066983,
5,Block504.xls,A,4,2,87,27,21,incongruent,Right,Left,Right,72,77,5,yellow,2,6,/home/docky/apps/exp/images/72Y.jpeg,/home/docky/apps/exp/images/77Yi.jpeg,0,4,4,4,0,1,1,1,594.9567524060003,None,594.9567524060003,None,1,5.176909585999965,594.9567524060003,None,600.1682932600015,None,600.1682932600015,None,602.6724462279999,None,602.6724462279999,None,1.6348863860002893,604.4742113489992,None,604.4742113489992,None,5,0,2.554332953000994,606.0953354550002,None,606.0953354550002,None,606.0953354550002,None,608.6662384230003,None,1,1.3366046750015812,608.6662384230003,None,40,610.0194384380011,None,142,A,1,2021_Jun_01_1500,GazeFlow,2020.1.2,59.77460741066983,
5,Block504.xls,A,4,3,48,48,12,congruent,Right,Right,Left,39,38,1,yellow,2,5,/home/docky/apps/exp/images/39Yi.jpeg,/home/docky/apps/exp/images/38Y.jpeg,0,4,4,4,0,2,2,2,611.0212347689994,None,611.0212347689994,None,1,6.095793782998953,611.0212347689994,None,617.1506559260015,None,617.1506559260015,None,619.653978757,None,619.653978757,None,1.6348134969994135,621.4569200139995,None,621.4569200139995,None,5,1,1.2531636979983887,623.0780308190006,None,623.0780308190006,None,623.0780308190006,None,624.3470295590014,None,1,0.7180814919993281,624.3470295590014,None,42,625.0816068370004,None,142,A,1,2021_Jun_01_1500,GazeFlow,2020.1.2,59.77460741066983,
5,Block504.xls,A,4,4,38,38,12,congruent,Right,Right,Left,79,73,6,blue,2,5,/home/docky/apps/exp/images/79B.jpeg,/home/docky/apps/exp/images/73Bi.jpeg,0,4,4,4,0,3,3,3,626.0837294260018,None,626.0837294260018,None,1,5.127052756000921,626.0837294260018,None,631.2500774569999,None,631.2500774569999,None,633.7494290569994,None,633.7494290569994,None,1.5845843690003676,635.5512633770013,None,635.5512633770013,None,5,1,2.3536526520001644,637.122264935002,None,637.122264935002,None,637.122264935002,None,639.492969810999,None,1,0.8522938349997276,639.492969810999,None,44,640.3615738320004,None,142,A,1,2021_Jun_01_1500,GazeFlow,2020.1.2,59.77460741066983,
5,Block504.xls,A,4,5,2,2,11,congruent,Left,Left,Right,16,19,3,blue,2,6,/home/docky/apps/exp/images/16B.jpeg,/home/docky/apps/exp/images/19Bi.jpeg,0,4,4,4,0,4,4,4,641.3637119439991,None,641.3637119439991,None,1,4.659714279001491,641.3637119439991,None,646.0569990520016,None,646.0569990520016,None,648.5600631960006,None,648.5600631960006,None,2.2194647430005716,650.3582030629987,None,650.3582030629987,None,6,1,1.1685286880019703,652.568803356,None,652.568803356,None,652.568803356,None,653.753868955002,None,1,0.9850686409990885,653.753868955002,None,46,654.7557572650003,None,142,A,1,2021_Jun_01_1500,GazeFlow,2020.1.2,59.77460741066983,
5,Block504.xls,A,4,6,73,13,21,incongruent,Right,Left,Right,80,83,3,blue,2,6,/home/docky/apps/exp/images/80Bi.jpeg,/home/docky/apps/exp/images/83B.jpeg,0,4,4,4,0,5,5,5,655.7584587730016,None,655.7584587730016,None,1,3.439995729997463,655.7584587730016,None,659.2333773899991,None,659.2333773899991,None,661.7372205710017,None,661.7372205710017,None,1.4509475790000579,663.538999471999,None,663.538999471999,None,6,1,1.019300440002553,664.9759796159997,None,664.9759796159997,None,664.9759796159997,None,666.0113889140011,None,1,0.6175160050006525,666.0113889140011,None,48,666.6454738749999,None,142,A,1,2021_Jun_01_1500,GazeFlow,2020.1.2,59.77460741066983,
5,Block504.xls,A,4,7,63,3,21,incongruent,Right,Left,Right,35,38,3,blue,2,6,/home/docky/apps/exp/images/35B.jpeg,/home/docky/apps/exp/images/38Bi.jpeg,0,4,4,4,0,6,6,6,667.6475587940004,None,667.6475587940004,None,1,3.307178446000762,667.6475587940004,None,670.9892470049999,None,670.9892470049999,None,673.4914970940008,None,673.4914970940008,None,1.4508836799977871,675.2890984219994,None,675.2890984219994,None,6,1,1.1692439630023728,676.7322031479998,None,676.7322031479998,None,676.7322031479998,None,677.9179808350018,None,1,0.5336206379979558,677.9179808350018,None,50,678.468412612001,None,142,A,1,2021_Jun_01_1500,GazeFlow,2020.1.2,59.77460741066983,
5,Block504.xls,A,4,8,86,26,21,incongruent,Right,Left,Right,72,77,5,yellow,2,6,/home/docky/apps/exp/images/72Yi.jpeg,/home/docky/apps/exp/images/77Y.jpeg,0,4,4,4,0,7,7,7,679.4704061470002,None,679.4704061470002,None,1,3.5410235630006355,679.4704061470002,None,683.0453131670001,None,683.0453131670001,None,685.5499512989991,None,685.5499512989991,None,1.333986970999831,687.3474531329994,None,687.3474531329994,None,6,1,1.1527623199981463,688.6722810479987,None,688.6722810479987,None,688.6722810479987,None,689.8409840290005,None,1,0.6179607720005151,689.8409840290005,None,52,690.4751611329993,None,142,A,1,2021_Jun_01_1500,GazeFlow,2020.1.2,59.77460741066983,
5,Block504.xls,A,,,,,,,,,,,,,,,,,,0,4,4,4,,,,,,,,,,,,,,,,,,,,,,,,,,,,,,,,,,,,,,,,,,,,142,A,1,2021_Jun_01_1500,GazeFlow,2020.1.2,59.77460741066983,
6,Block511.xls,A,11,1,15,15,11,congruent,Left,Left,Right,80,83,3,blue,2,6,/home/docky/apps/exp/images/80Bi.jpeg,/home/docky/apps/exp/images/83B.jpeg,0,5,5,5,0,0,0,0,710.048917226999,None,710.048917226999,None,1,5.362997403997724,710.048917226999,None,715.435649387,None,715.435649387,None,717.9615414660002,None,717.9615414660002,None,1.5505936959998508,719.7663508900005,None,719.7663508900005,None,6,1,1.0024482869994245,721.3023799440016,None,721.3023799440016,None,721.3023799440016,None,722.320778325,None,1,1.0182457500013697,722.320778325,None,54,723.3555399290017,None,142,A,1,2021_Jun_01_1500,GazeFlow,2020.1.2,59.77460741066983,
6,Block511.xls,A,11,2,105,45,22,incongruent,Left,Right,Left,39,38,1,blue,2,5,/home/docky/apps/exp/images/39Bi.jpeg,/home/docky/apps/exp/images/38B.jpeg,0,5,5,5,0,1,1,1,724.3578873820006,None,724.3578873820006,None,1,4.826904722998734,724.3578873820006,None,729.2181725039991,None,729.2181725039991,None,731.7229777440007,None,731.7229777440007,None,1.3339738380018389,733.5266303380013,None,733.5266303380013,None,5,1,0.9849464689978049,734.845131465001,None,734.845131465001,None,734.845131465001,None,735.846893031001,None,1,0.9349345390000963,735.846893031001,None,56,736.7985697650001,None,142,A,1,2021_Jun_01_1500,GazeFlow,2020.1.2,59.77460741066983,
6,Block511.xls,A,11,3,68,8,21,incongruent,Right,Left,Right,38,39,1,blue,2,6,/home/docky/apps/exp/images/38B.jpeg,/home/docky/apps/exp/images/39Bi.jpeg,0,5,5,5,0,2,2,2,737.8002141489997,None,737.8002141489997,None,1,4.343035980000423,737.8002141489997,None,742.1774621069999,None,742.1774621069999,None,744.6812592550014,None,744.6812592550014,None,1.5846041620025062,746.4851207610009,None,746.4851207610009,None,5,0,0.9692788720021781,748.0542545640019,None,748.0542545640019,None,748.0542545640019,None,749.0394031840005,None,1,0.5172185150004225,749.0394031840005,None,54,749.5732989230019,None,142,A,1,2021_Jun_01_1500,GazeFlow,2020.1.2,59.77460741066983,
6,Block511.xls,A,11,4,80,20,21,incongruent,Right,Left,Right,62,65,3,yellow,2,6,/home/docky/apps/exp/images/38Bi.jpeg,/home/docky/apps/exp/images/35B.jpeg,0,5,5,5,0,3,3,3,750.5751517390017,None,750.5751517390017,None,1,4.0920817160003935,750.5751517390017,None,754.7010881300012,None,754.7010881300012,None,757.2041101159994,None,757.2041101159994,None,1.4343328920003842,759.0074152839989,None,759.0074152839989,None,6,1,1.119148090001545,760.4282990220017,None,760.4282990220017,None,760.4282990220017,None,761.5633327620017,None,1,0.5343017740015057,761.5633327620017,None,56,762.114261617,None,142,A,1,2021_Jun_01_1500,GazeFlow,2020.1.2,59.77460741066983,
6,Block511.xls,A,11,5,5,5,11,congruent,Left,Left,Right,65,66,1,blue,2,6,/home/docky/apps/exp/images/35Yi.jpeg,/home/docky/apps/exp/images/66B.jpeg,0,5,5,5,0,4,4,4,763.1162527320012,None,763.1162527320012,None,1,3.3238353230008215,763.1162527320012,None,766.4737761969991,None,766.4737761969991,None,768.9771188919985,None,768.9771188919985,None,1.2005676660010067,770.7822218910005,None,770.7822218910005,None,6,1,0.9850672530010343,771.9673181840008,None,771.9673181840008,None,771.9673181840008,None,772.9686575010019,None,1,0.5521912409967626,772.9686575010019,None,58,773.536970879999,None,142,A,1,2021_Jun_01_1500,GazeFlow,2020.1.2,59.77460741066983,
6,Block511.xls,A,11,6,18,18,11,congruent,Left,Left,Right,65,66,1,yellow,2,6,/home/docky/apps/exp/images/35B.jpeg,/home/docky/apps/exp/images/66Yi.jpeg,0,5,5,5,0,5,5,5,774.538408108001,None,774.538408108001,None,1,3.106811462999758,774.538408108001,None,777.683123363,None,777.683123363,None,780.1819013659988,None,780.1819013659988,None,1.3175609549980436,781.9850183890012,None,781.9850183890012,None,6,1,0.8176008209993597,783.2895379690017,None,783.2895379690017,None,783.2895379690017,None,784.1236159360014,None,1,0.40157835300124134,784.1236159360014,None,60,784.5416754709986,None,142,A,1,2021_Jun_01_1500,GazeFlow,2020.1.2,59.77460741066983,
6,Block511.xls,A,11,7,25,25,11,congruent,Left,Left,Right,69,75,6,yellow,2,6,/home/docky/apps/exp/images/69Yi.jpeg,/home/docky/apps/exp/images/76Y.jpeg,0,5,5,5,0,6,6,6,785.5429441669985,None,785.5429441669985,None,1,2.138417373997072,785.5429441669985,None,787.7152391730015,None,787.7152391730015,None,790.2176299230014,None,790.2176299230014,None,1.367635054000857,792.021523727999,None,792.021523727999,None,6,1,0.8345889699994586,793.375561148001,None,793.375561148001,None,793.375561148001,None,794.2269289079995,None,1,0.534890415998234,794.2269289079995,None,62,794.778267558002,None,142,A,1,2021_Jun_01_1500,GazeFlow,2020.1.2,59.77460741066983,
6,Block511.xls,A,11,8,3,3,11,congruent,Left,Left,Right,35,38,3,blue,2,6,/home/docky/apps/exp/images/35Bi.jpeg,/home/docky/apps/exp/images/38B.jpeg,0,5,5,5,0,7,7,7,795.7797594240001,None,795.7797594240001,None,1,3.324204075997841,795.7797594240001,None,799.1380425550014,None,799.1380425550014,None,801.6422990700012,None,801.6422990700012,None,1.4007317210016481,803.444193391002,None,803.444193391002,None,6,1,3.6399333660010598,804.8312772930003,None,804.8312772930003,None,804.8312772930003,None,808.487836717999,None,1,0.5850652709996211,808.487836717999,None,64,809.089269332002,None,142,A,1,2021_Jun_01_1500,GazeFlow,2020.1.2,59.77460741066983,
6,Block511.xls,A,,,,,,,,,,,,,,,,,,0,5,5,5,,,,,,,,,,,,,,,,,,,,,,,,,,,,,,,,,,,,,,,,,,,,142,A,1,2021_Jun_01_1500,GazeFlow,2020.1.2,59.77460741066983,
7,Block508.xls,A,8,1,13,13,11,congruent,Left,Left,Right,76,79,3,blue,2,6,/home/docky/apps/exp/images/76Bi.jpeg,/home/docky/apps/exp/images/79B.jpeg,0,6,6,6,0,0,0,0,832.6852562200002,None,832.6852562200002,None,1,5.086439318001794,832.6852562200002,None,837.7978737699996,None,837.7978737699996,None,840.317186676999,None,840.317186676999,None,1.2668585859973973,842.1194239210017,None,842.1194239210017,None,6,1,0.7341883890003373,843.372986573002,None,843.372986573002,None,843.372986573002,None,844.1235448160005,None,1,0.4181800820006174,844.1235448160005,None,66,844.5583127479986,None,142,A,1,2021_Jun_01_1500,GazeFlow,2020.1.2,59.77460741066983,
7,Block508.xls,A,8,2,21,21,11,congruent,Left,Left,Right,62,65,3,yellow,2,6,/home/docky/apps/exp/images/38B.jpeg,/home/docky/apps/exp/images/35Bi.jpeg,0,6,6,6,0,1,1,1,845.5598938080002,None,845.5598938080002,None,1,2.739666828998452,845.5598938080002,None,848.3327336760012,None,848.3327336760012,None,850.837667885,None,850.837667885,None,1.350935323000158,852.6393183539985,None,852.6393183539985,None,6,1,0.8844182209977589,853.9767826770003,None,853.9767826770003,None,853.9767826770003,None,854.877850806999,None,1,0.5350063000005321,854.877850806999,None,68,855.4292894270002,None,142,A,1,2021_Jun_01_1500,GazeFlow,2020.1.2,59.77460741066983,
7,Block508.xls,A,8,3,99,39,22,incongruent,Left,Right,Left,79,76,3,blue,2,5,/home/docky/apps/exp/images/79Bi.jpeg,/home/docky/apps/exp/images/76B.jpeg,0,6,6,6,0,2,2,2,856.4309009060016,None,856.4309009060016,None,1,2.1551567720016465,856.4309009060016,None,858.6195752089989,None,858.6195752089989,None,861.1244068820015,None,861.1244068820015,None,1.3005145310016815,862.9264788569999,None,862.9264788569999,None,5,1,0.8844034840003587,864.2133430419999,None,864.2133430419999,None,864.2133430419999,None,865.1143253310001,None,1,1.069125799000176,865.1143253310001,None,70,866.1998744750017,None,142,A,1,2021_Jun_01_1500,GazeFlow,2020.1.2,59.77460741066983,
7,Block508.xls,A,8,4,37,37,12,congruent,Right,Right,Left,66,65,1,blue,2,5,/home/docky/apps/exp/images/66Bi.jpeg,/home/docky/apps/exp/images/35Y.jpeg,0,6,6,6,0,3,3,3,867.2018961460017,None,867.2018961460017,None,1,3.173380645999714,867.2018961460017,None,870.4074981490012,None,870.4074981490012,None,872.9123872620003,None,872.9123872620003,None,1.3171031640013098,874.7162033390014,None,874.7162033390014,None,6,0,0.8344664930009458,876.0194722490014,None,876.0194722490014,None,876.0194722490014,None,876.8705631170014,None,1,0.36753449300158536,876.8705631170014,None,68,877.2544664220004,None,142,A,1,2021_Jun_01_1500,GazeFlow,2020.1.2,59.77460741066983,
7,Block508.xls,A,8,5,82,22,21,incongruent,Right,Left,Right,38,39,1,yellow,2,6,/home/docky/apps/exp/images/38Y.jpeg,/home/docky/apps/exp/images/39Yi.jpeg,0,6,6,6,0,4,4,4,878.2567631230013,None,878.2567631230013,None,1,2.1212675209972076,878.2567631230013,None,880.4118416189995,None,880.4118416189995,None,882.916575629999,None,882.916575629999,None,1.3340007289989444,884.7182674959986,None,884.7182674959986,None,6,1,0.7507484960005968,886.0390263990012,None,886.0390263990012,None,886.0390263990012,None,886.8064748149991,None,1,0.3350971860018035,886.8064748149991,None,70,887.1576030370015,None,142,A,1,2021_Jun_01_1500,GazeFlow,2020.1.2,59.77460741066983,
7,Block508.xls,A,8,6,104,44,22,incongruent,Left,Right,Left,39,38,1,blue,2,5,/home/docky/apps/exp/images/39B.jpeg,/home/docky/apps/exp/images/38Bi.jpeg,0,6,6,6,0,5,5,5,888.1589235530009,None,888.1589235530009,None,1,2.556019291998382,888.1589235530009,None,890.7486954449996,None,890.7486954449996,None,893.2519076460012,None,893.2519076460012,None,1.5178228090007906,895.0547705120007,None,895.0547705120007,None,5,1,0.8684995370022079,896.5592550949987,None,896.5592550949987,None,896.5592550949987,None,897.4442338520021,None,1,0.5016491999995196,897.4442338520021,None,72,897.9619217660002,None,142,A,1,2021_Jun_01_1500,GazeFlow,2020.1.2,59.77460741066983,
7,Block508.xls,A,8,7,39,39,12,congruent,Right,Right,Left,79,73,6,blue,2,5,/home/docky/apps/exp/images/79B.jpeg,/home/docky/apps/exp/images/73Bi.jpeg,0,6,6,6,0,6,6,6,898.9635859670016,None,898.9635859670016,None,1,3.0064475730032427,898.9635859670016,None,902.0023019719993,None,902.0023019719993,None,904.5065975469988,None,904.5065975469988,None,1.2672000839993416,906.3050792940012,None,906.3050792940012,None,5,1,0.8177427649970923,907.5642394329989,None,907.5642394329989,None,907.5642394329989,None,908.398294396,None,1,0.4351264450015151,908.398294396,None,74,908.8494538119994,None,142,A,1,2021_Jun_01_1500,GazeFlow,2020.1.2,59.77460741066983,
7,Block508.xls,A,8,8,36,36,12,congruent,Right,Right,Left,66,65,1,blue,2,5,/home/docky/apps/exp/images/66B.jpeg,/home/docky/apps/exp/images/35Yi.jpeg,0,6,6,6,0,7,7,7,909.8513737069989,None,909.8513737069989,None,1,2.822849996999139,909.8513737069989,None,912.710625579999,None,912.710625579999,None,915.2124509979985,None,915.2124509979985,None,1.1503971630008891,917.0143961229987,None,917.0143961229987,None,5,1,0.7843357670026307,918.1512944640017,None,918.1512944640017,None,918.1512944640017,None,918.9523071740005,None,1,0.46772858000258566,918.9523071740005,None,76,919.4362916329992,None,142,A,1,2021_Jun_01_1500,GazeFlow,2020.1.2,59.77460741066983,
7,Block508.xls,A,,,,,,,,,,,,,,,,,,0,6,6,6,,,,,,,,,,,,,,,,,,,,,,,,,,,,,,,,,,,,,,,,,,,,142,A,1,2021_Jun_01_1500,GazeFlow,2020.1.2,59.77460741066983,
8,Block510.xls,A,10,1,102,42,22,incongruent,Left,Right,Left,83,80,3,blue,2,5,/home/docky/apps/exp/images/83B.jpeg,/home/docky/apps/exp/images/80Bi.jpeg,0,7,7,7,0,0,0,0,942.7700170089993,None,942.7700170089993,None,1,3.943685395999637,942.7700170089993,None,946.7405408720006,None,946.7405408720006,None,949.2621762720009,None,949.2621762720009,None,0.8322814290004317,951.0658856629998,None,951.0658856629998,None,5,1,0.8675421000007191,951.8836253240006,None,951.8836253240006,None,951.8836253240006,None,952.7681782399995,None,1,0.4505925120029133,952.7681782399995,None,78,953.2357887110011,None,142,A,1,2021_Jun_01_1500,GazeFlow,2020.1.2,59.77460741066983,
8,Block510.xls,A,10,2,114,54,22,incongruent,Left,Right,Left,76,69,7,yellow,2,5,/home/docky/apps/exp/images/76Yi.jpeg,/home/docky/apps/exp/images/69Y.jpeg,0,7,7,7,0,1,1,1,954.2374011870015,None,954.2374011870015,None,1,2.439303701001336,954.2374011870015,None,956.7110645499997,None,956.7110645499997,None,959.2128603450001,None,959.2128603450001,None,0.9669994949981628,961.0166260320002,None,961.0166260320002,None,5,1,0.8509663629993156,961.9698743209992,None,961.9698743209992,None,961.9698743209992,None,962.8374828870001,None,1,0.4173257080001349,962.8374828870001,None,80,963.2719090399987,None,142,A,1,2021_Jun_01_1500,GazeFlow,2020.1.2,59.77460741066983,
8,Block510.xls,A,10,3,72,12,21,incongruent,Right,Left,Right,76,79,3,blue,2,6,/home/docky/apps/exp/images/76Bi.jpeg,/home/docky/apps/exp/images/79B.jpeg,0,7,7,7,0,2,2,2,964.2739293230006,None,964.2739293230006,None,1,3.2572146659986174,964.2739293230006,None,967.5645868540014,None,967.5645868540014,None,970.0690280460003,None,970.0690280460003,None,1.250772777999373,971.8710717969989,None,971.8710717969989,None,6,1,0.8008849739999278,973.1081115349989,None,973.1081115349989,None,973.1081115349989,None,973.9257027490021,None,1,0.3182932260024245,973.9257027490021,None,82,974.2601786580017,None,142,A,1,2021_Jun_01_1500,GazeFlow,2020.1.2,59.77460741066983,
8,Block510.xls,A,10,4,112,52,22,incongruent,Left,Right,Left,75,69,6,yellow,2,5,/home/docky/apps/exp/images/76Y.jpeg,/home/docky/apps/exp/images/69Yi.jpeg,0,7,7,7,0,3,3,3,975.2618657570019,None,975.2618657570019,None,1,2.021189373001107,975.2618657570019,None,977.3168508589988,None,977.3168508589988,None,979.8198120859997,None,979.8198120859997,None,1.4177189149995684,981.6229329720009,None,981.6229329720009,None,5,1,0.968622297001275,983.0273419149999,None,983.0273419149999,None,983.0273419149999,None,984.0124214319985,None,1,0.5181827589985915,984.0124214319985,None,84,984.5465678010005,None,142,A,1,2021_Jun_01_1500,GazeFlow,2020.1.2,59.77460741066983,
8,Block510.xls,A,10,5,17,17,11,congruent,Left,Left,Right,33,35,2,yellow,2,6,/home/docky/apps/exp/images/33Y.jpeg,/home/docky/apps/exp/images/35Yi.jpeg,0,7,7,7,0,4,4,4,985.5485334490004,None,985.5485334490004,None,1,2.388317607001227,985.5485334490004,None,987.970796466001,None,987.970796466001,None,990.4736293829992,None,990.4736293829992,None,1.3675837970004068,992.2716619230014,None,992.2716619230014,None,6,1,0.7841931080001814,993.631319909,None,993.631319909,None,993.631319909,None,994.4318875310018,None,1,0.33544477399846073,994.4318875310018,None,86,994.7833351570007,None,142,A,1,2021_Jun_01_1500,GazeFlow,2020.1.2,59.77460741066983,
8,Block510.xls,A,10,6,31,31,12,congruent,Right,Right,Left,19,16,3,blue,2,5,/home/docky/apps/exp/images/19Bi.jpeg,/home/docky/apps/exp/images/16B.jpeg,0,7,7,7,0,5,5,5,995.7847660560001,None,995.7847660560001,None,1,1.8711368719996244,995.7847660560001,None,997.6894224019998,None,997.6894224019998,None,1000.1958525350019,None,1000.1958525350019,None,1.2002985119979712,1001.9962691090004,None,1001.9962691090004,None,5,1,0.7840149100011331,1003.1833672370012,None,1003.1833672370012,None,1003.1833672370012,None,1003.9841524200019,None,1,0.3848119100002805,1003.9841524200019,None,88,1004.3852348559994,None,142,A,1,2021_Jun_01_1500,GazeFlow,2020.1.2,59.77460741066983,
8,Block510.xls,A,10,7,61,1,21,incongruent,Right,Left,Right,16,19,3,blue,2,6,/home/docky/apps/exp/images/16Bi.jpeg,/home/docky/apps/exp/images/19B.jpeg,0,7,7,7,0,6,6,6,1005.3866577920016,None,1005.3866577920016,None,1,2.9739634360012133,1005.3866577920016,None,1008.3938992930016,None,1008.3938992930016,None,1010.8967785259993,None,1010.8967785259993,None,1.1505593020010565,1012.7007887729997,None,1012.7007887729997,None,6,1,0.7679036830013501,1013.8369750339989,None,1013.8369750339989,None,1013.8369750339989,None,1014.6215055440007,None,1,0.3511414819986385,1014.6215055440007,None,90,1014.9890303259999,None,142,A,1,2021_Jun_01_1500,GazeFlow,2020.1.2,59.77460741066983,
8,Block510.xls,A,10,8,94,34,22,incongruent,Left,Right,Left,38,35,3,blue,2,5,/home/docky/apps/exp/images/38Bi.jpeg,/home/docky/apps/exp/images/35B.jpeg,0,7,7,7,0,7,7,7,1015.9908020360017,None,1015.9908020360017,None,1,2.08845036600178,1015.9908020360017,None,1018.1138226430012,None,1018.1138226430012,None,1020.6176259329986,None,1020.6176259329986,None,2.9711078730033478,1022.4182810080019,None,1022.4182810080019,None,5,1,0.8172768680014997,1025.3935106169993,None,1025.3935106169993,None,1025.3935106169993,None,1026.2274278010009,None,1,0.38397038399853045,1026.2274278010009,None,92,1026.6284948489993,None,142,A,1,2021_Jun_01_1500,GazeFlow,2020.1.2,59.77460741066983,
8,Block510.xls,A,,,,,,,,,,,,,,,,,,0,7,7,7,,,,,,,,,,,,,,,,,,,,,,,,,,,,,,,,,,,,,,,,,,,,142,A,1,2021_Jun_01_1500,GazeFlow,2020.1.2,59.77460741066983,
9,Block507.xls,A,7,1,110,50,22,incongruent,Left,Right,Left,66,65,1,yellow,2,5,/home/docky/apps/exp/images/66Y.jpeg,/home/docky/apps/exp/images/35Bi.jpeg,0,8,8,8,0,0,0,0,1050.8925402940004,None,1050.8925402940004,None,1,3.1243927059986163,1050.8925402940004,None,1054.0528395729998,None,1054.0528395729998,None,1056.5707900429989,None,1056.5707900429989,None,1.1500285789988993,1058.3503802289997,None,1058.3503802289997,None,6,0,0.8012056789993949,1059.4925364400005,None,1059.4925364400005,None,1059.4925364400005,None,1060.3102631809998,None,1,0.31733050500042737,1060.3102631809998,None,90,1060.644089589001,None,142,A,1,2021_Jun_01_1500,GazeFlow,2020.1.2,59.77460741066983,
9,Block507.xls,A,7,2,90,30,22,incongruent,Right,Left,Right,16,19,3,blue,2,6,/home/docky/apps/exp/images/16Bi.jpeg,/home/docky/apps/exp/images/19B.jpeg,0,8,8,8,0,1,1,1,1061.6463573280016,None,1061.6463573280016,None,1,2.3220211190018745,1061.6463573280016,None,1064.0020895939997,None,1064.0020895939997,None,1066.5065525680002,None,1066.5065525680002,None,1.80167573899962,1068.3035714510006,None,1068.3035714510006,None,6,1,0.7521657470024365,1070.0962615850003,None,1070.0962615850003,None,1070.0962615850003,None,1070.8662150700002,None,1,0.3493961540007149,1070.8662150700002,None,92,1071.2314496010003,None,142,A,1,2021_Jun_01_1500,GazeFlow,2020.1.2,59.77460741066983,
9,Block507.xls,A,7,3,16,16,11,congruent,Left,Left,Right,33,35,2,yellow,2,6,/home/docky/apps/exp/images/33Yi.jpeg,/home/docky/apps/exp/images/35Y.jpeg,0,8,8,8,0,2,2,2,1072.23347191,None,1072.23347191,None,1,1.954461942998023,1072.23347191,None,1074.2238385630008,None,1074.2238385630008,None,1076.7246797840016,None,1076.7246797840016,None,1.5173558969981968,1078.5300374750004,None,1078.5300374750004,None,5,0,0.8682320400002936,1080.032524483002,None,1080.032524483002,None,1080.032524483002,None,1080.9170768010008,None,1,0.4181489219990908,1080.9170768010008,None,90,1081.3514812850008,None,142,A,1,2021_Jun_01_1500,GazeFlow,2020.1.2,59.77460741066983,
9,Block507.xls,A,7,4,117,57,22,incongruent,Left,Right,Left,77,72,5,yellow,2,5,/home/docky/apps/exp/images/77Y.jpeg,/home/docky/apps/exp/images/72Yi.jpeg,0,8,8,8,0,3,3,3,1082.3529675200007,None,1082.3529675200007,None,1,2.9067733919982857,1082.3529675200007,None,1085.2930768080005,None,1085.2930768080005,None,1087.7976875819986,None,1087.7976875819986,None,1.6174054609982704,1089.6016666840005,None,1089.6016666840005,None,5,1,0.9020286820014007,1091.2042707590008,None,1091.2042707590008,None,1091.2042707590008,None,1092.1224580470007,None,1,0.4504779890012287,1092.1224580470007,None,92,1092.5896365570006,None,142,A,1,2021_Jun_01_1500,GazeFlow,2020.1.2,59.77460741066983,
9,Block507.xls,A,7,5,53,53,12,congruent,Right,Right,Left,75,69,6,yellow,2,5,/home/docky/apps/exp/images/76Yi.jpeg,/home/docky/apps/exp/images/69Y.jpeg,0,8,8,8,0,4,4,4,1093.5915216229987,None,1093.5915216229987,None,1,2.67283796600168,1093.5915216229987,None,1096.2978406069997,None,1096.2978406069997,None,1098.802603516,None,1098.802603516,None,1.0500758189991757,1100.6065073380014,None,1100.6065073380014,None,5,1,0.9010371430013038,1101.641169065002,None,1101.641169065002,None,1101.641169065002,None,1102.558891757999,None,1,0.40214107199790305,1102.558891757999,None,94,1102.9769329340015,None,142,A,1,2021_Jun_01_1500,GazeFlow,2020.1.2,59.77460741066983,
9,Block507.xls,A,7,6,96,36,22,incongruent,Left,Right,Left,66,65,1,blue,2,5,/home/docky/apps/exp/images/66Bi.jpeg,/home/docky/apps/exp/images/35Y.jpeg,0,8,8,8,0,5,5,5,1103.9784624960012,None,1103.9784624960012,None,1,2.989963185002125,1103.9784624960012,None,1107.0019869839998,None,1107.0019869839998,None,1109.505042910001,None,1109.505042910001,None,0.9333523860004789,1111.3031678529987,None,1111.3031678529987,None,6,0,0.9178884629982349,1112.2283498100005,None,1112.2283498100005,None,1112.2283498100005,None,1113.162895974001,None,1,0.3674365549995855,1113.162895974001,None,92,1113.5470598719985,None,142,A,1,2021_Jun_01_1500,GazeFlow,2020.1.2,59.77460741066983,
9,Block507.xls,A,7,7,58,58,12,congruent,Right,Right,Left,77,72,5,yellow,2,5,/home/docky/apps/exp/images/77Yi.jpeg,/home/docky/apps/exp/images/72Y.jpeg,0,8,8,8,0,6,6,6,1114.5490095179994,None,1114.5490095179994,None,1,2.371865479999542,1114.5490095179994,None,1116.9548702819993,None,1116.9548702819993,None,1119.457309669,None,1119.457309669,None,1.0169140129983134,1121.255603149999,None,1121.255603149999,None,5,1,0.8509491580007307,1122.2645475399986,None,1122.2645475399986,None,1122.2645475399986,None,1123.1320944309991,None,1,0.43488534599964623,1123.1320944309991,None,94,1123.5834640700014,None,142,A,1,2021_Jun_01_1500,GazeFlow,2020.1.2,59.77460741066983,
9,Block507.xls,A,7,8,41,41,12,congruent,Right,Right,Left,79,76,3,blue,2,5,/home/docky/apps/exp/images/79Bi.jpeg,/home/docky/apps/exp/images/76B.jpeg,0,8,8,8,0,7,7,7,1124.584938111002,None,1124.584938111002,None,1,2.806311453001399,1124.584938111002,None,1127.4250658240016,None,1127.4250658240016,None,1129.9298984720008,None,1129.9298984720008,None,0.9835738580004545,1131.7318318969992,None,1131.7318318969992,None,5,1,1.0179171850031707,1132.7013765849988,None,1132.7013765849988,None,1132.7013765849988,None,1133.7361928620012,None,1,0.46830221400159644,1133.7361928620012,None,96,1134.2209558460017,None,142,A,1,2021_Jun_01_1500,GazeFlow,2020.1.2,59.77460741066983,
9,Block507.xls,A,,,,,,,,,,,,,,,,,,0,8,8,8,,,,,,,,,,,,,,,,,,,,,,,,,,,,,,,,,,,,,,,,,,,,142,A,1,2021_Jun_01_1500,GazeFlow,2020.1.2,59.77460741066983,
10,Block515.xls,A,15,1,107,47,22,incongruent,Left,Right,Left,35,33,2,yellow,2,5,/home/docky/apps/exp/images/35Yi.jpeg,/home/docky/apps/exp/images/33Y.jpeg,0,9,9,9,0,0,0,0,1153.762214978,None,1153.762214978,None,1,3.058315030000813,1153.762214978,None,1156.8463223869985,None,1156.8463223869985,None,1159.3704881550002,None,1159.3704881550002,None,1.166506836998451,1161.1738992930004,None,1161.1738992930004,None,5,1,0.8676492840022547,1162.3259128889986,None,1162.3259128889986,None,1162.3259128889986,None,1163.2100066169987,None,1,0.43497492199821863,1163.2100066169987,None,98,1163.6614775790003,None,142,A,1,2021_Jun_01_1500,GazeFlow,2020.1.2,59.77460741066983,
10,Block515.xls,A,15,2,55,55,12,congruent,Right,Right,Left,76,69,7,yellow,2,5,/home/docky/apps/exp/images/76Yi.jpeg,/home/docky/apps/exp/images/69Y.jpeg,0,9,9,9,0,1,1,1,1164.6627205559998,None,1164.6627205559998,None,1,2.856479059002595,1164.6627205559998,None,1167.5529320470014,None,1167.5529320470014,None,1170.0575455610015,None,1170.0575455610015,None,0.9000935459989705,1171.8608783620002,None,1171.8608783620002,None,5,1,1.4867379110000911,1172.7457751660004,None,1172.7457751660004,None,1172.7457751660004,None,1174.2485850379999,None,1,0.4511460539979453,1174.2485850379999,None,100,1174.7162487070018,None,142,A,1,2021_Jun_01_1500,GazeFlow,2020.1.2,59.77460741066983,
10,Block515.xls,A,15,3,75,15,21,incongruent,Right,Left,Right,33,35,2,yellow,2,6,/home/docky/apps/exp/images/33Yi.jpeg,/home/docky/apps/exp/images/35Y.jpeg,0,9,9,9,0,2,2,2,1175.7176898729995,None,1175.7176898729995,None,1,2.6558057559996087,1175.7176898729995,None,1178.4058696220018,None,1178.4058696220018,None,1180.9096348210005,None,1180.9096348210005,None,1.066629966997425,1182.7158153419987,None,1182.7158153419987,None,6,1,0.8009798309976759,1183.7673185109998,None,1183.7673185109998,None,1183.7673185109998,None,1184.585117196999,None,1,0.31717814299918246,1184.585117196999,None,102,1184.9189090979999,None,142,A,1,2021_Jun_01_1500,GazeFlow,2020.1.2,59.77460741066983,
10,Block515.xls,A,15,4,62,2,21,incongruent,Right,Left,Right,35,38,3,blue,2,6,/home/docky/apps/exp/images/35Bi.jpeg,/home/docky/apps/exp/images/38B.jpeg,0,9,9,9,0,3,3,3,1185.9210661910001,None,1185.9210661910001,None,1,2.405660019001516,1185.9210661910001,None,1188.3601380500004,None,1188.3601380500004,None,1190.8646358240003,None,1190.8646358240003,None,1.0336574089997157,1192.6660660410016,None,1192.6660660410016,None,6,1,0.8844868109990784,1193.686548619,None,1193.686548619,None,1193.686548619,None,1194.5879562629998,None,1,0.38453973699870403,1194.5879562629998,None,104,1194.9885700070008,None,142,A,1,2021_Jun_01_1500,GazeFlow,2020.1.2,59.77460741066983,
10,Block515.xls,A,15,5,100,40,22,incongruent,Left,Right,Left,79,76,3,blue,2,5,/home/docky/apps/exp/images/79Bi.jpeg,/home/docky/apps/exp/images/76B.jpeg,0,9,9,9,0,4,4,4,1195.9903835170007,None,1195.9903835170007,None,1,2.6227222109992,1195.9903835170007,None,1198.6298731669995,None,1198.6298731669995,None,1201.1496465300006,None,1201.1496465300006,None,1.2507148779986892,1202.9522196479993,None,1202.9522196479993,None,5,1,1.2361242580009275,1204.1902569369995,None,1204.1902569369995,None,1204.1902569369995,None,1205.4426232740007,None,1,0.5004975339979865,1205.4426232740007,None,106,1205.9598865799999,None,142,A,1,2021_Jun_01_1500,GazeFlow,2020.1.2,59.77460741066983,
10,Block515.xls,A,15,6,108,48,22,incongruent,Left,Right,Left,39,38,1,yellow,2,5,/home/docky/apps/exp/images/39Y.jpeg,/home/docky/apps/exp/images/38Yi.jpeg,0,9,9,9,0,5,5,5,1206.9621561210006,None,1206.9621561210006,None,1,2.7220735310002055,1206.9621561210006,None,1209.7185159719993,None,1209.7185159719993,None,1212.2229673149996,None,1212.2229673149996,None,0.9832862349976494,1214.024536756002,None,1214.024536756002,None,5,1,0.9679087559998152,1214.9947671689988,None,1214.9947671689988,None,1214.9947671689988,None,1215.9791746170013,None,1,0.401267569999618,1215.9791746170013,None,108,1216.3971036330004,None,142,A,1,2021_Jun_01_1500,GazeFlow,2020.1.2,59.77460741066983,
10,Block515.xls,A,15,7,59,59,12,congruent,Right,Right,Left,80,79,1,yellow,2,5,/home/docky/apps/exp/images/80Y.jpeg,/home/docky/apps/exp/images/79Yi.jpeg,0,9,9,9,0,6,6,6,1217.3987390490001,None,1217.3987390490001,None,1,2.956697327001166,1217.3987390490001,None,1220.3887329850004,None,1220.3887329850004,None,1222.8938349130003,None,1222.8938349130003,None,1.167512092000834,1224.6954605659994,None,1224.6954605659994,None,5,1,1.001535741997941,1225.8491345830007,None,1225.8491345830007,None,1225.8491345830007,None,1226.8673721759988,None,1,2.321399738000764,1226.8673721759988,None,110,1229.2051914500007,None,142,A,1,2021_Jun_01_1500,GazeFlow,2020.1.2,59.77460741066983,
10,Block515.xls,A,15,8,8,8,11,congruent,Left,Left,Right,38,39,1,blue,2,6,/home/docky/apps/exp/images/38B.jpeg,/home/docky/apps/exp/images/39Bi.jpeg,0,9,9,9,0,7,7,7,1230.2074451510016,None,1230.2074451510016,None,1,2.55553168500046,1230.2074451510016,None,1232.7964072700015,None,1232.7964072700015,None,1235.299596148001,None,1235.299596148001,None,1.56790132000242,1237.1025677610014,None,1237.1025677610014,None,5,0,0.9021180190029554,1238.6573007000006,None,1238.6573007000006,None,1238.6573007000006,None,1239.5755592640016,None,1,0.450764290002553,1239.5755592640016,None,108,1240.0425554790017,None,142,A,1,2021_Jun_01_1500,GazeFlow,2020.1.2,59.77460741066983,
10,Block515.xls,A,,,,,,,,,,,,,,,,,,0,9,9,9,,,,,,,,,,,,,,,,,,,,,,,,,,,,,,,,,,,,,,,,,,,,142,A,1,2021_Jun_01_1500,GazeFlow,2020.1.2,59.77460741066983,
11,Block512.xls,A,12,1,30,30,11,congruent,Left,Left,Right,79,82,3,yellow,2,6,/home/docky/apps/exp/images/79Yi.jpeg,/home/docky/apps/exp/images/80Y.jpeg,0,10,10,10,0,0,0,0,1259.965133206002,None,1259.965133206002,None,1,3.648155473998486,1259.965133206002,None,1263.63955394,None,1263.63955394,None,1266.159595686,None,1266.159595686,None,1.150048177998542,1267.9647751640005,None,1267.9647751640005,None,6,1,0.9514433150034165,1269.0997559079988,None,1269.0997559079988,None,1269.0997559079988,None,1270.0674859089995,None,1,0.5018437610015098,1270.0674859089995,None,110,1270.5855609950013,None,142,A,1,2021_Jun_01_1500,GazeFlow,2020.1.2,59.77460741066983,
11,Block512.xls,A,12,2,115,55,22,incongruent,Left,Right,Left,76,69,7,yellow,2,5,/home/docky/apps/exp/images/76Yi.jpeg,/home/docky/apps/exp/images/69Y.jpeg,0,10,10,10,0,1,1,1,1271.5872764859996,None,1271.5872764859996,None,1,1.5704937019982026,1271.5872764859996,None,1273.1922816629994,None,1273.1922816629994,None,1275.6947569980002,None,1275.6947569980002,None,1.0672300120022555,1277.497552413999,None,1277.497552413999,None,5,1,0.7839096089992381,1278.5517425120015,None,1278.5517425120015,None,1278.5517425120015,None,1279.352579773,None,1,0.4341061480008648,1279.352579773,None,112,1279.8032736749992,None,142,A,1,2021_Jun_01_1500,GazeFlow,2020.1.2,59.77460741066983,
11,Block512.xls,A,12,3,66,6,21,incongruent,Right,Left,Right,38,39,1,blue,2,6,/home/docky/apps/exp/images/38B.jpeg,/home/docky/apps/exp/images/39Bi.jpeg,0,10,10,10,0,2,2,2,1280.8050078910019,None,1280.8050078910019,None,1,2.155301752998639,1280.8050078910019,None,1282.993995662,None,1282.993995662,None,1285.4988806120018,None,1285.4988806120018,None,1.167481880998821,1287.2956973850014,None,1287.2956973850014,None,6,1,0.9844970779995492,1288.4540840170012,None,1288.4540840170012,None,1288.4540840170012,None,1289.4550833350004,None,1,0.5521069870010251,1289.4550833350004,None,114,1290.0235745360005,None,142,A,1,2021_Jun_01_1500,GazeFlow,2020.1.2,59.77460741066983,
11,Block512.xls,A,12,4,35,35,12,congruent,Right,Right,Left,66,65,1,blue,2,5,/home/docky/apps/exp/images/66B.jpeg,/home/docky/apps/exp/images/35Yi.jpeg,0,10,10,10,0,3,3,3,1291.0249840270008,None,1291.0249840270008,None,1,2.2051044710024144,1291.0249840270008,None,1293.2672693120003,None,1293.2672693120003,None,1295.7687857579986,None,1295.7687857579986,None,1.1004005430004327,1297.5707194230017,None,1297.5707194230017,None,5,1,0.8344538480014307,1298.6572704739992,None,1298.6572704739992,None,1298.6572704739992,None,1299.5081446580007,None,1,0.45192706899979385,1299.5081446580007,None,116,1299.9762503320017,None,142,A,1,2021_Jun_01_1500,GazeFlow,2020.1.2,59.77460741066983,
11,Block512.xls,A,12,5,40,40,12,congruent,Right,Right,Left,79,76,3,blue,2,5,/home/docky/apps/exp/images/79Bi.jpeg,/home/docky/apps/exp/images/76B.jpeg,0,10,10,10,0,4,4,4,1300.977988163002,None,1300.977988163002,None,1,2.405552477997844,1300.977988163002,None,1303.4167663049993,None,1303.4167663049993,None,1305.9219702160008,None,1305.9219702160008,None,1.400806736000959,1307.7236660529998,None,1307.7236660529998,None,5,1,0.7171306290001667,1309.1109603110017,None,1309.1109603110017,None,1309.1109603110017,None,1309.8449803229996,None,1,0.8682142619982187,1309.8449803229996,None,118,1310.7300918619985,None,142,A,1,2021_Jun_01_1500,GazeFlow,2020.1.2,59.77460741066983,
11,Block512.xls,A,12,6,64,4,21,incongruent,Right,Left,Right,65,66,1,blue,2,6,/home/docky/apps/exp/images/35Yi.jpeg,/home/docky/apps/exp/images/66B.jpeg,0,10,10,10,0,5,5,5,1311.7325681930015,None,1311.7325681930015,None,1,2.0212317389996315,1311.7325681930015,None,1313.7915492889988,None,1313.7915492889988,None,1316.291764042002,None,1316.291764042002,None,1.0504726869985461,1318.0931507860005,None,1318.0931507860005,None,6,1,1.0514074210004765,1319.1303451899985,None,1319.1303451899985,None,1319.1303451899985,None,1320.198613392,None,1,0.4675101779976103,1320.198613392,None,120,1320.6825171519995,None,142,A,1,2021_Jun_01_1500,GazeFlow,2020.1.2,59.77460741066983,
11,Block512.xls,A,12,7,12,12,11,congruent,Left,Left,Right,76,79,3,blue,2,6,/home/docky/apps/exp/images/76B.jpeg,/home/docky/apps/exp/images/79Bi.jpeg,0,10,10,10,0,6,6,6,1321.6847357869992,None,1321.6847357869992,None,1,2.338880234001408,1321.6847357869992,None,1324.0594583860002,None,1324.0594583860002,None,1326.5597270030012,None,1326.5597270030012,None,1.06700016099785,1328.3575109640005,None,1328.3575109640005,None,6,1,1.7869367329985835,1329.4169756049996,None,1329.4169756049996,None,1329.4169756049996,None,1331.220287832999,None,1,0.6680901119980263,1331.220287832999,None,122,1331.9046526739985,None,142,A,1,2021_Jun_01_1500,GazeFlow,2020.1.2,59.77460741066983,
11,Block512.xls,A,12,8,49,49,12,congruent,Right,Right,Left,39,38,1,yellow,2,5,/home/docky/apps/exp/images/39Y.jpeg,/home/docky/apps/exp/images/38Yi.jpeg,0,10,10,10,0,7,7,7,1332.9064214610007,None,1332.9064214610007,None,1,2.6395729260002554,1332.9064214610007,None,1335.5794877150001,None,1335.5794877150001,None,1338.0842960900009,None,1338.0842960900009,None,1.1168414849998953,1339.8859885650018,None,1339.8859885650018,None,5,1,0.8178563280016533,1340.9893144779999,None,1340.9893144779999,None,1340.9893144779999,None,1341.8236200899992,None,1,0.43535112000245135,1341.8236200899992,None,124,1342.2750384790015,None,142,A,1,2021_Jun_01_1500,GazeFlow,2020.1.2,59.77460741066983,
11,Block512.xls,A,,,,,,,,,,,,,,,,,,0,10,10,10,,,,,,,,,,,,,,,,,,,,,,,,,,,,,,,,,,,,,,,,,,,,142,A,1,2021_Jun_01_1500,GazeFlow,2020.1.2,59.77460741066983,
12,Block503.xls,A,3,1,22,22,11,congruent,Left,Left,Right,62,65,3,yellow,2,6,/home/docky/apps/exp/images/38Bi.jpeg,/home/docky/apps/exp/images/35B.jpeg,0,11,11,11,0,0,0,0,1363.3331005520013,None,1363.3331005520013,None,1,3.6106118759998935,1363.3331005520013,None,1366.9705493010006,None,1366.9705493010006,None,1369.4951878700012,None,1369.4951878700012,None,1.2499143149980227,1371.2759810009993,None,1371.2759810009993,None,6,1,0.6173048450000351,1372.5173554159992,None,1372.5173554159992,None,1372.5173554159992,None,1373.151214769001,None,1,0.4849429220012098,1373.151214769001,None,126,1373.6527722870014,None,142,A,1,2021_Jun_01_1500,GazeFlow,2020.1.2,59.77460741066983,
12,Block503.xls,A,3,2,65,5,21,incongruent,Right,Left,Right,65,66,1,blue,2,6,/home/docky/apps/exp/images/35Y.jpeg,/home/docky/apps/exp/images/66Bi.jpeg,0,11,11,11,0,1,1,1,1374.6542441189995,None,1374.6542441189995,None,1,2.322225857002195,1374.6542441189995,None,1377.010725098,None,1377.010725098,None,1379.514798010001,None,1379.514798010001,None,0.9500507030024892,1381.311383373999,None,1381.311383373999,None,5,0,0.8847862399998121,1382.2528909579996,None,1382.2528909579996,None,1382.2528909579996,None,1383.154205805,None,1,0.45156535699788947,1383.154205805,None,124,1383.6221230660012,None,142,A,1,2021_Jun_01_1500,GazeFlow,2020.1.2,59.77460741066983,
12,Block503.xls,A,3,3,76,16,21,incongruent,Right,Left,Right,33,35,2,yellow,2,6,/home/docky/apps/exp/images/33Y.jpeg,/home/docky/apps/exp/images/35Yi.jpeg,0,11,11,11,0,2,2,2,1384.6236004150014,None,1384.6236004150014,None,1,2.1214806850002788,1384.6236004150014,None,1386.7790126309992,None,1386.7790126309992,None,1389.2838394989994,None,1389.2838394989994,None,0.9834636430023238,1391.0850499469998,None,1391.0850499469998,None,6,1,0.7845068120004726,1392.0552600949995,None,1392.0552600949995,None,1392.0552600949995,None,1392.8561966580019,None,1,0.3845405709980696,1392.8561966580019,None,126,1393.2570754500011,None,142,A,1,2021_Jun_01_1500,GazeFlow,2020.1.2,59.77460741066983,
12,Block503.xls,A,3,4,29,29,11,congruent,Left,Left,Right,79,82,3,yellow,2,6,/home/docky/apps/exp/images/79Y.jpeg,/home/docky/apps/exp/images/80Yi.jpeg,0,11,11,11,0,3,3,3,1394.2591460990006,None,1394.2591460990006,None,1,2.3048776229989016,1394.2591460990006,None,1396.5986807929985,None,1396.5986807929985,None,1399.1007116469991,None,1399.1007116469991,None,1.5848363020013494,1400.9063075980011,None,1400.9063075980011,None,5,0,0.7522303750010906,1402.4751941530012,None,1402.4751941530012,None,1402.4751941530012,None,1403.2437322650003,None,1,0.40020520799953374,1403.2437322650003,None,124,1403.660435599999,None,142,A,1,2021_Jun_01_1500,GazeFlow,2020.1.2,59.77460741066983,
12,Block503.xls,A,3,5,103,43,22,incongruent,Left,Right,Left,39,38,1,blue,2,5,/home/docky/apps/exp/images/39Bi.jpeg,/home/docky/apps/exp/images/38B.jpeg,0,11,11,11,0,4,4,4,1404.6623699869997,None,1404.6623699869997,None,1,2.555793026000174,1404.6623699869997,None,1407.2518559839991,None,1407.2518559839991,None,1409.7570079920006,None,1409.7570079920006,None,1.3508846889999404,1411.558751976001,None,1411.558751976001,None,5,1,0.8679532940004719,1412.8954801360014,None,1412.8954801360014,None,1412.8954801360014,None,1413.7800430860007,None,1,0.5016225270010182,1413.7800430860007,None,126,1414.298353495,None,142,A,1,2021_Jun_01_1500,GazeFlow,2020.1.2,59.77460741066983,
12,Block503.xls,A,3,6,47,47,12,congruent,Right,Right,Left,35,33,2,yellow,2,5,/home/docky/apps/exp/images/35Yi.jpeg,/home/docky/apps/exp/images/33Y.jpeg,0,11,11,11,0,5,5,5,1415.2998650260015,None,1415.2998650260015,None,1,2.121510094999394,1415.2998650260015,None,1417.45514998,None,1417.45514998,None,1419.9597874229985,None,1419.9597874229985,None,1.6514302649993624,1421.7636402239987,None,1421.7636402239987,None,5,1,0.8523235119973833,1423.3992911099995,None,1423.3992911099995,None,1423.3992911099995,None,1424.2677322150012,None,1,0.9180067679990316,1424.2677322150012,None,128,1425.2023237180001,None,142,A,1,2021_Jun_01_1500,GazeFlow,2020.1.2,59.77460741066983,
12,Block503.xls,A,3,7,20,20,11,congruent,Left,Left,Right,65,66,1,yellow,2,6,/home/docky/apps/exp/images/35Bi.jpeg,/home/docky/apps/exp/images/66Y.jpeg,0,11,11,11,0,6,6,6,1426.2045546180016,None,1426.2045546180016,None,1,2.5722407799985376,1426.2045546180016,None,1428.8105550750006,None,1428.8105550750006,None,1431.3135490390014,None,1431.3135490390014,None,1.4343506539989903,1433.1166034060006,None,1433.1166034060006,None,6,1,0.9349316989973886,1434.537871255001,None,1434.537871255001,None,1434.537871255001,None,1435.4893340669987,None,1,0.6684110320020409,1435.4893340669987,None,130,1436.1739339660016,None,142,A,1,2021_Jun_01_1500,GazeFlow,2020.1.2,59.77460741066983,
12,Block503.xls,A,3,8,27,27,11,congruent,Left,Left,Right,72,77,5,yellow,2,6,/home/docky/apps/exp/images/72Yi.jpeg,/home/docky/apps/exp/images/77Y.jpeg,0,11,11,11,0,7,7,7,1437.1755760710003,None,1437.1755760710003,None,1,1.704845446998661,1437.1755760710003,None,1438.9135831029998,None,1438.9135831029998,None,1441.4159912950017,None,1441.4159912950017,None,1.1672629780005082,1443.2153398570008,None,1443.2153398570008,None,6,1,0.7010144810010388,1444.3736791599986,None,1444.3736791599986,None,1444.3736791599986,None,1445.0910054150008,None,1,0.35078104000058374,1445.0910054150008,None,132,1445.4586592279993,None,142,A,1,2021_Jun_01_1500,GazeFlow,2020.1.2,59.77460741066983,
12,Block503.xls,A,,,,,,,,,,,,,,,,,,0,11,11,11,,,,,,,,,,,,,,,,,,,,,,,,,,,,,,,,,,,,,,,,,,,,142,A,1,2021_Jun_01_1500,GazeFlow,2020.1.2,59.77460741066983,
13,Block501.xls,A,1,1,54,54,12,congruent,Right,Right,Left,75,69,6,yellow,2,5,/home/docky/apps/exp/images/76Y.jpeg,/home/docky/apps/exp/images/69Yi.jpeg,0,12,12,12,0,0,0,0,1465.4644854139988,None,1465.4644854139988,None,1,4.533646214997134,1465.4644854139988,None,1470.027865881002,None,1470.027865881002,None,1472.5458918330005,None,1472.5458918330005,None,2.0012980319988856,1474.3431271049994,None,1474.3431271049994,None,5,1,1.251970600002096,1476.335686942999,None,1476.335686942999,None,1476.335686942999,None,1477.604111132001,None,1,0.43433748399911565,1477.604111132001,None,134,1478.0549695629998,None,142,A,1,2021_Jun_01_1500,GazeFlow,2020.1.2,59.77460741066983,
13,Block501.xls,A,1,2,70,10,21,incongruent,Right,Left,Right,73,76,3,blue,2,6,/home/docky/apps/exp/images/73Bi.jpeg,/home/docky/apps/exp/images/76B.jpeg,0,12,12,12,0,1,1,1,1479.057521445,None,1479.057521445,None,1,2.405350384000485,1479.057521445,None,1481.4961279929994,None,1481.4961279929994,None,1483.999814027,None,1483.999814027,None,1.2172797140010516,1485.8023232429987,None,1485.8023232429987,None,6,1,0.9513724500029639,1487.0063808170016,None,1487.0063808170016,None,1487.0063808170016,None,1487.9742240230007,None,1,0.3017150750019937,1487.9742240230007,None,136,1488.292058965002,None,142,A,1,2021_Jun_01_1500,GazeFlow,2020.1.2,59.77460741066983,
13,Block501.xls,A,1,3,84,24,21,incongruent,Right,Left,Right,69,76,7,yellow,2,6,/home/docky/apps/exp/images/69Yi.jpeg,/home/docky/apps/exp/images/76Y.jpeg,0,12,12,12,0,2,2,2,1489.2937170520017,None,1489.2937170520017,None,1,2.3383782649980276,1489.2937170520017,None,1491.6510148509988,None,1491.6510148509988,None,1494.171805525999,None,1494.171805525999,None,1.083482907997677,1495.972785328002,None,1495.972785328002,None,6,1,0.7844248559995322,1497.0426789400008,None,1497.0426789400008,None,1497.0426789400008,None,1497.8435087340004,None,1,0.3842294630012475,1497.8435087340004,None,138,1498.2446134109996,None,142,A,1,2021_Jun_01_1500,GazeFlow,2020.1.2,59.77460741066983,
13,Block501.xls,A,1,4,26,26,11,congruent,Left,Left,Right,69,75,6,yellow,2,6,/home/docky/apps/exp/images/69Y.jpeg,/home/docky/apps/exp/images/76Yi.jpeg,0,12,12,12,0,3,3,3,1499.246199958001,None,1499.246199958001,None,1,1.9377194069966208,1499.246199958001,None,1501.214973230999,None,1501.214973230999,None,1503.7225421680014,None,1503.7225421680014,None,1.1040478969989636,1505.5092307710001,None,1505.5092307710001,None,6,1,0.8342311880005582,1506.6113560580015,None,1506.6113560580015,None,1506.6113560580015,None,1507.4622195369993,None,1,1.1693887450019247,1507.4622195369993,None,140,1508.6477875780001,None,142,A,1,2021_Jun_01_1500,GazeFlow,2020.1.2,59.77460741066983,
13,Block501.xls,A,1,5,97,37,22,incongruent,Left,Right,Left,79,73,6,blue,2,5,/home/docky/apps/exp/images/79B.jpeg,/home/docky/apps/exp/images/73Bi.jpeg,0,12,12,12,0,4,4,4,1509.650033258,None,1509.650033258,None,1,1.586716116999014,1509.650033258,None,1511.2706839940001,None,1511.2706839940001,None,1513.7755689410005,None,1513.7755689410005,None,1.1671593930004747,1515.5790121620012,None,1515.5790121620012,None,5,1,0.8178288639974198,1516.7308124129995,None,1516.7308124129995,None,1516.7308124129995,None,1517.5651587840002,None,1,0.43487776899928576,1517.5651587840002,None,142,1518.0165032590012,None,142,A,1,2021_Jun_01_1500,GazeFlow,2020.1.2,59.77460741066983,
13,Block501.xls,A,1,6,98,38,22,incongruent,Left,Right,Left,79,73,6,blue,2,5,/home/docky/apps/exp/images/79B.jpeg,/home/docky/apps/exp/images/73Bi.jpeg,0,12,12,12,0,5,5,5,1519.0181732169985,None,1519.0181732169985,None,1,2.6225465620009345,1519.0181732169985,None,1521.6743801170014,None,1521.6743801170014,None,1524.1789145980001,None,1524.1789145980001,None,1.1338664969989622,1525.981084687999,None,1525.981084687999,None,5,1,0.8180099290002545,1527.1009374759997,None,1527.1009374759997,None,1527.1009374759997,None,1527.9352875799996,None,1,0.5182550119970983,1527.9352875799996,None,144,1528.470251969,None,142,A,1,2021_Jun_01_1500,GazeFlow,2020.1.2,59.77460741066983,
13,Block501.xls,A,1,7,77,17,21,incongruent,Right,Left,Right,65,66,1,yellow,2,6,/home/docky/apps/exp/images/35B.jpeg,/home/docky/apps/exp/images/66Yi.jpeg,0,12,12,12,0,6,6,6,1529.4717455540012,None,1529.4717455540012,None,1,2.0545348990017374,1529.4717455540012,None,1531.5601944980008,None,1531.5601944980008,None,1534.0698614430003,None,1534.0698614430003,None,1.000139527997817,1535.866630501001,None,1535.866630501001,None,6,1,0.7508708729983482,1536.8532795229985,None,1536.8532795229985,None,1536.8532795229985,None,1537.6208298349993,None,1,0.3008248359983554,1537.6208298349993,None,146,1537.9382600979989,None,142,A,1,2021_Jun_01_1500,GazeFlow,2020.1.2,59.77460741066983,
13,Block501.xls,A,1,8,50,50,12,congruent,Right,Right,Left,66,65,1,yellow,2,5,/home/docky/apps/exp/images/66Y.jpeg,/home/docky/apps/exp/images/35Bi.jpeg,0,12,12,12,0,7,7,7,1538.9403975339992,None,1538.9403975339992,None,1,2.0209198859993194,1538.9403975339992,None,1540.9955511379994,None,1540.9955511379994,None,1543.4973099669987,None,1543.4973099669987,None,0.966948675999447,1545.2975880820013,None,1545.2975880820013,None,6,0,0.6677390779987036,1546.2548081890018,None,1546.2548081890018,None,1546.2548081890018,None,1546.9389465040003,None,1,0.3007948279991979,1546.9389465040003,None,144,1547.2562413570013,None,142,A,1,2021_Jun_01_1500,GazeFlow,2020.1.2,59.77460741066983,
13,Block501.xls,A,,,,,,,,,,,,,,,,,,0,12,12,12,,,,,,,,,,,,,,,,,,,,,,,,,,,,,,,,,,,,,,,,,,,,142,A,1,2021_Jun_01_1500,GazeFlow,2020.1.2,59.77460741066983,
14,Block513.xls,A,13,1,32,32,12,congruent,Right,Right,Left,19,16,3,blue,2,5,/home/docky/apps/exp/images/19B.jpeg,/home/docky/apps/exp/images/16Bi.jpeg,0,13,13,13,0,0,0,0,1570.6701692360002,None,1570.6701692360002,None,1,4.3994565590001,1570.6701692360002,None,1575.099704870001,None,1575.099704870001,None,1577.6162477210019,None,1577.6162477210019,None,1.0997600490009063,1579.4158975749997,None,1579.4158975749997,None,5,1,0.9013122129981639,1580.5045087809995,None,1580.5045087809995,None,1580.5045087809995,None,1581.4224349690012,None,1,0.40159375200164504,1581.4224349690012,None,146,1581.8405228789998,None,142,A,1,2021_Jun_01_1500,GazeFlow,2020.1.2,59.77460741066983,
14,Block513.xls,A,13,2,81,21,21,incongruent,Right,Left,Right,38,39,1,yellow,2,6,/home/docky/apps/exp/images/38Yi.jpeg,/home/docky/apps/exp/images/39Y.jpeg,0,13,13,13,0,1,1,1,1582.8421968010007,None,1582.8421968010007,None,1,2.371774380997522,1582.8421968010007,None,1585.2478435779994,None,1585.2478435779994,None,1587.7548120280007,None,1587.7548120280007,None,1.3507000380013778,1589.5546572189996,None,1589.5546572189996,None,5,0,0.884509881001577,1590.8915759789998,None,1590.8915759789998,None,1590.8915759789998,None,1591.7926918779995,None,1,0.5854458969988627,1591.7926918779995,None,144,1592.3943878999999,None,142,A,1,2021_Jun_01_1500,GazeFlow,2020.1.2,59.77460741066983,
14,Block513.xls,A,13,3,92,32,22,incongruent,Left,Right,Left,19,16,3,blue,2,5,/home/docky/apps/exp/images/19B.jpeg,/home/docky/apps/exp/images/16Bi.jpeg,0,13,13,13,0,2,2,2,1593.3960038850018,None,1593.3960038850018,None,1,2.9896459709998453,1593.3960038850018,None,1596.420686387999,None,1596.420686387999,None,1598.9226807390005,None,1598.9226807390005,None,0.8831323439990229,1600.7258306699987,None,1600.7258306699987,None,5,1,0.8343800020011258,1601.5956209860014,None,1601.5956209860014,None,1601.5956209860014,None,1602.4467766589987,None,1,0.3676806300027238,1602.4467766589987,None,146,1602.830822934,None,142,A,1,2021_Jun_01_1500,GazeFlow,2020.1.2,59.77460741066983,
14,Block513.xls,A,13,4,6,6,11,congruent,Left,Left,Right,65,66,1,blue,2,6,/home/docky/apps/exp/images/35Y.jpeg,/home/docky/apps/exp/images/66Bi.jpeg,0,13,13,13,0,3,3,3,1603.832931920002,None,1603.832931920002,None,1,2.2215737240003364,1603.832931920002,None,1606.0884534969991,None,1606.0884534969991,None,1608.5914484470013,None,1608.5914484470013,None,1.4176332319984795,1610.3908358900007,None,1610.3908358900007,None,5,0,0.8009306020030635,1611.7987588620017,None,1611.7987588620017,None,1611.7987588620017,None,1612.616580848,None,1,1.1525192289991537,1612.616580848,None,144,1613.7852647090003,None,142,A,1,2021_Jun_01_1500,GazeFlow,2020.1.2,59.77460741066983,
14,Block513.xls,A,13,5,67,7,21,incongruent,Right,Left,Right,38,39,1,blue,2,6,/home/docky/apps/exp/images/38Bi.jpeg,/home/docky/apps/exp/images/39B.jpeg,0,13,13,13,0,4,4,4,1614.7872671980003,None,1614.7872671980003,None,1,5.077557412998431,1614.7872671980003,None,1619.898554162999,None,1619.898554162999,None,1622.4033405720002,None,1622.4033405720002,None,1.28409289299816,1624.2052559010008,None,1624.2052559010008,None,5,0,0.8180427970000892,1625.475337066,None,1625.475337066,None,1625.475337066,None,1626.3096667940008,None,1,0.45114973400268354,1626.3096667940008,None,142,1626.7771707460015,None,142,A,1,2021_Jun_01_1500,GazeFlow,2020.1.2,59.77460741066983,
14,Block513.xls,A,13,6,111,51,22,incongruent,Left,Right,Left,66,65,1,yellow,2,5,/home/docky/apps/exp/images/66Yi.jpeg,/home/docky/apps/exp/images/35B.jpeg,0,13,13,13,0,5,5,5,1627.7793610070003,None,1627.7793610070003,None,1,2.7724974599987036,1627.7793610070003,None,1630.585747224999,None,1630.585747224999,None,1633.0886707809987,None,1633.0886707809987,None,1.1004341949992522,1634.891960107001,None,1634.891960107001,None,6,0,0.8007566989981569,1635.9792442789985,None,1635.9792442789985,None,1635.9792442789985,None,1636.7965914019987,None,1,0.40108121299999766,1636.7965914019987,None,140,1637.214371031001,None,142,A,1,2021_Jun_01_1500,GazeFlow,2020.1.2,59.77460741066983,
14,Block513.xls,A,13,7,88,28,21,incongruent,Right,Left,Right,79,82,3,yellow,2,6,/home/docky/apps/exp/images/79Y.jpeg,/home/docky/apps/exp/images/80Yi.jpeg,0,13,13,13,0,6,6,6,1638.2159515370004,None,1638.2159515370004,None,1,2.4725096990005113,1638.2159515370004,None,1640.7257642879995,None,1640.7257642879995,None,1643.2257375990011,None,1643.2257375990011,None,1.2174802939989604,1645.029008204001,None,1645.029008204001,None,5,0,0.8675034990010317,1646.2326751180008,None,1646.2326751180008,None,1646.2326751180008,None,1647.117102414999,None,1,0.38477263800086803,1647.117102414999,None,138,1647.5180267950018,None,142,A,1,2021_Jun_01_1500,GazeFlow,2020.1.2,59.77460741066983,
14,Block513.xls,A,13,8,14,14,11,congruent,Left,Left,Right,80,83,3,blue,2,6,/home/docky/apps/exp/images/80B.jpeg,/home/docky/apps/exp/images/83Bi.jpeg,0,13,13,13,0,7,7,7,1648.5196609599989,None,1648.5196609599989,None,1,2.8063174270027957,1648.5196609599989,None,1651.3597194760005,None,1651.3597194760005,None,1653.8643402160014,None,1653.8643402160014,None,1.2505649390004692,1655.6664673310006,None,1655.6664673310006,None,6,1,0.7174191459998838,1656.903299081001,None,1656.903299081001,None,1656.903299081001,None,1657.6373257939995,None,1,0.31761627399828285,1657.6373257939995,None,140,1657.9714159780015,None,142,A,1,2021_Jun_01_1500,GazeFlow,2020.1.2,59.77460741066983,
14,Block513.xls,A,,,,,,,,,,,,,,,,,,0,13,13,13,,,,,,,,,,,,,,,,,,,,,,,,,,,,,,,,,,,,,,,,,,,,142,A,1,2021_Jun_01_1500,GazeFlow,2020.1.2,59.77460741066983,
15,Block514.xls,A,14,1,113,53,22,incongruent,Left,Right,Left,75,69,6,yellow,2,5,/home/docky/apps/exp/images/76Y.jpeg,/home/docky/apps/exp/images/69Yi.jpeg,0,14,14,14,0,0,0,0,1680.1340118650005,None,1680.1340118650005,None,1,9.05537796900171,1680.1340118650005,None,1689.222562482999,None,1689.222562482999,None,1691.7422765400006,None,1691.7422765400006,None,1.9015298300000723,1693.5415193480003,None,1693.5415193480003,None,5,1,0.9355266490019858,1695.4279705570007,None,1695.4279705570007,None,1695.4279705570007,None,1696.3797816469996,None,1,0.39996071199857397,1696.3797816469996,None,142,1696.7964919100014,None,142,A,1,2021_Jun_01_1500,GazeFlow,2020.1.2,59.77460741066983,
15,Block514.xls,A,14,2,45,45,12,congruent,Right,Right,Left,39,38,1,blue,2,5,/home/docky/apps/exp/images/39B.jpeg,/home/docky/apps/exp/images/38Bi.jpeg,0,14,14,14,0,1,1,1,1697.7987563120005,None,1697.7987563120005,None,1,2.839387898999121,1697.7987563120005,None,1700.6718744179998,None,1700.6718744179998,None,1703.1768687549993,None,1703.1768687549993,None,1.1500130590029585,1704.9801684459999,None,1704.9801684459999,None,5,1,0.9013862209976651,1706.1152508220002,None,1706.1152508220002,None,1706.1152508220002,None,1707.0332298350004,None,1,0.4184482640011993,1707.0332298350004,None,144,1707.4679151870005,None,142,A,1,2021_Jun_01_1500,GazeFlow,2020.1.2,59.77460741066983,
15,Block514.xls,A,14,3,52,52,12,congruent,Right,Right,Left,75,69,6,yellow,2,5,/home/docky/apps/exp/images/76Y.jpeg,/home/docky/apps/exp/images/69Yi.jpeg,0,14,14,14,0,2,2,2,1708.4695149840009,None,1708.4695149840009,None,1,2.28866973699769,1708.4695149840009,None,1710.797840596002,None,1710.797840596002,None,1713.2995126269998,None,1713.2995126269998,None,1.2174103889992693,1715.0985026380004,None,1715.0985026380004,None,5,1,0.884477520998189,1716.3018600860014,None,1716.3018600860014,None,1716.3018600860014,None,1717.2029966100017,None,1,0.467869450996659,1717.2029966100017,None,146,1717.6869691190004,None,142,A,1,2021_Jun_01_1500,GazeFlow,2020.1.2,59.77460741066983,
15,Block514.xls,A,14,4,106,46,22,incongruent,Left,Right,Left,35,33,2,yellow,2,5,/home/docky/apps/exp/images/35Yi.jpeg,/home/docky/apps/exp/images/33Y.jpeg,0,14,14,14,0,3,3,3,1718.689411776002,None,1718.689411776002,None,1,3.2735856090002926,1718.689411776002,None,1721.9968546700002,None,1721.9968546700002,None,1724.501635056,None,1724.501635056,None,1.2003543430000718,1726.2989166799998,None,1726.2989166799998,None,5,1,1.7026366339996457,1727.490355402002,None,1727.490355402002,None,1727.490355402002,None,1729.209770712001,None,1,0.450967942000716,1729.209770712001,None,148,1729.6771634729994,None,142,A,1,2021_Jun_01_1500,GazeFlow,2020.1.2,59.77460741066983,
15,Block514.xls,A,14,5,109,49,22,incongruent,Left,Right,Left,39,38,1,yellow,2,5,/home/docky/apps/exp/images/39Yi.jpeg,/home/docky/apps/exp/images/38Y.jpeg,0,14,14,14,0,4,4,4,1730.6796107539994,None,1730.6796107539994,None,1,2.4884166170013486,1730.6796107539994,None,1733.2027895069987,None,1733.2027895069987,None,1735.706543417,None,1735.706543417,None,1.0838765980006428,1737.5082012499988,None,1737.5082012499988,None,5,1,0.8847189629996137,1738.5784216559987,None,1738.5784216559987,None,1738.5784216559987,None,1739.4796359069987,None,1,0.4518414939993818,1739.4796359069987,None,150,1739.9476667630006,None,142,A,1,2021_Jun_01_1500,GazeFlow,2020.1.2,59.77460741066983,
15,Block514.xls,A,14,6,89,29,21,incongruent,Right,Left,Right,79,82,3,yellow,2,6,/home/docky/apps/exp/images/79Yi.jpeg,/home/docky/apps/exp/images/80Y.jpeg,0,14,14,14,0,5,5,5,1740.9490859649995,None,1740.9490859649995,None,1,3.6578449240005284,1740.9490859649995,None,1744.6406541729993,None,1744.6406541729993,None,1747.1440961070002,None,1747.1440961070002,None,1.1670339230004174,1748.9490844819993,None,1748.9490844819993,None,6,1,0.7008838459987601,1750.1006570089994,None,1750.1006570089994,None,1750.1006570089994,None,1750.8184518849994,None,1,0.3007273779985553,1750.8184518849994,None,152,1751.1356757309986,None,142,A,1,2021_Jun_01_1500,GazeFlow,2020.1.2,59.77460741066983,
15,Block514.xls,A,14,7,91,31,22,incongruent,Left,Right,Left,19,16,3,blue,2,5,/home/docky/apps/exp/images/19Bi.jpeg,/home/docky/apps/exp/images/16B.jpeg,0,14,14,14,0,6,6,6,1752.1377360100014,None,1752.1377360100014,None,1,1.8207576099994185,1752.1377360100014,None,1753.9920070059998,None,1753.9920070059998,None,1756.4971710329992,None,1756.4971710329992,None,1.2842092749997391,1758.2935769409996,None,1758.2935769409996,None,5,1,0.8010759079988929,1759.5691152690015,None,1759.5691152690015,None,1759.5691152690015,None,1760.386892896,None,1,1.3192186339983891,1760.386892896,None,154,1761.7225804810005,None,142,A,1,2021_Jun_01_1500,GazeFlow,2020.1.2,59.77460741066983,
15,Block514.xls,A,14,8,79,19,21,incongruent,Right,Left,Right,62,65,3,yellow,2,6,/home/docky/apps/exp/images/38B.jpeg,/home/docky/apps/exp/images/35Bi.jpeg,0,14,14,14,0,7,7,7,1762.7251888210012,None,1762.7251888210012,None,1,2.6552454470001976,1762.7251888210012,None,1765.4144602320011,None,1765.4144602320011,None,1767.9191548560011,None,1767.9191548560011,None,1.7013625880026666,1769.7205826399986,None,1769.7205826399986,None,6,1,1.6693210410012398,1771.408920709,None,1771.408920709,None,1771.408920709,None,1773.095101152001,None,1,0.500897822999832,1773.095101152001,None,156,1773.612694669002,None,142,A,1,2021_Jun_01_1500,GazeFlow,2020.1.2,59.77460741066983,
15,Block514.xls,A,,,,,,,,,,,,,,,,,,0,14,14,14,,,,,,,,,,,,,,,,,,,,,,,,,,,,,,,,,,,,,,,,,,,,142,A,1,2021_Jun_01_1500,GazeFlow,2020.1.2,59.77460741066983,
