Nblock,condsFile,grouping,Block,TrialBlock,N,trialN,trialCond,gazeCon,gazedirR,corrBinR,corrBinP,valLBY,valRBY,diff,colorCube,feedbacktext,corrAns,imageL,imageR,SelBlocks.thisRepN,SelBlocks.thisTrialN,SelBlocks.thisN,SelBlocks.thisIndex,Trials.thisRepN,Trials.thisTrialN,Trials.thisN,Trials.thisIndex,waitCube.started,waitCube.stopped,text_3.started,text_3.stopped,StartKeyPress.keys,StartKeyPress.rt,StartKeyPress.started,StartKeyPress.stopped,StimL.started,StimL.stopped,StimR.started,StimR.stopped,imageStim2L.started,imageStim2L.stopped,imageStim2R.started,imageStim2R.stopped,RTkeyRelease,imageStim3L.started,imageStim3L.stopped,imageStim3R.started,imageStim3R.stopped,dropResp.keys,dropResp.corr,dropResp.rt,dropResp.started,dropResp.stopped,imageStim5L.started,imageStim5L.stopped,imageStim5R.started,imageStim5R.stopped,text_2.started,text_2.stopped,ReturnSpace.keys,ReturnSpace.rt,ReturnSpace.started,ReturnSpace.stopped,totalpoints,textFeedback.started,textFeedback.stopped,participant,group,session,date,expName,psychopyVersion,frameRate,
1,Block809.xls,B,9,1,93,93,None,congruent,Right,Right,Left,80,79,1,yellow,2,5,/home/docky/apps/exp/images/80Y.jpeg,/home/docky/apps/exp/images/79Yi.jpeg,0,0,0,0,0,0,0,0,61.65250559899869,None,61.65250559899869,None,1,3.427714412999194,61.65250559899869,None,65.11360401799902,None,65.11360401799902,None,67.63081333900118,None,67.63081333900118,None,1.6007785010006046,69.43582605499978,None,69.43582605499978,None,5,1,1.202821547001804,71.0179274430011,None,71.0179274430011,None,71.0179274430011,None,72.23688745899926,None,1,1.419287703000009,72.23688745899926,None,2,73.67277042600108,None,143,B,1,2021_Jun_01_1814,GazeFlow,2020.1.2,59.88377589065241,
1,Block809.xls,B,9,2,15,15,None,congruent,Left,Left,Right,38,39,1,blue,2,6,/home/docky/apps/exp/images/38B.jpeg,/home/docky/apps/exp/images/39Bi.jpeg,0,0,0,0,0,1,1,1,74.67500153899891,None,74.67500153899891,None,1,5.928560629999993,74.67500153899891,None,80.63728591100153,None,80.63728591100153,None,83.14193354699819,None,83.14193354699819,None,1.283929042001546,84.94447435899929,None,84.94447435899929,None,5,0,1.1020987599986256,86.2144389310015,None,86.2144389310015,None,86.2144389310015,None,87.33294835899869,None,1,0.9845310029995744,87.33294835899869,None,0,88.33446047100006,None,143,B,1,2021_Jun_01_1814,GazeFlow,2020.1.2,59.88377589065241,
1,Block809.xls,B,9,3,117,21,None,incongruent,Left,Right,Left,39,38,1,yellow,2,5,/home/docky/apps/exp/images/39Yi.jpeg,/home/docky/apps/exp/images/38Y.jpeg,0,0,0,0,0,2,2,2,89.3371512829981,None,89.3371512829981,None,1,4.77561411699935,89.3371512829981,None,94.1486396299988,None,94.1486396299988,None,96.65022377499918,None,96.65022377499918,None,1.4010256869987643,98.45382164200055,None,98.45382164200055,None,5,1,1.0018468090020178,99.84075727299933,None,99.84075727299933,None,99.84075727299933,None,100.85917240499839,None,1,0.6341845390015806,100.85917240499839,None,2,101.50995411300028,None,143,B,1,2021_Jun_01_1814,GazeFlow,2020.1.2,59.88377589065241,
1,Block809.xls,B,9,4,94,94,None,congruent,Right,Right,Left,80,79,1,yellow,2,5,/home/docky/apps/exp/images/80Y.jpeg,/home/docky/apps/exp/images/79Yi.jpeg,0,0,0,0,0,3,3,3,102.51233659599893,None,102.51233659599893,None,1,4.593010865999531,102.51233659599893,None,107.14215287600018,None,107.14215287600018,None,109.64383289000034,None,109.64383289000034,None,1.2673016129992902,111.4471347869985,None,111.4471347869985,None,5,1,1.1023350979994575,112.69902451600137,None,112.69902451600137,None,112.69902451600137,None,113.81772754199847,None,1,0.9184100060010678,113.81772754199847,None,4,114.75224755999807,None,143,B,1,2021_Jun_01_1814,GazeFlow,2020.1.2,59.88377589065241,
1,Block809.xls,B,9,5,41,41,None,congruent,Right,Right,Left,79,76,3,blue,2,5,/home/docky/apps/exp/images/79Bi.jpeg,/home/docky/apps/exp/images/76B.jpeg,0,0,0,0,0,4,4,4,115.75482683299924,None,115.75482683299924,None,1,4.125446242996986,115.75482683299924,None,119.91330552100044,None,119.91330552100044,None,122.41849173900118,None,122.41849173900118,None,1.4010125659988262,124.22029159399972,None,124.22029159399972,None,5,1,1.0180827160002082,125.60738400199989,None,125.60738400199989,None,125.60738400199989,None,126.64229906299806,None,1,1.002259197000967,126.64229906299806,None,6,127.66103896899949,None,143,B,1,2021_Jun_01_1814,GazeFlow,2020.1.2,59.88377589065241,
1,Block809.xls,B,9,6,36,36,None,congruent,Right,Right,Left,79,73,6,blue,2,5,/home/docky/apps/exp/images/79Bi.jpeg,/home/docky/apps/exp/images/73B.jpeg,0,0,0,0,0,5,5,5,128.66330215400012,None,128.66330215400012,None,1,4.542308216001402,128.66330215400012,None,133.23953949399947,None,133.23953949399947,None,135.74261443100113,None,135.74261443100113,None,1.8685697389992129,137.54120457300087,None,137.54120457300087,None,5,1,1.3021754020010121,139.40073109500008,None,139.40073109500008,None,139.40073109500008,None,140.71966450800028,None,1,2.0044805469988205,140.71966450800028,None,8,142.7405548909992,None,143,B,1,2021_Jun_01_1814,GazeFlow,2020.1.2,59.88377589065241,
1,Block809.xls,B,9,7,78,78,None,congruent,Right,Right,Left,39,38,1,yellow,2,5,/home/docky/apps/exp/images/39Yi.jpeg,/home/docky/apps/exp/images/38Y.jpeg,0,0,0,0,0,6,6,6,143.74241970399817,None,143.74241970399817,None,1,4.358572647000983,143.74241970399817,None,148.13502114199946,None,148.13502114199946,None,150.63814890700087,None,150.63814890700087,None,1.317316351000045,152.44099159699908,None,152.44099159699908,None,5,1,1.21849094999925,153.74550221900063,None,153.74550221900063,None,153.74550221900063,None,154.98041125500094,None,1,0.8686464459970011,154.98041125500094,None,10,155.86567000099967,None,143,B,1,2021_Jun_01_1814,GazeFlow,2020.1.2,59.88377589065241,
1,Block809.xls,B,9,8,29,29,None,congruent,Right,Right,Left,38,35,3,blue,2,5,/home/docky/apps/exp/images/38B.jpeg,/home/docky/apps/exp/images/35Bi.jpeg,0,0,0,0,0,7,7,7,156.86777846599944,None,156.86777846599944,None,1,4.392376178999257,156.86777846599944,None,161.2939573449985,None,161.2939573449985,None,163.79712233700047,None,163.79712233700047,None,1.3672305750005762,165.5957837269998,None,165.5957837269998,None,5,1,1.1019279639986053,166.95447337699807,None,166.95447337699807,None,166.95447337699807,None,168.0730928310004,None,1,1.3856710190011654,168.0730928310004,None,12,169.4753151570003,None,143,B,1,2021_Jun_01_1814,GazeFlow,2020.1.2,59.88377589065241,
1,Block809.xls,B,,,,,,,,,,,,,,,,,,0,0,0,0,,,,,,,,,,,,,,,,,,,,,,,,,,,,,,,,,,,,,,,,,,,,143,B,1,2021_Jun_01_1814,GazeFlow,2020.1.2,59.88377589065241,
2,Block805.xls,B,5,1,16,16,None,congruent,Left,Left,Right,73,76,3,blue,2,6,/home/docky/apps/exp/images/73B.jpeg,/home/docky/apps/exp/images/76Bi.jpeg,0,1,1,1,0,0,0,0,192.62187973300024,None,192.62187973300024,None,1,4.88464073599971,192.62187973300024,None,197.53174588399997,None,197.53174588399997,None,200.0526072089997,None,200.0526072089997,None,1.4336618360030116,201.85618161000093,None,201.85618161000093,None,5,0,1.0529676299993298,203.27508142499937,None,203.27508142499937,None,203.27508142499937,None,204.34372837200135,None,1,0.85094617499999,204.34372837200135,None,10,205.2114537009984,None,143,B,1,2021_Jun_01_1814,GazeFlow,2020.1.2,59.88377589065241,
2,Block805.xls,B,5,2,2,2,None,congruent,Left,Left,Right,16,19,3,blue,2,6,/home/docky/apps/exp/images/16B.jpeg,/home/docky/apps/exp/images/19Bi.jpeg,0,1,1,1,0,1,1,1,206.21339297099985,None,206.21339297099985,None,1,3.9750860040003317,206.21339297099985,None,210.22040638399994,None,210.22040638399994,None,212.72723827400114,None,212.72723827400114,None,1.1169207370003278,214.52402964800058,None,214.52402964800058,None,6,1,1.1682529159988917,215.63243841200165,None,215.63243841200165,None,215.63243841200165,None,216.81744303400046,None,1,1.06893205400047,216.81744303400046,None,12,217.90262997299942,None,143,B,1,2021_Jun_01_1814,GazeFlow,2020.1.2,59.88377589065241,
2,Block805.xls,B,5,3,64,64,None,congruent,Left,Left,Right,69,76,7,yellow,2,6,/home/docky/apps/exp/images/69Y.jpeg,/home/docky/apps/exp/images/76Yi.jpeg,0,1,1,1,0,2,2,2,218.90472588500052,None,218.90472588500052,None,1,3.9251884169971163,218.90472588500052,None,222.86367452799823,None,222.86367452799823,None,225.36814428700018,None,225.36814428700018,None,1.4010257670015562,227.17000366000138,None,227.17000366000138,None,6,1,1.11891635199936,228.55738767000003,None,228.55738767000003,None,228.55738767000003,None,229.69288119300109,None,1,0.8176574829994934,229.69288119300109,None,14,230.52720116300043,None,143,B,1,2021_Jun_01_1814,GazeFlow,2020.1.2,59.88377589065241,
2,Block805.xls,B,5,4,61,61,None,congruent,Left,Left,Right,38,39,1,yellow,2,6,/home/docky/apps/exp/images/38Yi.jpeg,/home/docky/apps/exp/images/39Y.jpeg,0,1,1,1,0,3,3,3,231.52960203900147,None,231.52960203900147,None,1,3.4905290130009234,231.52960203900147,None,235.05390612200063,None,235.05390612200063,None,237.55870979999963,None,237.55870979999963,None,1.367249785002059,239.36245577500085,None,239.36245577500085,None,6,1,1.2523287420008273,240.71434402299928,None,240.71434402299928,None,240.71434402299928,None,241.98282010299954,None,1,0.9520638690009946,241.98282010299954,None,16,242.95140491799975,None,143,B,1,2021_Jun_01_1814,GazeFlow,2020.1.2,59.88377589065241,
2,Block805.xls,B,5,5,23,23,None,congruent,Left,Left,Right,80,83,3,blue,2,6,/home/docky/apps/exp/images/80B.jpeg,/home/docky/apps/exp/images/83Bi.jpeg,0,1,1,1,0,4,4,4,243.95358788500016,None,243.95358788500016,None,1,4.525873323000269,243.95358788500016,None,248.5130892829984,None,248.5130892829984,None,251.01634379100142,None,251.01634379100142,None,1.6679881370000658,252.82020675899912,None,252.82020675899912,None,6,1,1.2024065660007182,254.47437116400033,None,254.47437116400033,None,254.47437116400033,None,255.6932787859987,None,1,0.8177109820026089,255.6932787859987,None,18,256.5280091479981,None,143,B,1,2021_Jun_01_1814,GazeFlow,2020.1.2,59.88377589065241,
2,Block805.xls,B,5,6,87,87,None,congruent,Right,Right,Left,76,69,7,yellow,2,5,/home/docky/apps/exp/images/76Yi.jpeg,/home/docky/apps/exp/images/69Y.jpeg,0,1,1,1,0,5,5,5,257.5298983370012,None,257.5298983370012,None,1,4.375730356001441,257.5298983370012,None,261.93948866199935,None,261.93948866199935,None,264.44426196199856,None,264.44426196199856,None,1.2842227189976256,266.24504979300036,None,266.24504979300036,None,5,1,1.1359420520020649,267.51647918899835,None,267.51647918899835,None,267.51647918899835,None,268.6683002309983,None,1,0.9185789399998612,268.6683002309983,None,20,269.6032586299989,None,143,B,1,2021_Jun_01_1814,GazeFlow,2020.1.2,59.88377589065241,
2,Block805.xls,B,5,7,4,4,None,congruent,Left,Left,Right,35,38,3,blue,2,6,/home/docky/apps/exp/images/35B.jpeg,/home/docky/apps/exp/images/38Bi.jpeg,0,1,1,1,0,6,6,6,270.60579576799864,None,270.60579576799864,None,1,4.375089222998213,270.60579576799864,None,275.01728472000104,None,275.01728472000104,None,277.51819832099864,None,277.51819832099864,None,1.2504915869976685,279.3209943430011,None,279.3209943430011,None,6,1,1.0852589690002787,280.55845850400146,None,280.55845850400146,None,280.55845850400146,None,281.6603946469986,None,1,0.6841836000021431,281.6603946469986,None,22,282.3611079279981,None,143,B,1,2021_Jun_01_1814,GazeFlow,2020.1.2,59.88377589065241,
2,Block805.xls,B,5,8,114,18,None,incongruent,Right,Left,Right,79,82,3,yellow,2,6,/home/docky/apps/exp/images/79Y.jpeg,/home/docky/apps/exp/images/80Yi.jpeg,0,1,1,1,0,7,7,7,283.36330100000123,None,283.36330100000123,None,1,4.192509772001358,283.36330100000123,None,287.5895799710015,None,287.5895799710015,None,290.09209447399917,None,290.09209447399917,None,1.1502814719970047,291.8959316820001,None,291.8959316820001,None,5,0,0.9851389079994988,293.0327637650007,None,293.0327637650007,None,293.0327637650007,None,294.03385953700126,None,1,0.5514904209994711,294.03385953700126,None,20,294.6018072650004,None,143,B,1,2021_Jun_01_1814,GazeFlow,2020.1.2,59.88377589065241,
2,Block805.xls,B,,,,,,,,,,,,,,,,,,0,1,1,1,,,,,,,,,,,,,,,,,,,,,,,,,,,,,,,,,,,,,,,,,,,,143,B,1,2021_Jun_01_1814,GazeFlow,2020.1.2,59.88377589065241,
3,Block804.xls,B,4,1,95,95,None,congruent,Right,Right,Left,80,79,1,yellow,2,5,/home/docky/apps/exp/images/80Yi.jpeg,/home/docky/apps/exp/images/79Y.jpeg,0,2,2,2,0,0,0,0,316.78069184500055,None,316.78069184500055,None,1,4.398243334999279,316.78069184500055,None,321.19909429700056,None,321.19909429700056,None,323.72622386500007,None,323.72622386500007,None,1.3001015650006593,325.52496016900113,None,325.52496016900113,None,6,0,0.9513576640019892,326.8149569820016,None,326.8149569820016,None,326.8149569820016,None,327.78287770799943,None,1,0.48504300299828174,327.78287770799943,None,18,328.28422309899906,None,143,B,1,2021_Jun_01_1814,GazeFlow,2020.1.2,59.88377589065241,
3,Block804.xls,B,4,2,107,11,None,incongruent,Left,Right,Left,83,80,3,blue,2,5,/home/docky/apps/exp/images/83Bi.jpeg,/home/docky/apps/exp/images/80B.jpeg,0,2,2,2,0,1,1,1,329.2859997880005,None,329.2859997880005,None,1,27.01986931799911,329.2859997880005,None,356.33947011200144,None,356.33947011200144,None,358.8426240160006,None,358.8426240160006,None,1.7681052740008454,360.6406879239985,None,360.6406879239985,None,5,1,1.1852164049996645,362.400617102001,None,362.400617102001,None,362.400617102001,None,363.60254574899955,None,1,0.634939397998096,363.60254574899955,None,20,364.25369045499974,None,143,B,1,2021_Jun_01_1814,GazeFlow,2020.1.2,59.88377589065241,
3,Block804.xls,B,4,3,27,27,None,congruent,Right,Right,Left,19,16,3,blue,2,5,/home/docky/apps/exp/images/19Bi.jpeg,/home/docky/apps/exp/images/16B.jpeg,0,2,2,2,0,2,2,2,365.25602208000055,None,365.25602208000055,None,1,4.559302718000254,365.25602208000055,None,369.8490272150011,None,369.8490272150011,None,372.3537686359996,None,372.3537686359996,None,1.4507108300022082,374.15737786799946,None,374.15737786799946,None,5,1,0.95221764300004,375.5927017850008,None,375.5927017850008,None,375.5927017850008,None,376.56142958299824,None,1,0.6841816410014872,376.56142958299824,None,22,377.2623931620001,None,143,B,1,2021_Jun_01_1814,GazeFlow,2020.1.2,59.88377589065241,
3,Block804.xls,B,4,4,101,5,None,incongruent,Right,Left,Right,76,79,3,blue,2,6,/home/docky/apps/exp/images/76B.jpeg,/home/docky/apps/exp/images/79Bi.jpeg,0,2,2,2,0,3,3,3,378.2644550769983,None,378.2644550769983,None,1,4.142850577998615,378.2644550769983,None,382.4400093609984,None,382.4400093609984,None,384.9450750399992,None,384.9450750399992,None,1.0171806790021947,386.74688729699847,None,386.74688729699847,None,6,1,0.9679124600006617,387.75001984900155,None,387.75001984900155,None,387.75001984900155,None,388.73486210199917,None,1,0.25115419600115274,388.73486210199917,None,24,389.0020899689989,None,143,B,1,2021_Jun_01_1814,GazeFlow,2020.1.2,59.88377589065241,
3,Block804.xls,B,4,5,47,47,None,congruent,Right,Right,Left,39,38,1,blue,2,5,/home/docky/apps/exp/images/39Bi.jpeg,/home/docky/apps/exp/images/38B.jpeg,0,2,2,2,0,4,4,4,390.00366693600154,None,390.00366693600154,None,1,4.275774067999009,390.00366693600154,None,394.3131991129994,None,394.3131991129994,None,396.8178664590014,None,396.8178664590014,None,1.0168035670030804,398.61541686499913,None,398.61541686499913,None,5,1,0.9347137300028407,399.62290383100117,None,399.62290383100117,None,399.62290383100117,None,400.5744780979985,None,1,0.5521925939974608,400.5744780979985,None,26,401.1424853639983,None,143,B,1,2021_Jun_01_1814,GazeFlow,2020.1.2,59.88377589065241,
3,Block804.xls,B,4,6,90,90,None,congruent,Right,Right,Left,77,72,5,yellow,2,5,/home/docky/apps/exp/images/77Yi.jpeg,/home/docky/apps/exp/images/72Y.jpeg,0,2,2,2,0,5,5,5,402.1439451900005,None,402.1439451900005,None,1,4.409531343000708,402.1439451900005,None,406.5868653229991,None,406.5868653229991,None,409.0919123929998,None,409.0919123929998,None,1.033507524000015,410.8938594959982,None,410.8938594959982,None,5,1,0.951494212000398,411.91360614400037,None,411.91360614400037,None,411.91360614400037,None,412.88171675299964,None,1,0.6009206359995005,412.88171675299964,None,28,413.4998592580014,None,143,B,1,2021_Jun_01_1814,GazeFlow,2020.1.2,59.88377589065241,
3,Block804.xls,B,4,7,12,12,None,congruent,Left,Left,Right,38,39,1,blue,2,6,/home/docky/apps/exp/images/38B.jpeg,/home/docky/apps/exp/images/39Bi.jpeg,0,2,2,2,0,6,6,6,414.5010996630008,None,414.5010996630008,None,1,4.626625683002203,414.5010996630008,None,419.15986142399925,None,419.15986142399925,None,421.66442142699816,None,421.66442142699816,None,1.4673916899992037,423.46804068300116,None,423.46804068300116,None,5,0,1.0688505319994874,424.92217496599915,None,424.92217496599915,None,424.92217496599915,None,426.0077701250011,None,1,0.5502838379979949,426.0077701250011,None,26,426.5746521660003,None,143,B,1,2021_Jun_01_1814,GazeFlow,2020.1.2,59.88377589065241,
3,Block804.xls,B,4,8,20,20,None,congruent,Left,Left,Right,76,79,3,blue,2,6,/home/docky/apps/exp/images/76Bi.jpeg,/home/docky/apps/exp/images/79B.jpeg,0,2,2,2,0,7,7,7,427.57725800000117,None,427.57725800000117,None,1,4.575770630002808,427.57725800000117,None,432.186445233001,None,432.186445233001,None,434.69158223499835,None,434.69158223499835,None,1.6347376129997429,436.49344012200163,None,436.49344012200163,None,6,1,1.5856625880005595,438.11458896800104,None,438.11458896800104,None,438.11458896800104,None,439.71701379799924,None,1,0.8690369840005587,439.71701379799924,None,28,440.601922591999,None,143,B,1,2021_Jun_01_1814,GazeFlow,2020.1.2,59.88377589065241,
3,Block804.xls,B,,,,,,,,,,,,,,,,,,0,2,2,2,,,,,,,,,,,,,,,,,,,,,,,,,,,,,,,,,,,,,,,,,,,,143,B,1,2021_Jun_01_1814,GazeFlow,2020.1.2,59.88377589065241,
4,Block814.xls,B,14,1,99,3,None,incongruent,Right,Left,Right,65,66,1,blue,2,6,/home/docky/apps/exp/images/35Yi.jpeg,/home/docky/apps/exp/images/66B.jpeg,0,3,3,3,0,0,0,0,461.2278992339998,None,461.2278992339998,None,1,5.04799944700062,461.2278992339998,None,466.30311390000134,None,466.30311390000134,None,468.8245152700001,None,468.8245152700001,None,1.1165114809991792,470.62074664399915,None,470.62074664399915,None,5,0,1.034766764001688,471.7297032819988,None,471.7297032819988,None,471.7297032819988,None,472.7812028769986,None,1,0.6018530149995058,472.7812028769986,None,26,473.3996029789996,None,143,B,1,2021_Jun_01_1814,GazeFlow,2020.1.2,59.88377589065241,
4,Block814.xls,B,14,2,34,34,None,congruent,Right,Right,Left,66,65,1,blue,2,5,/home/docky/apps/exp/images/66B.jpeg,/home/docky/apps/exp/images/35Yi.jpeg,0,3,3,3,0,1,1,1,474.4012888629986,None,474.4012888629986,None,1,5.8952227419977135,474.4012888629986,None,480.33033437999984,None,480.33033437999984,None,482.8352659410011,None,482.8352659410011,None,1.1335874229989713,484.63202549199923,None,484.63202549199923,None,5,1,1.084987677000754,485.75716437699884,None,485.75716437699884,None,485.75716437699884,None,486.8587889629998,None,1,0.6678340809994552,486.8587889629998,None,28,487.54324200599876,None,143,B,1,2021_Jun_01_1814,GazeFlow,2020.1.2,59.88377589065241,
4,Block814.xls,B,14,3,91,91,None,congruent,Right,Right,Left,77,72,5,yellow,2,5,/home/docky/apps/exp/images/77Yi.jpeg,/home/docky/apps/exp/images/72Y.jpeg,0,3,3,3,0,2,2,2,488.5454505029993,None,488.5454505029993,None,1,7.097924243000307,488.5454505029993,None,495.67692238699965,None,495.67692238699965,None,498.1817183659987,None,498.1817183659987,None,2.1024931379979535,499.9828955970006,None,499.9828955970006,None,5,1,1.4019908730006136,502.072009634001,None,502.072009634001,None,502.072009634001,None,503.4907515170016,None,1,0.7850542050000513,503.4907515170016,None,30,504.2929181110012,None,143,B,1,2021_Jun_01_1814,GazeFlow,2020.1.2,59.88377589065241,
4,Block814.xls,B,14,4,68,68,None,congruent,Left,Left,Right,72,77,5,yellow,2,6,/home/docky/apps/exp/images/72Yi.jpeg,/home/docky/apps/exp/images/77Y.jpeg,0,3,3,3,0,3,3,3,505.29477589399903,None,505.29477589399903,None,1,4.042000315999758,505.29477589399903,None,509.36999787400055,None,509.36999787400055,None,511.8750438200004,None,511.8750438200004,None,0.9162906960009423,513.672495701001,None,513.672495701001,None,6,1,1.0682424820006418,514.5797743689982,None,514.5797743689982,None,514.5797743689982,None,515.6642479629991,None,1,0.21753827299835393,515.6642479629991,None,32,515.8981896849982,None,143,B,1,2021_Jun_01_1814,GazeFlow,2020.1.2,59.88377589065241,
4,Block814.xls,B,14,5,66,66,None,congruent,Left,Left,Right,69,76,7,yellow,2,6,/home/docky/apps/exp/images/69Yi.jpeg,/home/docky/apps/exp/images/76Y.jpeg,0,3,3,3,0,4,4,4,516.900321041001,None,516.900321041001,None,1,4.092540165001992,516.900321041001,None,521.0261842949985,None,521.0261842949985,None,523.5307252279999,None,523.5307252279999,None,1.1505145510018338,525.332534268,None,525.332534268,None,6,1,0.9513343549988349,526.4694512280003,None,526.4694512280003,None,526.4694512280003,None,527.4377009640011,None,1,0.4846918100010953,527.4377009640011,None,34,527.9382137709981,None,143,B,1,2021_Jun_01_1814,GazeFlow,2020.1.2,59.88377589065241,
4,Block814.xls,B,14,6,115,19,None,incongruent,Left,Right,Left,80,79,1,yellow,2,5,/home/docky/apps/exp/images/80Yi.jpeg,/home/docky/apps/exp/images/79Y.jpeg,0,3,3,3,0,5,5,5,528.9405267699985,None,528.9405267699985,None,1,4.359248300999752,528.9405267699985,None,533.3333392620007,None,533.3333392620007,None,535.8363697009991,None,535.8363697009991,None,1.0504258900000423,537.6361135980005,None,537.6361135980005,None,5,1,1.0345818019995932,538.6765375169998,None,538.6765375169998,None,538.6765375169998,None,539.7278925530009,None,1,0.5686132619994169,539.7278925530009,None,36,540.3121738769987,None,143,B,1,2021_Jun_01_1814,GazeFlow,2020.1.2,59.88377589065241,
4,Block814.xls,B,14,7,9,9,None,congruent,Left,Left,Right,65,66,1,blue,2,6,/home/docky/apps/exp/images/35Yi.jpeg,/home/docky/apps/exp/images/66B.jpeg,0,3,3,3,0,6,6,6,541.3143255510004,None,541.3143255510004,None,1,4.376337476998742,541.3143255510004,None,545.7240761210014,None,545.7240761210014,None,548.2271682930004,None,548.2271682930004,None,1.033711690997734,550.0293108449987,None,550.0293108449987,None,6,1,1.001174852000986,551.0506378930004,None,551.0506378930004,None,551.0506378930004,None,552.0684825719982,None,1,0.5351432569987082,552.0684825719982,None,38,552.6200872420013,None,143,B,1,2021_Jun_01_1814,GazeFlow,2020.1.2,59.88377589065241,
4,Block814.xls,B,14,8,14,14,None,congruent,Left,Left,Right,38,39,1,blue,2,6,/home/docky/apps/exp/images/38Bi.jpeg,/home/docky/apps/exp/images/39B.jpeg,0,3,3,3,0,7,7,7,553.6217835909993,None,553.6217835909993,None,1,4.058441623001272,553.6217835909993,None,557.7139451609983,None,557.7139451609983,None,560.2173879069996,None,560.2173879069996,None,1.2335355110008095,562.0205020169997,None,562.0205020169997,None,6,1,1.4026647369973944,563.2409529700017,None,563.2409529700017,None,563.2409529700017,None,564.6596324390011,None,1,0.751382366001053,564.6596324390011,None,40,565.428086472999,None,143,B,1,2021_Jun_01_1814,GazeFlow,2020.1.2,59.88377589065241,
4,Block814.xls,B,,,,,,,,,,,,,,,,,,0,3,3,3,,,,,,,,,,,,,,,,,,,,,,,,,,,,,,,,,,,,,,,,,,,,143,B,1,2021_Jun_01_1814,GazeFlow,2020.1.2,59.88377589065241,
5,Block812.xls,B,12,1,18,18,None,congruent,Left,Left,Right,73,76,3,blue,2,6,/home/docky/apps/exp/images/73B.jpeg,/home/docky/apps/exp/images/76Bi.jpeg,0,4,4,4,0,0,0,0,586.3703760969984,None,586.3703760969984,None,1,5.498143213000731,586.3703760969984,None,591.893751869,None,591.893751869,None,594.418451073001,None,594.418451073001,None,1.066257709000638,596.2220685489992,None,596.2220685489992,None,6,1,1.1350133070009178,597.2737132520015,None,597.2737132520015,None,597.2737132520015,None,598.4255576049982,None,1,0.8680923290012288,598.4255576049982,None,42,599.3103037420005,None,143,B,1,2021_Jun_01_1814,GazeFlow,2020.1.2,59.88377589065241,
5,Block812.xls,B,12,2,3,3,None,congruent,Left,Left,Right,16,19,3,blue,2,6,/home/docky/apps/exp/images/16Bi.jpeg,/home/docky/apps/exp/images/19B.jpeg,0,4,4,4,0,1,1,1,600.3125522189985,None,600.3125522189985,None,1,3.607447176997084,600.3125522189985,None,603.9537248909983,None,603.9537248909983,None,606.4585794310005,None,606.4585794310005,None,1.2841901049978333,608.2606168450002,None,608.2606168450002,None,6,1,1.0348876759999257,609.5307114550014,None,609.5307114550014,None,609.5307114550014,None,610.5825941609983,None,1,0.5519298479994177,610.5825941609983,None,44,611.1503637419992,None,143,B,1,2021_Jun_01_1814,GazeFlow,2020.1.2,59.88377589065241,
5,Block812.xls,B,12,3,56,56,None,congruent,Left,Left,Right,62,65,3,yellow,2,6,/home/docky/apps/exp/images/38Bi.jpeg,/home/docky/apps/exp/images/35B.jpeg,0,4,4,4,0,2,2,2,612.1518692559985,None,612.1518692559985,None,1,3.3243020000008983,612.1518692559985,None,615.5096180299988,None,615.5096180299988,None,618.0120203039987,None,618.0120203039987,None,1.2340659599976789,619.8161445650003,None,619.8161445650003,None,6,1,1.0014687990005768,621.0364050149983,None,621.0364050149983,None,621.0364050149983,None,622.0545597909986,None,1,0.5850617229989439,622.0545597909986,None,46,622.6561033889993,None,143,B,1,2021_Jun_01_1814,GazeFlow,2020.1.2,59.88377589065241,
5,Block812.xls,B,12,4,11,11,None,congruent,Left,Left,Right,38,39,1,blue,2,6,/home/docky/apps/exp/images/38B.jpeg,/home/docky/apps/exp/images/39Bi.jpeg,0,4,4,4,0,3,3,3,623.6574485279998,None,623.6574485279998,None,1,3.6752133240006515,623.6574485279998,None,627.3695009609983,None,627.3695009609983,None,629.8690833619985,None,629.8690833619985,None,0.9998356379983306,631.6672799619992,None,631.6672799619992,None,6,1,0.9346845529980783,632.6590011869994,None,632.6590011869994,None,632.6590011869994,None,633.6103955100007,None,1,0.46755894099987927,633.6103955100007,None,48,634.0943742589989,None,143,B,1,2021_Jun_01_1814,GazeFlow,2020.1.2,59.88377589065241,
5,Block812.xls,B,12,5,116,20,None,incongruent,Left,Right,Left,35,33,2,yellow,2,5,/home/docky/apps/exp/images/35Yi.jpeg,/home/docky/apps/exp/images/33Y.jpeg,0,4,4,4,0,4,4,4,635.096484411999,None,635.096484411999,None,1,3.2404742159997113,635.096484411999,None,638.3702161410001,None,638.3702161410001,None,640.8754838780005,None,640.8754838780005,None,1.2501670890014793,642.6724841280011,None,642.6724841280011,None,5,1,1.0182109369998216,643.9140621250008,None,643.9140621250008,None,643.9140621250008,None,644.9487307339987,None,1,0.4849873229977675,644.9487307339987,None,50,645.4503979270012,None,143,B,1,2021_Jun_01_1814,GazeFlow,2020.1.2,59.88377589065241,
5,Block812.xls,B,12,6,40,40,None,congruent,Right,Right,Left,79,76,3,blue,2,5,/home/docky/apps/exp/images/79Bi.jpeg,/home/docky/apps/exp/images/76B.jpeg,0,4,4,4,0,5,5,5,646.451852541999,None,646.451852541999,None,1,4.376376820000587,646.451852541999,None,650.8617042719998,None,650.8617042719998,None,653.3647207409995,None,653.3647207409995,None,0.8661081619975448,655.1699018770014,None,655.1699018770014,None,5,1,1.3018124839982192,656.0211036319997,None,656.0211036319997,None,656.0211036319997,None,657.3396177190007,None,1,0.6690234639972914,657.3396177190007,None,52,658.0247611829982,None,143,B,1,2021_Jun_01_1814,GazeFlow,2020.1.2,59.88377589065241,
5,Block812.xls,B,12,7,76,76,None,congruent,Right,Right,Left,39,38,1,yellow,2,5,/home/docky/apps/exp/images/39Yi.jpeg,/home/docky/apps/exp/images/38Y.jpeg,0,4,4,4,0,6,6,6,659.026322791,None,659.026322791,None,1,4.943487346998154,659.026322791,None,664.0037776319987,None,664.0037776319987,None,666.5095976420016,None,666.5095976420016,None,17.265619721001713,668.3108790639999,None,668.3108790639999,None,5,1,3.1726998379999714,685.5786768059988,None,685.5786768059988,None,685.5786768059988,None,688.7678781590002,None,1,3.106238320000557,688.7678781590002,None,54,691.8904475689997,None,143,B,1,2021_Jun_01_1814,GazeFlow,2020.1.2,59.88377589065241,
5,Block812.xls,B,12,8,77,77,None,congruent,Right,Right,Left,39,38,1,yellow,2,5,/home/docky/apps/exp/images/39Y.jpeg,/home/docky/apps/exp/images/38Yi.jpeg,0,4,4,4,0,7,7,7,692.892577964998,None,692.892577964998,None,1,5.460633140999562,692.892577964998,None,698.3871636900003,None,698.3871636900003,None,700.892167091999,None,700.892167091999,None,1.5345444540034805,702.6883026729993,None,702.6883026729993,None,5,1,1.2365439500063076,704.214460283998,None,704.214460283998,None,704.214460283998,None,705.4668974320011,None,1,1.2523360890045296,705.4668974320011,None,56,706.7355506039967,None,143,B,1,2021_Jun_01_1814,GazeFlow,2020.1.2,59.88377589065241,
5,Block812.xls,B,,,,,,,,,,,,,,,,,,0,4,4,4,,,,,,,,,,,,,,,,,,,,,,,,,,,,,,,,,,,,,,,,,,,,143,B,1,2021_Jun_01_1814,GazeFlow,2020.1.2,59.88377589065241,
6,Block803.xls,B,3,1,84,84,None,congruent,Right,Right,Left,75,69,6,yellow,2,5,/home/docky/apps/exp/images/76Yi.jpeg,/home/docky/apps/exp/images/69Y.jpeg,0,5,5,5,0,0,0,0,728.2456331400026,None,728.2456331400026,None,1,5.283978895997279,728.2456331400026,None,733.5482670459969,None,733.5482670459969,None,736.075422848,None,736.075422848,None,1.2335269750037696,737.8790021340028,None,737.8790021340028,None,5,1,1.068522267996741,739.0992167880031,None,739.0992167880031,None,739.0992167880031,None,740.1842025410006,None,1,0.7678726480007754,740.1842025410006,None,58,740.9684436940006,None,143,B,1,2021_Jun_01_1814,GazeFlow,2020.1.2,59.88377589065241,
6,Block803.xls,B,3,2,82,82,None,congruent,Right,Right,Left,66,65,1,yellow,2,5,/home/docky/apps/exp/images/66Y.jpeg,/home/docky/apps/exp/images/35Bi.jpeg,0,5,5,5,0,1,1,1,741.9709500239987,None,741.9709500239987,None,1,3.1571082020018366,741.9709500239987,None,745.1613062210017,None,745.1613062210017,None,747.6647569030029,None,747.6647569030029,None,1.851563336000254,749.4678341469989,None,749.4678341469989,None,5,1,1.019081101003394,751.3062617359974,None,751.3062617359974,None,751.3062617359974,None,752.3413078390004,None,1,0.600935723996372,752.3413078390004,None,60,752.9586839190015,None,143,B,1,2021_Jun_01_1814,GazeFlow,2020.1.2,59.88377589065241,
6,Block803.xls,B,3,3,80,80,None,congruent,Right,Right,Left,66,65,1,yellow,2,5,/home/docky/apps/exp/images/66Yi.jpeg,/home/docky/apps/exp/images/35B.jpeg,0,5,5,5,0,2,2,2,753.9610326839975,None,753.9610326839975,None,1,3.3402075420017354,753.9610326839975,None,757.334875929002,None,757.334875929002,None,759.8399892529997,None,759.8399892529997,None,1.3174613660012255,761.6365275159988,None,761.6365275159988,None,5,1,0.9359644299984211,762.9453941050015,None,762.9453941050015,None,762.9453941050015,None,763.8972109469978,None,1,0.5177551840024535,763.8972109469978,None,62,764.4315590490005,None,143,B,1,2021_Jun_01_1814,GazeFlow,2020.1.2,59.88377589065241,
6,Block803.xls,B,3,4,79,79,None,congruent,Right,Right,Left,66,65,1,yellow,2,5,/home/docky/apps/exp/images/66Y.jpeg,/home/docky/apps/exp/images/35Bi.jpeg,0,5,5,5,0,3,3,3,765.433246806002,None,765.433246806002,None,1,2.956458473003295,765.433246806002,None,768.4231065959975,None,768.4231065959975,None,770.9266327229998,None,770.9266327229998,None,1.3008675379969645,772.7269378400015,None,772.7269378400015,None,5,1,1.0186096199977328,774.0168074149988,None,774.0168074149988,None,774.0168074149988,None,775.0522986069991,None,1,0.6506446190032875,775.0522986069991,None,64,775.7195155579975,None,143,B,1,2021_Jun_01_1814,GazeFlow,2020.1.2,59.88377589065241,
6,Block803.xls,B,3,5,92,92,None,congruent,Right,Right,Left,77,72,5,yellow,2,5,/home/docky/apps/exp/images/77Y.jpeg,/home/docky/apps/exp/images/72Yi.jpeg,0,5,5,5,0,4,4,4,776.7222051330027,None,776.7222051330027,None,1,3.3571362310030963,776.7222051330027,None,780.1143344209995,None,780.1143344209995,None,782.6174488070028,None,782.6174488070028,None,1.0836889479978709,784.4191871639996,None,784.4191871639996,None,5,1,1.067893102997914,785.4895609360028,None,785.4895609360028,None,785.4895609360028,None,786.5739938690022,None,1,0.6854305679953541,786.5739938690022,None,66,787.275902677,None,143,B,1,2021_Jun_01_1814,GazeFlow,2020.1.2,59.88377589065241,
6,Block803.xls,B,3,6,106,10,None,incongruent,Left,Right,Left,79,76,3,blue,2,5,/home/docky/apps/exp/images/79Bi.jpeg,/home/docky/apps/exp/images/76B.jpeg,0,5,5,5,0,5,5,5,788.2774474410035,None,788.2774474410035,None,1,2.6725401189978584,788.2774474410035,None,790.9836069890007,None,790.9836069890007,None,793.4866026960008,None,793.4866026960008,None,1.1841070570008014,795.289743041998,None,795.289743041998,None,5,1,0.9681533260009019,796.4604547659983,None,796.4604547659983,None,796.4604547659983,None,797.445167429003,None,1,0.6013524000009056,797.445167429003,None,68,798.0632038559997,None,143,B,1,2021_Jun_01_1814,GazeFlow,2020.1.2,59.88377589065241,
6,Block803.xls,B,3,7,25,25,None,congruent,Right,Right,Left,19,16,3,blue,2,5,/home/docky/apps/exp/images/19Bi.jpeg,/home/docky/apps/exp/images/16B.jpeg,0,5,5,5,0,6,6,6,799.0650740080018,None,799.0650740080018,None,1,3.0400745259976247,799.0650740080018,None,802.138790017998,None,802.138790017998,None,804.6420153669969,None,804.6420153669969,None,1.0833301070015295,806.4451318260035,None,806.4451318260035,None,6,0,1.0015251270015142,807.5152713770003,None,807.5152713770003,None,807.5152713770003,None,808.5337148379986,None,1,0.501297678994888,808.5337148379986,None,66,809.0515895520002,None,143,B,1,2021_Jun_01_1814,GazeFlow,2020.1.2,59.88377589065241,
6,Block803.xls,B,3,8,46,46,None,congruent,Right,Right,Left,39,38,1,blue,2,5,/home/docky/apps/exp/images/39B.jpeg,/home/docky/apps/exp/images/38Bi.jpeg,0,5,5,5,0,7,7,7,810.053226035001,None,810.053226035001,None,1,2.7892597960017156,810.053226035001,None,812.876254887,None,812.876254887,None,815.3795858360027,None,815.3795858360027,None,1.0667677599994931,817.182195692003,None,817.182195692003,None,5,1,1.001325976998487,818.2361634519984,None,818.2361634519984,None,818.2361634519984,None,819.2543161290014,None,1,0.6184167949977564,819.2543161290014,None,68,819.8893396830026,None,143,B,1,2021_Jun_01_1814,GazeFlow,2020.1.2,59.88377589065241,
6,Block803.xls,B,,,,,,,,,,,,,,,,,,0,5,5,5,,,,,,,,,,,,,,,,,,,,,,,,,,,,,,,,,,,,,,,,,,,,143,B,1,2021_Jun_01_1814,GazeFlow,2020.1.2,59.88377589065241,
7,Block810.xls,B,10,1,119,23,None,incongruent,Left,Right,Left,76,69,7,yellow,2,5,/home/docky/apps/exp/images/76Yi.jpeg,/home/docky/apps/exp/images/69Y.jpeg,0,6,6,6,0,0,0,0,841.717632605003,None,841.717632605003,None,1,4.596020639000926,841.717632605003,None,846.3416851970032,None,846.3416851970032,None,848.8629863280003,None,848.8629863280003,None,1.0660128550007357,850.6602054210016,None,850.6602054210016,None,5,1,0.9177563529956387,851.7178970890018,None,851.7178970890018,None,851.7178970890018,None,852.6524343609999,None,1,0.5343382330029272,852.6524343609999,None,70,853.2035217879966,None,143,B,1,2021_Jun_01_1814,GazeFlow,2020.1.2,59.88377589065241,
7,Block810.xls,B,10,2,43,43,None,congruent,Right,Right,Left,83,80,3,blue,2,5,/home/docky/apps/exp/images/83B.jpeg,/home/docky/apps/exp/images/80Bi.jpeg,0,6,6,6,0,1,1,1,854.205390162002,None,854.205390162002,None,1,3.3071693859965308,854.205390162002,None,857.5464912269963,None,857.5464912269963,None,860.0512888930025,None,860.0512888930025,None,0.8831054780021077,861.8545502499983,None,861.8545502499983,None,5,1,0.8678987509993021,862.7226842759992,None,862.7226842759992,None,862.7226842759992,None,863.6070035140001,None,1,0.5182820500049274,863.6070035140001,None,72,864.141800741003,None,143,B,1,2021_Jun_01_1814,GazeFlow,2020.1.2,59.88377589065241,
7,Block810.xls,B,10,3,53,53,None,congruent,Left,Left,Right,65,66,1,yellow,2,6,/home/docky/apps/exp/images/35Bi.jpeg,/home/docky/apps/exp/images/66Y.jpeg,0,6,6,6,0,2,2,2,865.1434364379966,None,865.1434364379966,None,1,2.3554805210005725,865.1434364379966,None,867.532494842002,None,867.532494842002,None,870.0371630279988,None,870.0371630279988,None,1.016841315999045,871.8382547910005,None,871.8382547910005,None,6,1,0.9345864529968821,872.8422344060018,None,872.8422344060018,None,872.8422344060018,None,873.7936917400002,None,1,0.4176351979986066,873.7936917400002,None,74,874.2280263709981,None,143,B,1,2021_Jun_01_1814,GazeFlow,2020.1.2,59.88377589065241,
7,Block810.xls,B,10,4,74,74,None,congruent,Right,Right,Left,35,33,2,yellow,2,5,/home/docky/apps/exp/images/35Y.jpeg,/home/docky/apps/exp/images/33Yi.jpeg,0,6,6,6,0,3,3,3,875.2298624050018,None,875.2298624050018,None,1,2.572196562003228,875.2298624050018,None,877.835825438,None,877.835825438,None,880.3406110470023,None,880.3406110470023,None,0.9333404569988488,882.142670467998,None,882.142670467998,None,5,1,0.8011791550015914,883.0620528930012,None,883.0620528930012,None,883.0620528930012,None,883.8797926350016,None,1,0.46751018899522023,883.8797926350016,None,76,884.363921506003,None,143,B,1,2021_Jun_01_1814,GazeFlow,2020.1.2,59.88377589065241,
7,Block810.xls,B,10,5,21,21,None,congruent,Left,Left,Right,76,79,3,blue,2,6,/home/docky/apps/exp/images/76B.jpeg,/home/docky/apps/exp/images/79Bi.jpeg,0,6,6,6,0,4,4,4,885.3660152270022,None,885.3660152270022,None,1,2.7058923199947458,885.3660152270022,None,888.107245551997,None,888.107245551997,None,890.6081202389978,None,890.6081202389978,None,0.9667099010039237,892.4119932739995,None,892.4119932739995,None,6,1,0.984805841006164,893.3653558389997,None,893.3653558389997,None,893.3653558389997,None,894.3668210350006,None,1,0.5854444569995394,894.3668210350006,None,78,894.9684003310031,None,143,B,1,2021_Jun_01_1814,GazeFlow,2020.1.2,59.88377589065241,
7,Block810.xls,B,10,6,85,85,None,congruent,Right,Right,Left,75,69,6,yellow,2,5,/home/docky/apps/exp/images/76Y.jpeg,/home/docky/apps/exp/images/69Yi.jpeg,0,6,6,6,0,5,5,5,895.9700382910014,None,895.9700382910014,None,1,3.006859744004032,895.9700382910014,None,899.0103734180011,None,899.0103734180011,None,901.5153391310014,None,901.5153391310014,None,0.9668342720033252,903.3165512990017,None,903.3165512990017,None,5,1,0.9179722269982449,904.2698599860014,None,904.2698599860014,None,904.2698599860014,None,905.2043114409971,None,1,0.6020628889964428,905.2043114409971,None,80,905.8230861039992,None,143,B,1,2021_Jun_01_1814,GazeFlow,2020.1.2,59.88377589065241,
7,Block810.xls,B,10,7,49,49,None,congruent,Left,Left,Right,33,35,2,yellow,2,6,/home/docky/apps/exp/images/33Yi.jpeg,/home/docky/apps/exp/images/35Y.jpeg,0,6,6,6,0,6,6,6,906.8244326589993,None,906.8244326589993,None,1,2.221869181994407,906.8244326589993,None,909.079759193999,None,909.079759193999,None,911.582585518001,None,911.582585518001,None,1.1841424689991982,913.3865554680015,None,913.3865554680015,None,5,0,0.9681701990048168,914.5565545880017,None,914.5565545880017,None,914.5565545880017,None,915.5414596109986,None,1,0.5513132030027919,915.5414596109986,None,78,916.1094211539967,None,143,B,1,2021_Jun_01_1814,GazeFlow,2020.1.2,59.88377589065241,
7,Block810.xls,B,10,8,63,63,None,congruent,Left,Left,Right,38,39,1,yellow,2,6,/home/docky/apps/exp/images/38Y.jpeg,/home/docky/apps/exp/images/39Yi.jpeg,0,6,6,6,0,7,7,7,917.1112501140015,None,917.1112501140015,None,1,2.8398485639991122,917.1112501140015,None,919.9842175500016,None,919.9842175500016,None,922.4891231130023,None,922.4891231130023,None,1.1003997840016382,924.2908066119999,None,924.2908066119999,None,5,0,0.9848165910007083,925.3775457119991,None,925.3775457119991,None,925.3775457119991,None,926.3789838360026,None,1,0.5020123889989918,926.3789838360026,None,76,926.8968556239997,None,143,B,1,2021_Jun_01_1814,GazeFlow,2020.1.2,59.88377589065241,
7,Block810.xls,B,,,,,,,,,,,,,,,,,,0,6,6,6,,,,,,,,,,,,,,,,,,,,,,,,,,,,,,,,,,,,,,,,,,,,143,B,1,2021_Jun_01_1814,GazeFlow,2020.1.2,59.88377589065241,
8,Block801.xls,B,1,1,1,1,None,congruent,Left,Left,Right,16,19,3,blue,2,6,/home/docky/apps/exp/images/16Bi.jpeg,/home/docky/apps/exp/images/19B.jpeg,0,7,7,7,0,0,0,0,946.9556298759999,None,946.9556298759999,None,1,3.542146767002123,946.9556298759999,None,950.523674625998,None,950.523674625998,None,953.0484064650009,None,953.0484064650009,None,1.0161871329983114,954.8350525209971,None,954.8350525209971,None,6,1,1.3021028420043876,955.8366434560012,None,955.8366434560012,None,955.8366434560012,None,957.1557458300013,None,1,0.8182519159963704,957.1557458300013,None,78,957.9902188109991,None,143,B,1,2021_Jun_01_1814,GazeFlow,2020.1.2,59.88377589065241,
8,Block801.xls,B,1,2,105,9,None,incongruent,Left,Right,Left,79,73,6,blue,2,5,/home/docky/apps/exp/images/79B.jpeg,/home/docky/apps/exp/images/73Bi.jpeg,0,7,7,7,0,1,1,1,958.9921708330003,None,958.9921708330003,None,1,5.07786001599743,958.9921708330003,None,964.1035170350006,None,964.1035170350006,None,966.6063092269978,None,966.6063092269978,None,1.1840345160017023,968.4112873949998,None,968.4112873949998,None,5,1,1.0358228469995083,969.5801810229968,None,969.5801810229968,None,969.5801810229968,None,970.631804841003,None,1,0.5681991770034074,970.631804841003,None,80,971.2164614669964,None,143,B,1,2021_Jun_01_1814,GazeFlow,2020.1.2,59.88377589065241,
8,Block801.xls,B,1,3,62,62,None,congruent,Left,Left,Right,38,39,1,yellow,2,6,/home/docky/apps/exp/images/38Y.jpeg,/home/docky/apps/exp/images/39Yi.jpeg,0,7,7,7,0,2,2,2,972.2180712440022,None,972.2180712440022,None,1,2.940160761005245,972.2180712440022,None,975.1918030390007,None,975.1918030390007,None,977.6959774240022,None,977.6959774240022,None,0.8830725759980851,979.4977389459964,None,979.4977389459964,None,6,1,0.9676608239969937,980.3679098089997,None,980.3679098089997,None,980.3679098089997,None,981.3528110190018,None,1,0.4170268460002262,981.3528110190018,None,82,981.7866750710018,None,143,B,1,2021_Jun_01_1814,GazeFlow,2020.1.2,59.88377589065241,
8,Block801.xls,B,1,4,38,38,None,congruent,Right,Right,Left,79,73,6,blue,2,5,/home/docky/apps/exp/images/79B.jpeg,/home/docky/apps/exp/images/73Bi.jpeg,0,7,7,7,0,3,3,3,982.788475399997,None,982.788475399997,None,1,2.271830821002368,982.788475399997,None,985.0938757510012,None,985.0938757510012,None,987.5975620070021,None,987.5975620070021,None,1.0670722630020464,989.400912117002,None,989.400912117002,None,5,1,1.0347331759985536,990.4541080030031,None,990.4541080030031,None,990.4541080030031,None,991.5055936670033,None,1,0.6017384400038281,991.5055936670033,None,84,992.1238124110023,None,143,B,1,2021_Jun_01_1814,GazeFlow,2020.1.2,59.88377589065241,
8,Block801.xls,B,1,5,6,6,None,congruent,Left,Left,Right,35,38,3,blue,2,6,/home/docky/apps/exp/images/35Bi.jpeg,/home/docky/apps/exp/images/38B.jpeg,0,7,7,7,0,4,4,4,993.1252662269981,None,993.1252662269981,None,1,2.3717396639985964,993.1252662269981,None,995.5310284320003,None,995.5310284320003,None,998.0361269600035,None,998.0361269600035,None,2.037133215002541,999.8224846099984,None,999.8224846099984,None,5,0,1.0683293519978179,1001.8594562139988,None,1001.8594562139988,None,1001.8594562139988,None,1002.9442720849984,None,1,0.5846572830050718,1002.9442720849984,None,82,1003.5454996949993,None,143,B,1,2021_Jun_01_1814,GazeFlow,2020.1.2,59.88377589065241,
8,Block801.xls,B,1,6,51,51,None,congruent,Left,Left,Right,33,35,2,yellow,2,6,/home/docky/apps/exp/images/33Yi.jpeg,/home/docky/apps/exp/images/35Y.jpeg,0,7,7,7,0,5,5,5,1004.547904623003,None,1004.547904623003,None,1,3.390055828996992,1004.547904623003,None,1007.9719353159962,None,1007.9719353159962,None,1010.4767867949995,None,1010.4767867949995,None,1.3506295469996985,1012.2778848610033,None,1012.2778848610033,None,6,1,1.2693499070010148,1013.615660221003,None,1013.615660221003,None,1013.615660221003,None,1014.9009700109964,None,1,0.7518286980048288,1014.9009700109964,None,84,1015.6691764029965,None,143,B,1,2021_Jun_01_1814,GazeFlow,2020.1.2,59.88377589065241,
8,Block801.xls,B,1,7,73,73,None,congruent,Right,Right,Left,35,33,2,yellow,2,5,/home/docky/apps/exp/images/35Yi.jpeg,/home/docky/apps/exp/images/33Y.jpeg,0,7,7,7,0,6,6,6,1016.6713888290033,None,1016.6713888290033,None,1,3.674087444996985,1016.6713888290033,None,1020.3790699259989,None,1020.3790699259989,None,1022.8815814560003,None,1022.8815814560003,None,1.1673149970010854,1024.6798953570033,None,1024.6798953570033,None,5,1,1.051453156003845,1025.8394283369998,None,1025.8394283369998,None,1025.8394283369998,None,1026.9075635710033,None,1,0.602169548998063,1026.9075635710033,None,86,1027.5258804650002,None,143,B,1,2021_Jun_01_1814,GazeFlow,2020.1.2,59.88377589065241,
8,Block801.xls,B,1,8,96,96,None,congruent,Right,Right,Left,80,79,1,yellow,2,5,/home/docky/apps/exp/images/80Yi.jpeg,/home/docky/apps/exp/images/79Y.jpeg,0,7,7,7,0,7,7,7,1028.5275255369997,None,1028.5275255369997,None,1,2.8899514069998986,1028.5275255369997,None,1031.4489378910002,None,1031.4489378910002,None,1033.9557025199974,None,1033.9557025199974,None,1.016706329995941,1035.757201540997,None,1035.757201540997,None,5,1,0.9681636480017914,1036.7604525560018,None,1036.7604525560018,None,1036.7604525560018,None,1037.7452345769998,None,1,0.6017220330031705,1037.7452345769998,None,88,1038.3636303270032,None,143,B,1,2021_Jun_01_1814,GazeFlow,2020.1.2,59.88377589065241,
8,Block801.xls,B,,,,,,,,,,,,,,,,,,0,7,7,7,,,,,,,,,,,,,,,,,,,,,,,,,,,,,,,,,,,,,,,,,,,,143,B,1,2021_Jun_01_1814,GazeFlow,2020.1.2,59.88377589065241,
9,Block802.xls,B,2,1,30,30,None,congruent,Right,Right,Left,38,35,3,blue,2,5,/home/docky/apps/exp/images/38B.jpeg,/home/docky/apps/exp/images/35Bi.jpeg,0,8,8,8,0,0,0,0,1056.8605339799979,None,1056.8605339799979,None,1,7.657727770994825,1056.8605339799979,None,1064.543100322997,None,1064.543100322997,None,1067.0700484629997,None,1067.0700484629997,None,1.133185341997887,1068.8567503930026,None,1068.8567503930026,None,5,1,1.0184236870045424,1069.9750073730029,None,1069.9750073730029,None,1069.9750073730029,None,1071.0099836410009,None,1,0.5685991020000074,1071.0099836410009,None,90,1071.5947245360003,None,143,B,1,2021_Jun_01_1814,GazeFlow,2020.1.2,59.88377589065241,
9,Block802.xls,B,2,2,5,5,None,congruent,Left,Left,Right,35,38,3,blue,2,6,/home/docky/apps/exp/images/35B.jpeg,/home/docky/apps/exp/images/38Bi.jpeg,0,8,8,8,0,1,1,1,1072.596468468997,None,1072.596468468997,None,1,2.9729524079957628,1072.596468468997,None,1075.603028792997,None,1075.603028792997,None,1078.1075994729981,None,1078.1075994729981,None,0.9834893620063667,1079.9096237210033,None,1079.9096237210033,None,6,1,0.9513539670006139,1080.8795297769975,None,1080.8795297769975,None,1080.8795297769975,None,1081.8475808790026,None,1,0.4686485139973229,1081.8475808790026,None,92,1082.3323062339987,None,143,B,1,2021_Jun_01_1814,GazeFlow,2020.1.2,59.88377589065241,
9,Block802.xls,B,2,3,103,7,None,incongruent,Left,Right,Left,19,16,3,blue,2,5,/home/docky/apps/exp/images/19Bi.jpeg,/home/docky/apps/exp/images/16B.jpeg,0,8,8,8,0,2,2,2,1083.3337513599981,None,1083.3337513599981,None,1,2.572410385000694,1083.3337513599981,None,1085.9407754659987,None,1085.9407754659987,None,1088.4492503400033,None,1088.4492503400033,None,1.0669787660008296,1090.2483307139992,None,1090.2483307139992,None,5,1,0.9847586659961962,1091.2999250040011,None,1091.2999250040011,None,1091.2999250040011,None,1092.3010753609997,None,1,0.5178747670070152,1092.3010753609997,None,94,1092.8356903320018,None,143,B,1,2021_Jun_01_1814,GazeFlow,2020.1.2,59.88377589065241,
9,Block802.xls,B,2,4,35,35,None,congruent,Right,Right,Left,66,65,1,blue,2,5,/home/docky/apps/exp/images/66B.jpeg,/home/docky/apps/exp/images/35Yi.jpeg,0,8,8,8,0,3,3,3,1093.8376909720027,None,1093.8376909720027,None,1,4.075070734004839,1093.8376909720027,None,1097.9466096530014,None,1097.9466096530014,None,1100.4492593940013,None,1100.4492593940013,None,1.0001604690041859,1102.2522962809962,None,1102.2522962809962,None,5,1,1.0183181110041915,1103.2396681059981,None,1103.2396681059981,None,1103.2396681059981,None,1104.2743459280027,None,1,0.6023095140044461,1104.2743459280027,None,96,1104.892554318998,None,143,B,1,2021_Jun_01_1814,GazeFlow,2020.1.2,59.88377589065241,
9,Block802.xls,B,2,5,42,42,None,congruent,Right,Right,Left,83,80,3,blue,2,5,/home/docky/apps/exp/images/83Bi.jpeg,/home/docky/apps/exp/images/80B.jpeg,0,8,8,8,0,4,4,4,1105.8943027959976,None,1105.8943027959976,None,1,4.4097946580004646,1105.8943027959976,None,1110.3396528719968,None,1110.3396528719968,None,1112.8404860829978,None,1112.8404860829978,None,0.9328433880000375,1114.6387109880015,None,1114.6387109880015,None,5,1,0.9514459109996096,1115.563629668999,None,1115.563629668999,None,1115.563629668999,None,1116.5317723490007,None,1,0.4849931150019984,1116.5317723490007,None,98,1117.0330340229993,None,143,B,1,2021_Jun_01_1814,GazeFlow,2020.1.2,59.88377589065241,
9,Block802.xls,B,2,6,104,8,None,incongruent,Left,Right,Left,38,35,3,blue,2,5,/home/docky/apps/exp/images/38B.jpeg,/home/docky/apps/exp/images/35Bi.jpeg,0,8,8,8,0,5,5,5,1118.0346839630001,None,1118.0346839630001,None,1,2.3551169890051824,1118.0346839630001,None,1120.423784311999,None,1120.423784311999,None,1122.9282706200029,None,1122.9282706200029,None,1.117302884995297,1124.728424834997,None,1124.728424834997,None,5,1,0.9345575620027375,1125.8335628159984,None,1125.8335628159984,None,1125.8335628159984,None,1126.7849545749996,None,1,0.45149867500003893,1126.7849545749996,None,100,1127.252899072002,None,143,B,1,2021_Jun_01_1814,GazeFlow,2020.1.2,59.88377589065241,
9,Block802.xls,B,2,7,22,22,None,congruent,Left,Left,Right,80,83,3,blue,2,6,/home/docky/apps/exp/images/80Bi.jpeg,/home/docky/apps/exp/images/83B.jpeg,0,8,8,8,0,6,6,6,1128.2544172920025,None,1128.2544172920025,None,1,2.7062707520017284,1128.2544172920025,None,1130.9950295800008,None,1130.9950295800008,None,1133.4973581020022,None,1133.4973581020022,None,1.000351338996552,1135.3005675550012,None,1135.3005675550012,None,6,1,0.8343431460016291,1136.2873325050023,None,1136.2873325050023,None,1136.2873325050023,None,1137.1382962179996,None,1,0.4507897759976913,1137.1382962179996,None,102,1137.6055774600027,None,143,B,1,2021_Jun_01_1814,GazeFlow,2020.1.2,59.88377589065241,
9,Block802.xls,B,2,8,54,54,None,congruent,Left,Left,Right,65,66,1,yellow,2,6,/home/docky/apps/exp/images/35Bi.jpeg,/home/docky/apps/exp/images/66Y.jpeg,0,8,8,8,0,7,7,7,1138.6079075000016,None,1138.6079075000016,None,1,2.338891359002446,1138.6079075000016,None,1140.9802128180017,None,1140.9802128180017,None,1143.4850484749986,None,1143.4850484749986,None,1.116992613999173,1145.2859098089975,None,1145.2859098089975,None,6,1,1.0181372109946096,1146.3903312850016,None,1146.3903312850016,None,1146.3903312850016,None,1147.4248870149968,None,1,0.40192729900445556,1147.4248870149968,None,104,1147.842893809,None,143,B,1,2021_Jun_01_1814,GazeFlow,2020.1.2,59.88377589065241,
9,Block802.xls,B,,,,,,,,,,,,,,,,,,0,8,8,8,,,,,,,,,,,,,,,,,,,,,,,,,,,,,,,,,,,,,,,,,,,,143,B,1,2021_Jun_01_1814,GazeFlow,2020.1.2,59.88377589065241,
10,Block813.xls,B,13,1,70,70,None,congruent,Left,Left,Right,79,82,3,yellow,2,6,/home/docky/apps/exp/images/79Yi.jpeg,/home/docky/apps/exp/images/80Y.jpeg,0,9,9,9,0,0,0,0,1167.616749957997,None,1167.616749957997,None,1,4.5302616720000515,1167.616749957997,None,1172.1787735809994,None,1172.1787735809994,None,1174.6955084319998,None,1174.6955084319998,None,0.9661344069972984,1176.4990995970002,None,1176.4990995970002,None,6,1,0.8843961820020922,1177.450670487,None,1177.450670487,None,1177.450670487,None,1178.351677796003,None,1,0.36774773000070127,1178.351677796003,None,106,1178.7358084220032,None,143,B,1,2021_Jun_01_1814,GazeFlow,2020.1.2,59.88377589065241,
10,Block813.xls,B,13,2,60,60,None,congruent,Left,Left,Right,38,39,1,yellow,2,6,/home/docky/apps/exp/images/38Yi.jpeg,/home/docky/apps/exp/images/39Y.jpeg,0,9,9,9,0,1,1,1,1179.7378469820032,None,1179.7378469820032,None,1,2.856150598003296,1179.7378469820032,None,1182.627737142997,None,1182.627737142997,None,1185.1308295010022,None,1185.1308295010022,None,1.0668269080051687,1186.9340045339995,None,1186.9340045339995,None,6,1,0.8843434899972635,1187.9877505679979,None,1187.9877505679979,None,1187.9877505679979,None,1188.8887961360015,None,1,0.4177254090027418,1188.8887961360015,None,108,1189.3232331390027,None,143,B,1,2021_Jun_01_1814,GazeFlow,2020.1.2,59.88377589065241,
10,Block813.xls,B,13,3,81,81,None,congruent,Right,Right,Left,66,65,1,yellow,2,5,/home/docky/apps/exp/images/66Y.jpeg,/home/docky/apps/exp/images/35Bi.jpeg,0,9,9,9,0,2,2,2,1190.3247450709969,None,1190.3247450709969,None,1,3.039932201994816,1190.3247450709969,None,1193.3987525389966,None,1193.3987525389966,None,1195.9020230020033,None,1195.9020230020033,None,1.0168766310016508,1197.6999949719975,None,1197.6999949719975,None,5,1,0.8511123630014481,1198.708500927998,None,1198.708500927998,None,1198.708500927998,None,1199.576196094,None,1,0.5186041970009683,1199.576196094,None,110,1200.1111147440024,None,143,B,1,2021_Jun_01_1814,GazeFlow,2020.1.2,59.88377589065241,
10,Block813.xls,B,13,4,110,14,None,incongruent,Right,Left,Right,65,66,1,yellow,2,6,/home/docky/apps/exp/images/35B.jpeg,/home/docky/apps/exp/images/66Yi.jpeg,0,9,9,9,0,3,3,3,1201.1123429279978,None,1201.1123429279978,None,1,2.3894711199973244,1201.1123429279978,None,1203.5360800589988,None,1203.5360800589988,None,1206.040045310001,None,1206.040045310001,None,1.21708814700105,1207.8421358019987,None,1207.8421358019987,None,6,1,1.069562501994369,1209.044967437003,None,1209.044967437003,None,1209.044967437003,None,1210.1305078590012,None,1,0.6176166690056561,1210.1305078590012,None,112,1210.764537666997,None,143,B,1,2021_Jun_01_1814,GazeFlow,2020.1.2,59.88377589065241,
10,Block813.xls,B,13,5,17,17,None,congruent,Left,Left,Right,73,76,3,blue,2,6,/home/docky/apps/exp/images/73Bi.jpeg,/home/docky/apps/exp/images/76B.jpeg,0,9,9,9,0,4,4,4,1211.766529804001,None,1211.766529804001,None,1,2.7227126299985684,1211.766529804001,None,1214.5214674590025,None,1214.5214674590025,None,1217.025801073003,None,1217.025801073003,None,0.9166134449988022,1218.828951345,None,1218.828951345,None,6,1,0.9350613790011266,1219.732380524998,None,1219.732380524998,None,1219.732380524998,None,1220.6838380379995,None,1,0.5180524559982587,1220.6838380379995,None,114,1221.2186185879982,None,143,B,1,2021_Jun_01_1814,GazeFlow,2020.1.2,59.88377589065241,
10,Block813.xls,B,13,6,111,15,None,incongruent,Right,Left,Right,62,65,3,yellow,2,6,/home/docky/apps/exp/images/38B.jpeg,/home/docky/apps/exp/images/35Bi.jpeg,0,9,9,9,0,5,5,5,1222.2200274839997,None,1222.2200274839997,None,1,3.090219170000637,1222.2200274839997,None,1225.344109357,None,1225.344109357,None,1227.8467735090017,None,1227.8467735090017,None,1.0502196100060246,1229.644649324,None,1229.644649324,None,6,1,0.984206313994946,1230.6875508469966,None,1230.6875508469966,None,1230.6875508469966,None,1231.6887600830014,None,1,0.41793127200071467,1231.6887600830014,None,116,1232.1232469370007,None,143,B,1,2021_Jun_01_1814,GazeFlow,2020.1.2,59.88377589065241,
10,Block813.xls,B,13,7,55,55,None,congruent,Left,Left,Right,65,66,1,yellow,2,6,/home/docky/apps/exp/images/35B.jpeg,/home/docky/apps/exp/images/66Yi.jpeg,0,9,9,9,0,6,6,6,1233.1245976659993,None,1233.1245976659993,None,1,3.0734641550006927,1233.1245976659993,None,1236.2318377799966,None,1236.2318377799966,None,1238.7352484119983,None,1238.7352484119983,None,1.0503907649981556,1240.533153532997,None,1240.533153532997,None,6,1,0.8848655900001177,1241.575026163002,None,1241.575026163002,None,1241.575026163002,None,1242.4762166869987,None,1,0.38447793100203853,1242.4762166869987,None,118,1242.877436609997,None,143,B,1,2021_Jun_01_1814,GazeFlow,2020.1.2,59.88377589065241,
10,Block813.xls,B,13,8,26,26,None,congruent,Right,Right,Left,19,16,3,blue,2,5,/home/docky/apps/exp/images/19B.jpeg,/home/docky/apps/exp/images/16Bi.jpeg,0,9,9,9,0,7,7,7,1243.8789581399978,None,1243.8789581399978,None,1,2.8735540810012026,1243.8789581399978,None,1246.7856477270034,None,1246.7856477270034,None,1249.288695875999,None,1249.288695875999,None,1.0167009430006146,1251.0923156759964,None,1251.0923156759964,None,5,1,0.9682850309982314,1252.0956206679984,None,1252.0956206679984,None,1252.0956206679984,None,1253.0803520379995,None,1,0.6010064410002087,1253.0803520379995,None,120,1253.698120617999,None,143,B,1,2021_Jun_01_1814,GazeFlow,2020.1.2,59.88377589065241,
10,Block813.xls,B,,,,,,,,,,,,,,,,,,0,9,9,9,,,,,,,,,,,,,,,,,,,,,,,,,,,,,,,,,,,,,,,,,,,,143,B,1,2021_Jun_01_1814,GazeFlow,2020.1.2,59.88377589065241,
11,Block806.xls,B,6,1,10,10,None,congruent,Left,Left,Right,65,66,1,blue,2,6,/home/docky/apps/exp/images/35Y.jpeg,/home/docky/apps/exp/images/66Bi.jpeg,0,10,10,10,0,0,0,0,1278.162841944999,None,1278.162841944999,None,1,4.131518772002892,1278.162841944999,None,1282.322941352999,None,1282.322941352999,None,1284.8430927860027,None,1284.8430927860027,None,1.0660474469987093,1286.6404474869996,None,1286.6404474869996,None,5,0,0.901634087000275,1287.697768842001,None,1287.697768842001,None,1287.697768842001,None,1288.615931569002,None,1,0.4518777420016704,1288.615931569002,None,118,1289.083873552001,None,143,B,1,2021_Jun_01_1814,GazeFlow,2020.1.2,59.88377589065241,
11,Block806.xls,B,6,2,89,89,None,congruent,Right,Right,Left,76,69,7,yellow,2,5,/home/docky/apps/exp/images/76Yi.jpeg,/home/docky/apps/exp/images/69Y.jpeg,0,10,10,10,0,1,1,1,1290.085327793,None,1290.085327793,None,1,4.3596475000013015,1290.085327793,None,1294.4784495130007,None,1294.4784495130007,None,1296.9815834870024,None,1296.9815834870024,None,1.0834955370009993,1298.7844549470028,None,1298.7844549470028,None,5,1,0.8677936969979783,1299.8550278289986,None,1299.8550278289986,None,1299.8550278289986,None,1300.7395491569987,None,1,1.252374237999902,1300.7395491569987,None,120,1302.0084283859978,None,143,B,1,2021_Jun_01_1814,GazeFlow,2020.1.2,59.88377589065241,
11,Block806.xls,B,6,3,88,88,None,congruent,Right,Right,Left,76,69,7,yellow,2,5,/home/docky/apps/exp/images/76Y.jpeg,/home/docky/apps/exp/images/69Yi.jpeg,0,10,10,10,0,2,2,2,1303.0104729430022,None,1303.0104729430022,None,1,3.1234293849993264,1303.0104729430022,None,1306.1678370890004,None,1306.1678370890004,None,1308.6706419449984,None,1308.6706419449984,None,1.3842786160021205,1310.473636456998,None,1310.473636456998,None,5,1,0.9518813009999576,1311.8449968740024,None,1311.8449968740024,None,1311.8449968740024,None,1312.8133198869982,None,1,0.6007585699990159,1312.8133198869982,None,122,1313.4306659979993,None,143,B,1,2021_Jun_01_1814,GazeFlow,2020.1.2,59.88377589065241,
11,Block806.xls,B,6,4,109,13,None,incongruent,Right,Left,Right,33,35,2,yellow,2,6,/home/docky/apps/exp/images/33Yi.jpeg,/home/docky/apps/exp/images/35Y.jpeg,0,10,10,10,0,3,3,3,1314.4327145720017,None,1314.4327145720017,None,1,2.371896397002274,1314.4327145720017,None,1316.838733190998,None,1316.838733190998,None,1319.341783308002,None,1319.341783308002,None,1.2005945089986199,1321.1470633060017,None,1321.1470633060017,None,6,1,0.7676876750047086,1322.3319359219968,None,1322.3319359219968,None,1322.3319359219968,None,1323.1161773159984,None,1,0.35132093299762346,1323.1161773159984,None,124,1323.4840833310009,None,143,B,1,2021_Jun_01_1814,GazeFlow,2020.1.2,59.88377589065241,
11,Block806.xls,B,6,5,37,37,None,congruent,Right,Right,Left,79,73,6,blue,2,5,/home/docky/apps/exp/images/79Bi.jpeg,/home/docky/apps/exp/images/73B.jpeg,0,10,10,10,0,4,4,4,1324.4857624579963,None,1324.4857624579963,None,1,1.8043494480007212,1324.4857624579963,None,1326.3253966740012,None,1326.3253966740012,None,1328.826061544998,None,1328.826061544998,None,1.0669920959990122,1330.6250376219978,None,1330.6250376219978,None,5,1,1.0348845449989312,1331.6834324419979,None,1331.6834324419979,None,1331.6834324419979,None,1332.7347522479977,None,1,0.5857632469997043,1332.7347522479977,None,126,1333.3365382999982,None,143,B,1,2021_Jun_01_1814,GazeFlow,2020.1.2,59.88377589065241,
11,Block806.xls,B,6,6,108,12,None,incongruent,Left,Right,Left,39,38,1,blue,2,5,/home/docky/apps/exp/images/39Bi.jpeg,/home/docky/apps/exp/images/38B.jpeg,0,10,10,10,0,5,5,5,1334.3381308940006,None,1334.3381308940006,None,1,2.973446318996139,1334.3381308940006,None,1337.3449962969971,None,1337.3449962969971,None,1339.8496387409978,None,1339.8496387409978,None,1.1671522079996066,1341.6468148319982,None,1341.6468148319982,None,5,1,0.8679177450030693,1342.805109893001,None,1342.805109893001,None,1342.805109893001,None,1343.6899701750008,None,1,0.5014526209997712,1343.6899701750008,None,128,1344.2076723680002,None,143,B,1,2021_Jun_01_1814,GazeFlow,2020.1.2,59.88377589065241,
11,Block806.xls,B,6,7,52,52,None,congruent,Left,Left,Right,65,66,1,yellow,2,6,/home/docky/apps/exp/images/35B.jpeg,/home/docky/apps/exp/images/66Yi.jpeg,0,10,10,10,0,6,6,6,1345.2091720679964,None,1345.2091720679964,None,1,3.3572283620014787,1345.2091720679964,None,1348.6002505220022,None,1348.6002505220022,None,1351.102984641002,None,1351.102984641002,None,1.100351180000871,1352.9063353930032,None,1352.9063353930032,None,6,1,0.8510884450006415,1353.993291867002,None,1353.993291867002,None,1353.993291867002,None,1354.8610147450017,None,1,0.43501433700294,1354.8610147450017,None,130,1355.312306366999,None,143,B,1,2021_Jun_01_1814,GazeFlow,2020.1.2,59.88377589065241,
11,Block806.xls,B,6,8,75,75,None,congruent,Right,Right,Left,35,33,2,yellow,2,5,/home/docky/apps/exp/images/35Yi.jpeg,/home/docky/apps/exp/images/33Y.jpeg,0,10,10,10,0,7,7,7,1356.3142731260014,None,1356.3142731260014,None,1,2.9565510699976585,1356.3142731260014,None,1359.303994365,None,1359.303994365,None,1361.8091698869976,None,1361.8091698869976,None,1.3171557120003854,1363.6057634129975,None,1363.6057634129975,None,5,1,0.8350160609988961,1364.9144170369982,None,1364.9144170369982,None,1364.9144170369982,None,1365.765727414997,None,1,0.45145249900087947,1365.765727414997,None,132,1366.233523146002,None,143,B,1,2021_Jun_01_1814,GazeFlow,2020.1.2,59.88377589065241,
11,Block806.xls,B,,,,,,,,,,,,,,,,,,0,10,10,10,,,,,,,,,,,,,,,,,,,,,,,,,,,,,,,,,,,,,,,,,,,,143,B,1,2021_Jun_01_1814,GazeFlow,2020.1.2,59.88377589065241,
12,Block811.xls,B,11,1,86,86,None,congruent,Right,Right,Left,75,69,6,yellow,2,5,/home/docky/apps/exp/images/76Y.jpeg,/home/docky/apps/exp/images/69Yi.jpeg,0,11,11,11,0,0,0,0,1386.7568227250013,None,1386.7568227250013,None,1,3.5989711200018064,1386.7568227250013,None,1390.3782610229973,None,1390.3782610229973,None,1392.9029252589971,None,1392.9029252589971,None,1.0995235049995244,1394.7000009460025,None,1394.7000009460025,None,5,1,0.8012857979992987,1395.7914469530006,None,1395.7914469530006,None,1395.7914469530006,None,1396.6090932559964,None,1,0.5013972800006741,1396.6090932559964,None,134,1397.1270338370014,None,143,B,1,2021_Jun_01_1814,GazeFlow,2020.1.2,59.88377589065241,
12,Block811.xls,B,11,2,83,83,None,congruent,Right,Right,Left,75,69,6,yellow,2,5,/home/docky/apps/exp/images/76Yi.jpeg,/home/docky/apps/exp/images/69Y.jpeg,0,11,11,11,0,1,1,1,1398.1288508119978,None,1398.1288508119978,None,1,2.2715066870005103,1398.1288508119978,None,1400.4341671130023,None,1400.4341671130023,None,1402.9362559989968,None,1402.9362559989968,None,1.1671365389993298,1404.7381419599988,None,1404.7381419599988,None,5,1,1.034766115997627,1405.8941799509994,None,1405.8941799509994,None,1405.8941799509994,None,1406.945919206999,None,1,0.5349451279980713,1406.945919206999,None,136,1407.4971959940012,None,143,B,1,2021_Jun_01_1814,GazeFlow,2020.1.2,59.88377589065241,
12,Block811.xls,B,11,3,28,28,None,congruent,Right,Right,Left,38,35,3,blue,2,5,/home/docky/apps/exp/images/38Bi.jpeg,/home/docky/apps/exp/images/35B.jpeg,0,11,11,11,0,2,2,2,1408.498805452,None,1408.498805452,None,1,3.4910930190017098,1408.498805452,None,1412.0218546780015,None,1412.0218546780015,None,1414.5266398960011,None,1414.5266398960011,None,2.5370460609992733,1416.3300589240025,None,1416.3300589240025,None,5,1,0.8862604839960113,1418.8679116650019,None,1418.8679116650019,None,1418.8679116650019,None,1419.7705005390017,None,1,0.5344022720018984,1419.7705005390017,None,138,1420.3217840819998,None,143,B,1,2021_Jun_01_1814,GazeFlow,2020.1.2,59.88377589065241,
12,Block811.xls,B,11,4,58,58,None,congruent,Left,Left,Right,62,65,3,yellow,2,6,/home/docky/apps/exp/images/38B.jpeg,/home/docky/apps/exp/images/35Bi.jpeg,0,11,11,11,0,3,3,3,1421.3240310710025,None,1421.3240310710025,None,1,11.706359406001866,1421.3240310710025,None,1433.0621949080014,None,1433.0621949080014,None,1435.568878569,None,1435.568878569,None,1.0170099480019417,1437.370472857001,None,1437.370472857001,None,6,1,0.8342476230027387,1438.3741927329975,None,1438.3741927329975,None,1438.3741927329975,None,1439.2250290619995,None,1,0.9359626910008956,1439.2250290619995,None,140,1440.1773611649987,None,143,B,1,2021_Jun_01_1814,GazeFlow,2020.1.2,59.88377589065241,
12,Block811.xls,B,11,5,32,32,None,congruent,Right,Right,Left,66,65,1,blue,2,5,/home/docky/apps/exp/images/66Bi.jpeg,/home/docky/apps/exp/images/35Y.jpeg,0,11,11,11,0,4,4,4,1441.178975394003,None,1441.178975394003,None,1,2.189006144995801,1441.178975394003,None,1443.3945476840017,None,1443.3945476840017,None,1445.9042593069971,None,1445.9042593069971,None,0.9166833039998892,1447.7025375270023,None,1447.7025375270023,None,6,0,0.7513099110001349,1448.6104863509972,None,1448.6104863509972,None,1448.6104863509972,None,1449.3782245859984,None,1,0.35075593199871946,1449.3782245859984,None,138,1449.7454332639973,None,143,B,1,2021_Jun_01_1814,GazeFlow,2020.1.2,59.88377589065241,
12,Block811.xls,B,11,6,67,67,None,congruent,Left,Left,Right,72,77,5,yellow,2,6,/home/docky/apps/exp/images/72Y.jpeg,/home/docky/apps/exp/images/77Yi.jpeg,0,11,11,11,0,5,5,5,1450.7473755870014,None,1450.7473755870014,None,1,2.5725006990032853,1450.7473755870014,None,1453.3535850550034,None,1453.3535850550034,None,1455.8565036189975,None,1455.8565036189975,None,0.9502332439951715,1457.6548804039994,None,1457.6548804039994,None,6,1,0.967973084996629,1458.596634868998,None,1458.596634868998,None,1458.596634868998,None,1459.5815381889988,None,1,0.3838926359967445,1459.5815381889988,None,140,1459.9819053839965,None,143,B,1,2021_Jun_01_1814,GazeFlow,2020.1.2,59.88377589065241,
12,Block811.xls,B,11,7,120,24,None,incongruent,Left,Right,Left,77,72,5,yellow,2,5,/home/docky/apps/exp/images/77Y.jpeg,/home/docky/apps/exp/images/72Yi.jpeg,0,11,11,11,0,6,6,6,1460.9841653830008,None,1460.9841653830008,None,1,2.0879370700058644,1460.9841653830008,None,1463.1034827629992,None,1463.1034827629992,None,1465.6104289880022,None,1465.6104289880022,None,1.1668604549995507,1467.4120129119983,None,1467.4120129119983,None,5,1,0.8679191949995584,1468.565935120001,None,1468.565935120001,None,1468.565935120001,None,1469.4505937389986,None,1,0.4676245390000986,1469.4505937389986,None,142,1469.9346782240027,None,143,B,1,2021_Jun_01_1814,GazeFlow,2020.1.2,59.88377589065241,
12,Block811.xls,B,11,8,57,57,None,congruent,Left,Left,Right,62,65,3,yellow,2,6,/home/docky/apps/exp/images/38Bi.jpeg,/home/docky/apps/exp/images/35B.jpeg,0,11,11,11,0,7,7,7,1470.9366779170014,None,1470.9366779170014,None,1,2.305496202003269,1470.9366779170014,None,1473.2756506730002,None,1473.2756506730002,None,1475.7784260690023,None,1475.7784260690023,None,0.983345239998016,1477.5765635790012,None,1477.5765635790012,None,6,1,0.8176697529997909,1478.552098398999,None,1478.552098398999,None,1478.552098398999,None,1479.386132350999,None,1,0.3511792829958722,1479.386132350999,None,144,1479.754104009,None,143,B,1,2021_Jun_01_1814,GazeFlow,2020.1.2,59.88377589065241,
12,Block811.xls,B,,,,,,,,,,,,,,,,,,0,11,11,11,,,,,,,,,,,,,,,,,,,,,,,,,,,,,,,,,,,,,,,,,,,,143,B,1,2021_Jun_01_1814,GazeFlow,2020.1.2,59.88377589065241,
13,Block808.xls,B,8,1,118,22,None,incongruent,Left,Right,Left,75,69,6,yellow,2,5,/home/docky/apps/exp/images/76Y.jpeg,/home/docky/apps/exp/images/69Yi.jpeg,0,12,12,12,0,0,0,0,1505.138421030002,None,1505.138421030002,None,1,4.166165413000272,1505.138421030002,None,1509.3306089530015,None,1509.3306089530015,None,1511.855417409999,None,1511.855417409999,None,1.2333218450003187,1513.6479308260023,None,1513.6479308260023,None,5,1,0.8679997069993988,1514.8725281939987,None,1514.8725281939987,None,1514.8725281939987,None,1515.757088047998,None,1,0.5015262279994204,1515.757088047998,None,146,1516.275144927,None,143,B,1,2021_Jun_01_1814,GazeFlow,2020.1.2,59.88377589065241,
13,Block808.xls,B,8,2,7,7,None,congruent,Left,Left,Right,65,66,1,blue,2,6,/home/docky/apps/exp/images/35Yi.jpeg,/home/docky/apps/exp/images/66B.jpeg,0,12,12,12,0,1,1,1,1517.2766011010026,None,1517.2766011010026,None,1,5.328237920999527,1517.2766011010026,None,1522.637910985999,None,1522.637910985999,None,1525.1426510710007,None,1525.1426510710007,None,1.2004192159947706,1526.9466941560022,None,1526.9466941560022,None,6,1,1.1184169379994273,1528.1316058259981,None,1528.1316058259981,None,1528.1316058259981,None,1529.2664544840009,None,1,0.5188878330009175,1529.2664544840009,None,148,1529.8014086920011,None,143,B,1,2021_Jun_01_1814,GazeFlow,2020.1.2,59.88377589065241,
13,Block808.xls,B,8,3,112,16,None,incongruent,Right,Left,Right,69,76,7,yellow,2,6,/home/docky/apps/exp/images/69Yi.jpeg,/home/docky/apps/exp/images/76Y.jpeg,0,12,12,12,0,2,2,2,1530.8030675679984,None,1530.8030675679984,None,1,3.2073754380035098,1530.8030675679984,None,1534.043683212003,None,1534.043683212003,None,1536.5311942999979,None,1536.5311942999979,None,1.1670950629995787,1538.3493883789997,None,1538.3493883789997,None,6,1,0.8180396020034095,1539.503699781002,None,1539.503699781002,None,1539.503699781002,None,1540.3379864890012,None,1,0.4186524099932285,1540.3379864890012,None,150,1540.772731475001,None,143,B,1,2021_Jun_01_1814,GazeFlow,2020.1.2,59.88377589065241,
13,Block808.xls,B,8,4,97,1,None,incongruent,Right,Left,Right,16,19,3,blue,2,6,/home/docky/apps/exp/images/16Bi.jpeg,/home/docky/apps/exp/images/19B.jpeg,0,12,12,12,0,3,3,3,1541.7743480740028,None,1541.7743480740028,None,1,2.1384295219977503,1541.7743480740028,None,1543.9441222890018,None,1543.9441222890018,None,1546.451034220001,None,1546.451034220001,None,1.0334349190015928,1548.2544732919996,None,1548.2544732919996,None,6,1,0.8346268810055335,1549.2727127489998,None,1549.2727127489998,None,1549.2727127489998,None,1550.1240336929986,None,1,0.3842381590002333,1550.1240336929986,None,152,1550.5250863719994,None,143,B,1,2021_Jun_01_1814,GazeFlow,2020.1.2,59.88377589065241,
13,Block808.xls,B,8,5,24,24,None,congruent,Left,Left,Right,80,83,3,blue,2,6,/home/docky/apps/exp/images/80Bi.jpeg,/home/docky/apps/exp/images/83B.jpeg,0,12,12,12,0,4,4,4,1551.5265806090028,None,1551.5265806090028,None,1,1.887924059999932,1551.5265806090028,None,1553.4477041589998,None,1553.4477041589998,None,1555.9529193690032,None,1555.9529193690032,None,1.1337812600031612,1557.7549885089975,None,1557.7549885089975,None,6,1,1.0014006150013302,1558.8748960619996,None,1558.8748960619996,None,1558.8748960619996,None,1559.8928703229976,None,1,0.4514753860057681,1559.8928703229976,None,154,1560.3608133110029,None,143,B,1,2021_Jun_01_1814,GazeFlow,2020.1.2,59.88377589065241,
13,Block808.xls,B,8,6,13,13,None,congruent,Left,Left,Right,38,39,1,blue,2,6,/home/docky/apps/exp/images/38Bi.jpeg,/home/docky/apps/exp/images/39B.jpeg,0,12,12,12,0,5,5,5,1561.3621682079975,None,1561.3621682079975,None,1,2.672622908001358,1561.3621682079975,None,1564.0682011219978,None,1564.0682011219978,None,1566.5730054660016,None,1566.5730054660016,None,1.1008980900005554,1568.374783596999,None,1568.374783596999,None,5,0,0.7843643219966907,1569.4619616679993,None,1569.4619616679993,None,1569.4619616679993,None,1570.2627954209966,None,1,0.4685461139961262,1570.2627954209966,None,152,1570.7477078759985,None,143,B,1,2021_Jun_01_1814,GazeFlow,2020.1.2,59.88377589065241,
13,Block808.xls,B,8,7,8,8,None,congruent,Left,Left,Right,65,66,1,blue,2,6,/home/docky/apps/exp/images/35Y.jpeg,/home/docky/apps/exp/images/66Bi.jpeg,0,12,12,12,0,6,6,6,1571.7494018299985,None,1571.7494018299985,None,1,2.7892384420047165,1571.7494018299985,None,1574.5709296970017,None,1574.5709296970017,None,1577.075782701002,None,1577.075782701002,None,1.1170710179940215,1578.8790195170004,None,1578.8790195170004,None,6,1,0.8177687779971166,1579.9823919870032,None,1579.9823919870032,None,1579.9823919870032,None,1580.8166826539964,None,1,0.40159851600037655,1580.8166826539964,None,154,1581.2346067409962,None,143,B,1,2021_Jun_01_1814,GazeFlow,2020.1.2,59.88377589065241,
13,Block808.xls,B,8,8,31,31,None,congruent,Right,Right,Left,66,65,1,blue,2,5,/home/docky/apps/exp/images/66B.jpeg,/home/docky/apps/exp/images/35Yi.jpeg,0,12,12,12,0,7,7,7,1582.2360567889991,None,1582.2360567889991,None,1,2.8728261520009255,1582.2360567889991,None,1585.142552833,None,1585.142552833,None,1587.6454255930003,None,1587.6454255930003,None,1.0167667269997764,1589.4493203849997,None,1589.4493203849997,None,5,1,0.8014991970048868,1590.4526872740025,None,1590.4526872740025,None,1590.4526872740025,None,1591.270501498002,None,1,0.5353738970006816,1591.270501498002,None,156,1591.8218553719998,None,143,B,1,2021_Jun_01_1814,GazeFlow,2020.1.2,59.88377589065241,
13,Block808.xls,B,,,,,,,,,,,,,,,,,,0,12,12,12,,,,,,,,,,,,,,,,,,,,,,,,,,,,,,,,,,,,,,,,,,,,143,B,1,2021_Jun_01_1814,GazeFlow,2020.1.2,59.88377589065241,
14,Block815.xls,B,15,1,65,65,None,congruent,Left,Left,Right,69,76,7,yellow,2,6,/home/docky/apps/exp/images/69Yi.jpeg,/home/docky/apps/exp/images/76Y.jpeg,0,13,13,13,0,0,0,0,1614.9857067170014,None,1614.9857067170014,None,1,3.629797907997272,1614.9857067170014,None,1618.637615874999,None,1618.637615874999,None,1621.1608834329963,None,1621.1608834329963,None,0.8491205890022684,1622.966041599997,None,1622.966041599997,None,6,1,0.7509570269976393,1623.8007929739979,None,1623.8007929739979,None,1623.8007929739979,None,1624.5683576730007,None,1,0.41754599600244546,1624.5683576730007,None,158,1625.0024864310035,None,143,B,1,2021_Jun_01_1814,GazeFlow,2020.1.2,59.88377589065241,
14,Block815.xls,B,15,2,102,6,None,incongruent,Right,Left,Right,80,83,3,blue,2,6,/home/docky/apps/exp/images/80B.jpeg,/home/docky/apps/exp/images/83Bi.jpeg,0,13,13,13,0,1,1,1,1626.004559754001,None,1626.004559754001,None,1,1.8710416820031242,1626.004559754001,None,1627.9116888499993,None,1627.9116888499993,None,1630.4176495270003,None,1630.4176495270003,None,0.9332025459953002,1632.2158612970015,None,1632.2158612970015,None,6,1,0.9175598220026586,1633.1357550679968,None,1633.1357550679968,None,1633.1357550679968,None,1634.0701699030033,None,1,0.4024241869992693,1634.0701699030033,None,160,1634.4881789490028,None,143,B,1,2021_Jun_01_1814,GazeFlow,2020.1.2,59.88377589065241,
14,Block815.xls,B,15,3,33,33,None,congruent,Right,Right,Left,66,65,1,blue,2,5,/home/docky/apps/exp/images/66Bi.jpeg,/home/docky/apps/exp/images/35Y.jpeg,0,13,13,13,0,2,2,2,1635.4898567990022,None,1635.4898567990022,None,1,2.6726541690004524,1635.4898567990022,None,1638.195764131,None,1638.195764131,None,1640.700625434998,None,1640.700625434998,None,1.0499414790028823,1642.502774407003,None,1642.502774407003,None,6,0,0.850826807996782,1643.5391877329967,None,1643.5391877329967,None,1643.5391877329967,None,1644.4068793979968,None,1,0.3341163150034845,1644.4068793979968,None,158,1644.7583011349998,None,143,B,1,2021_Jun_01_1814,GazeFlow,2020.1.2,59.88377589065241,
14,Block815.xls,B,15,4,72,72,None,congruent,Left,Left,Right,79,82,3,yellow,2,6,/home/docky/apps/exp/images/79Yi.jpeg,/home/docky/apps/exp/images/80Y.jpeg,0,13,13,13,0,3,3,3,1645.7594956300018,None,1645.7594956300018,None,1,2.2221405309974216,1645.7594956300018,None,1648.0149648099978,None,1648.0149648099978,None,1650.519868506999,None,1650.519868506999,None,0.9666749000025447,1652.321155505997,None,1652.321155505997,None,6,1,0.867741478003154,1653.2748362190032,None,1653.2748362190032,None,1653.2748362190032,None,1654.159141901,None,1,0.4508066369962762,1654.159141901,None,160,1654.6266561360026,None,143,B,1,2021_Jun_01_1814,GazeFlow,2020.1.2,59.88377589065241,
14,Block815.xls,B,15,5,100,4,None,incongruent,Right,Left,Right,73,76,3,blue,2,6,/home/docky/apps/exp/images/73B.jpeg,/home/docky/apps/exp/images/76Bi.jpeg,0,13,13,13,0,4,4,4,1655.6289735940009,None,1655.6289735940009,None,1,1.9705164300030447,1655.6289735940009,None,1657.6164498590006,None,1657.6164498590006,None,1660.1370353180027,None,1660.1370353180027,None,1.1338218090022565,1661.940493189999,None,1661.940493189999,None,6,1,1.0348818310012575,1663.0603495399992,None,1663.0603495399992,None,1663.0603495399992,None,1664.111895328002,None,1,0.38402864600357134,1664.111895328002,None,162,1664.5127794450018,None,143,B,1,2021_Jun_01_1814,GazeFlow,2020.1.2,59.88377589065241,
14,Block815.xls,B,15,6,45,45,None,congruent,Right,Right,Left,39,38,1,blue,2,5,/home/docky/apps/exp/images/39B.jpeg,/home/docky/apps/exp/images/38Bi.jpeg,0,13,13,13,0,5,5,5,1665.5143904159995,None,1665.5143904159995,None,1,2.355506271000195,1665.5143904159995,None,1667.9037044819997,None,1667.9037044819997,None,1670.4086253610003,None,1670.4086253610003,None,0.9498790479992749,1672.210104578,None,1672.210104578,None,5,1,0.984988482996414,1673.1467521779996,None,1673.1467521779996,None,1673.1467521779996,None,1674.1481837160027,None,1,0.5348140509959194,1674.1481837160027,None,164,1674.6997009789993,None,143,B,1,2021_Jun_01_1814,GazeFlow,2020.1.2,59.88377589065241,
14,Block815.xls,B,15,7,98,2,None,incongruent,Right,Left,Right,35,38,3,blue,2,6,/home/docky/apps/exp/images/35Bi.jpeg,/home/docky/apps/exp/images/38B.jpeg,0,13,13,13,0,6,6,6,1675.700988399003,None,1675.700988399003,None,1,2.3721050640015164,1675.700988399003,None,1678.1066842899963,None,1678.1066842899963,None,1680.6099301799986,None,1680.6099301799986,None,1.134058907002327,1682.4134769189986,None,1682.4134769189986,None,6,1,0.918194701000175,1683.533351951999,None,1683.533351951999,None,1683.533351951999,None,1684.4680393789968,None,1,0.4682574620019295,1684.4680393789968,None,166,1684.9521724799997,None,143,B,1,2021_Jun_01_1814,GazeFlow,2020.1.2,59.88377589065241,
14,Block815.xls,B,15,8,59,59,None,congruent,Left,Left,Right,38,39,1,yellow,2,6,/home/docky/apps/exp/images/38Yi.jpeg,/home/docky/apps/exp/images/39Y.jpeg,0,13,13,13,0,7,7,7,1685.9543715559994,None,1685.9543715559994,None,1,4.626264988000912,1685.9543715559994,None,1690.614488965999,None,1690.614488965999,None,1693.1170808910028,None,1693.1170808910028,None,0.9164951440034201,1694.9206796060025,None,1694.9206796060025,None,6,1,0.8676420330011752,1695.8241156899967,None,1695.8241156899967,None,1695.8241156899967,None,1696.7087230769976,None,1,0.43423990000155754,1696.7087230769976,None,168,1697.159600674997,None,143,B,1,2021_Jun_01_1814,GazeFlow,2020.1.2,59.88377589065241,
14,Block815.xls,B,,,,,,,,,,,,,,,,,,0,13,13,13,,,,,,,,,,,,,,,,,,,,,,,,,,,,,,,,,,,,,,,,,,,,143,B,1,2021_Jun_01_1814,GazeFlow,2020.1.2,59.88377589065241,
15,Block807.xls,B,7,1,71,71,None,congruent,Left,Left,Right,79,82,3,yellow,2,6,/home/docky/apps/exp/images/79Y.jpeg,/home/docky/apps/exp/images/80Yi.jpeg,0,14,14,14,0,0,0,0,1720.422475088002,None,1720.422475088002,None,1,5.814782457993715,1720.422475088002,None,1726.2682524129996,None,1726.2682524129996,None,1728.7885152050003,None,1728.7885152050003,None,0.9988236799981678,1730.5862563219998,None,1730.5862563219998,None,5,0,0.9014456599979894,1731.576958122001,None,1731.576958122001,None,1731.576958122001,None,1732.4947039239996,None,1,0.25075986699812347,1732.4947039239996,None,166,1732.7619044469975,None,143,B,1,2021_Jun_01_1814,GazeFlow,2020.1.2,59.88377589065241,
15,Block807.xls,B,7,2,44,44,None,congruent,Right,Right,Left,83,80,3,blue,2,5,/home/docky/apps/exp/images/83Bi.jpeg,/home/docky/apps/exp/images/80B.jpeg,0,14,14,14,0,1,1,1,1733.763780276,None,1733.763780276,None,1,2.7895575770016876,1733.763780276,None,1736.5871949560023,None,1736.5871949560023,None,1739.0902191630012,None,1739.0902191630012,None,0.9836399000050733,1740.893392320002,None,1740.893392320002,None,5,1,0.9680683539991151,1741.8634783369998,None,1741.8634783369998,None,1741.8634783369998,None,1742.847846315999,None,1,0.3015315310040023,1742.847846315999,None,168,1743.1659187479963,None,143,B,1,2021_Jun_01_1814,GazeFlow,2020.1.2,59.88377589065241,
15,Block807.xls,B,7,3,48,48,None,congruent,Right,Right,Left,39,38,1,blue,2,5,/home/docky/apps/exp/images/39Bi.jpeg,/home/docky/apps/exp/images/38B.jpeg,0,14,14,14,0,2,2,2,1744.167319246997,None,1744.167319246997,None,1,2.7895159280014923,1744.167319246997,None,1746.9905282050022,None,1746.9905282050022,None,1749.4955471639987,None,1749.4955471639987,None,0.9166060350034968,1751.2993520430027,None,1751.2993520430027,None,5,1,0.8676284289977048,1752.2001824079998,None,1752.2001824079998,None,1752.2001824079998,None,1753.0847944940033,None,1,0.5182393130016862,1753.0847944940033,None,170,1753.6194906730016,None,143,B,1,2021_Jun_01_1814,GazeFlow,2020.1.2,59.88377589065241,
15,Block807.xls,B,7,4,113,17,None,incongruent,Right,Left,Right,72,77,5,yellow,2,6,/home/docky/apps/exp/images/72Yi.jpeg,/home/docky/apps/exp/images/77Y.jpeg,0,14,14,14,0,3,3,3,1754.6211424509966,None,1754.6211424509966,None,1,5.260827045000042,1754.6211424509966,None,1759.9155677460003,None,1759.9155677460003,None,1762.420757537002,None,1762.420757537002,None,1.1839850110045518,1764.2243243229968,None,1764.2243243229968,None,6,1,0.8846184779977193,1765.3924806470022,None,1765.3924806470022,None,1765.3924806470022,None,1766.2937858020014,None,1,0.43504262500209734,1766.2937858020014,None,172,1766.7451846889962,None,143,B,1,2021_Jun_01_1814,GazeFlow,2020.1.2,59.88377589065241,
15,Block807.xls,B,7,5,69,69,None,congruent,Left,Left,Right,72,77,5,yellow,2,6,/home/docky/apps/exp/images/72Y.jpeg,/home/docky/apps/exp/images/77Yi.jpeg,0,14,14,14,0,4,4,4,1767.7467860449979,None,1767.7467860449979,None,1,2.8057694180024555,1767.7467860449979,None,1770.5862818910027,None,1770.5862818910027,None,1773.0895907230006,None,1773.0895907230006,None,0.9663318029997754,1774.8947958349963,None,1774.8947958349963,None,6,1,0.984790572001657,1775.8462712100009,None,1775.8462712100009,None,1775.8462712100009,None,1776.8474740989986,None,1,0.5017138670009444,1776.8474740989986,None,174,1777.3656563170007,None,143,B,1,2021_Jun_01_1814,GazeFlow,2020.1.2,59.88377589065241,
15,Block807.xls,B,7,6,39,39,None,congruent,Right,Right,Left,79,76,3,blue,2,5,/home/docky/apps/exp/images/79B.jpeg,/home/docky/apps/exp/images/76Bi.jpeg,0,14,14,14,0,5,5,5,1778.367087945997,None,1778.367087945997,None,1,4.292456859002414,1778.367087945997,None,1782.693449831997,None,1782.693449831997,None,1785.1967572529975,None,1785.1967572529975,None,0.9332765010040021,1786.9997291379987,None,1786.9997291379987,None,5,1,4.859731381999154,1787.9196883019977,None,1787.9196883019977,None,1787.9196883019977,None,1792.795749953002,None,1,1.1690705430009984,1792.795749953002,None,176,1793.9812787799965,None,143,B,1,2021_Jun_01_1814,GazeFlow,2020.1.2,59.88377589065241,
15,Block807.xls,B,7,7,50,50,None,congruent,Left,Left,Right,33,35,2,yellow,2,6,/home/docky/apps/exp/images/33Y.jpeg,/home/docky/apps/exp/images/35Yi.jpeg,0,14,14,14,0,6,6,6,1794.9833501320027,None,1794.9833501320027,None,1,3.0394014900011825,1794.9833501320027,None,1798.0590822879967,None,1798.0590822879967,None,1800.561187539999,None,1800.561187539999,None,0.9001870620049885,1802.363141900998,None,1802.363141900998,None,6,1,0.867960422001488,1803.2494655400005,None,1803.2494655400005,None,1803.2494655400005,None,1804.1339293069977,None,1,0.46762692499760306,1804.1339293069977,None,178,1804.618325565003,None,143,B,1,2021_Jun_01_1814,GazeFlow,2020.1.2,59.88377589065241,
15,Block807.xls,B,7,8,19,19,None,congruent,Left,Left,Right,76,79,3,blue,2,6,/home/docky/apps/exp/images/76B.jpeg,/home/docky/apps/exp/images/79Bi.jpeg,0,14,14,14,0,7,7,7,1805.6201426219995,None,1805.6201426219995,None,1,3.5075861510049435,1805.6201426219995,None,1809.1660886579994,None,1809.1660886579994,None,1811.6647042620025,None,1811.6647042620025,None,0.8663998690026347,1813.4699216489971,None,1813.4699216489971,None,6,1,0.9684782200056361,1814.3209329399979,None,1814.3209329399979,None,1814.3209329399979,None,1815.3055810579972,None,1,0.38453627900162246,1815.3055810579972,None,180,1815.7063019630004,None,143,B,1,2021_Jun_01_1814,GazeFlow,2020.1.2,59.88377589065241,
15,Block807.xls,B,,,,,,,,,,,,,,,,,,0,14,14,14,,,,,,,,,,,,,,,,,,,,,,,,,,,,,,,,,,,,,,,,,,,,143,B,1,2021_Jun_01_1814,GazeFlow,2020.1.2,59.88377589065241,
