Nblock,condsFile,grouping,Block,TrialBlock,N,trialN,trialCond,gazeCon,gazedirR,corrBinR,corrBinP,valLBY,valRBY,diff,colorCube,feedbacktext,corrAns,imageL,imageR,SelBlocks.thisRepN,SelBlocks.thisTrialN,SelBlocks.thisN,SelBlocks.thisIndex,Trials.thisRepN,Trials.thisTrialN,Trials.thisN,Trials.thisIndex,waitCube.started,waitCube.stopped,text_3.started,text_3.stopped,StartKeyPress.keys,StartKeyPress.rt,StartKeyPress.started,StartKeyPress.stopped,StimL.started,StimL.stopped,StimR.started,StimR.stopped,imageStim2L.started,imageStim2L.stopped,imageStim2R.started,imageStim2R.stopped,RTkeyRelease,imageStim3L.started,imageStim3L.stopped,imageStim3R.started,imageStim3R.stopped,dropResp.keys,dropResp.corr,dropResp.rt,dropResp.started,dropResp.stopped,imageStim5L.started,imageStim5L.stopped,imageStim5R.started,imageStim5R.stopped,text_2.started,text_2.stopped,ReturnSpace.keys,ReturnSpace.rt,ReturnSpace.started,ReturnSpace.stopped,totalpoints,textFeedback.started,textFeedback.stopped,participant,group,session,date,expName,psychopyVersion,frameRate,
1,Block502.xls,A,2,1,93,33,22,incongruent,Left,Right,Left,38,35,3,blue,2,5,/home/docky/apps/exp/images/38B.jpeg,/home/docky/apps/exp/images/35Bi.jpeg,0,0,0,0,0,0,0,0,44.31330285599688,None,44.31330285599688,None,1,8.32300800899975,44.31330285599688,None,52.66977915199823,None,52.66977915199823,None,55.184084384003654,None,55.184084384003654,None,0.9658347630029311,56.98940191199654,None,56.98940191199654,None,5,1,1.0184989259869326,57.93689884300693,None,57.93689884300693,None,57.93689884300693,None,58.97176710799977,None,1,1.9706715060019633,58.97176710799977,None,2,60.95888958200521,None,144,A,1,2021_Jun_03_1059,GazeFlow,2020.1.2,59.87480596976808,
1,Block502.xls,A,2,2,42,42,12,congruent,Right,Right,Left,83,80,3,blue,2,5,/home/docky/apps/exp/images/83Bi.jpeg,/home/docky/apps/exp/images/80B.jpeg,0,0,0,0,0,1,1,1,61.96145903800789,None,61.96145903800789,None,1,8.199352641997393,61.96145903800789,None,70.19282352100709,None,70.19282352100709,None,72.69972474100359,None,72.69972474100359,None,0.9331505730078788,74.49571933900006,None,74.49571933900006,None,6,0,1.0514609959936934,75.42107581700839,None,75.42107581700839,None,75.42107581700839,None,76.48927033100335,None,1,1.3860991620022105,76.48927033100335,None,0,77.89182698899822,None,144,A,1,2021_Jun_03_1059,GazeFlow,2020.1.2,59.87480596976808,
1,Block502.xls,A,2,3,9,9,11,congruent,Left,Left,Right,38,39,1,blue,2,6,/home/docky/apps/exp/images/38Bi.jpeg,/home/docky/apps/exp/images/39B.jpeg,0,0,0,0,0,2,2,2,78.8941526330018,None,78.8941526330018,None,1,9.201631848001853,78.8941526330018,None,88.12929517400335,None,88.12929517400335,None,90.63180695500341,None,90.63180695500341,None,1.0830680929939263,92.4364824219956,None,92.4364824219956,None,5,0,1.0514466239983449,93.50611108999874,None,93.50611108999874,None,93.50611108999874,None,94.57426193900756,None,1,1.5031041129986988,94.57426193900756,None,-2,96.09384564899665,None,144,A,1,2021_Jun_03_1059,GazeFlow,2020.1.2,59.87480596976808,
1,Block502.xls,A,2,4,23,23,11,congruent,Left,Left,Right,38,39,1,yellow,2,6,/home/docky/apps/exp/images/38Yi.jpeg,/home/docky/apps/exp/images/39Y.jpeg,0,0,0,0,0,3,3,3,97.0959980290063,None,97.0959980290063,None,1,8.43359804400825,97.0959980290063,None,105.5632908270054,None,105.5632908270054,None,108.06654925200564,None,108.06654925200564,None,1.0168189800024265,109.87135096000566,None,109.87135096000566,None,5,0,1.0014085680013523,110.87325137600419,None,110.87325137600419,None,110.87325137600419,None,111.89123230699624,None,1,1.5530263530090451,111.89123230699624,None,-4,113.46099856500223,None,144,A,1,2021_Jun_03_1059,GazeFlow,2020.1.2,59.87480596976808,
1,Block502.xls,A,2,5,57,57,12,congruent,Right,Right,Left,77,72,5,yellow,2,5,/home/docky/apps/exp/images/77Y.jpeg,/home/docky/apps/exp/images/72Yi.jpeg,0,0,0,0,0,4,4,4,114.46341678300814,None,114.46341678300814,None,1,8.616948916998808,114.46341678300814,None,123.11463784999796,None,123.11463784999796,None,125.61694732299657,None,125.61694732299657,None,1.3342998949956382,127.4208088650048,None,127.4208088650048,None,5,1,1.1522876230010297,128.74131388800743,None,128.74131388800743,None,128.74131388800743,None,129.91011027499917,None,1,1.4694365879986435,129.91011027499917,None,-2,131.396264134004,None,144,A,1,2021_Jun_03_1059,GazeFlow,2020.1.2,59.87480596976808,
1,Block502.xls,A,2,6,118,58,22,incongruent,Left,Right,Left,80,79,1,yellow,2,5,/home/docky/apps/exp/images/80Yi.jpeg,/home/docky/apps/exp/images/79Y.jpeg,0,0,0,0,0,5,5,5,132.39831794600468,None,132.39831794600468,None,1,8.14932255599706,132.39831794600468,None,140.58169928799907,None,140.58169928799907,None,143.08607836799638,None,143.08607836799638,None,1.0335618930112105,144.88813828599814,None,144.88813828599814,None,5,1,1.0348683659976814,145.90789593300724,None,145.90789593300724,None,145.90789593300724,None,146.95943334599724,None,1,1.4028822909895098,146.95943334599724,None,0,148.37910454200755,None,144,A,1,2021_Jun_03_1059,GazeFlow,2020.1.2,59.87480596976808,
1,Block502.xls,A,2,7,101,41,22,incongruent,Left,Right,Left,83,80,3,blue,2,5,/home/docky/apps/exp/images/83Bi.jpeg,/home/docky/apps/exp/images/80B.jpeg,0,0,0,0,0,6,6,6,149.38077500999498,None,149.38077500999498,None,1,8.801050359004876,149.38077500999498,None,158.21619913099858,None,158.21619913099858,None,160.71883990500646,None,160.71883990500646,None,1.15052739699604,162.5169747339969,None,162.5169747339969,None,5,1,1.03474595399166,163.65908780999598,None,163.65908780999598,None,163.65908780999598,None,164.7105059900059,None,1,1.619902466001804,164.7105059900059,None,2,166.34697626100387,None,144,A,1,2021_Jun_03_1059,GazeFlow,2020.1.2,59.87480596976808,
1,Block502.xls,A,2,8,69,9,21,incongruent,Right,Left,Right,73,76,3,blue,2,6,/home/docky/apps/exp/images/73B.jpeg,/home/docky/apps/exp/images/76Bi.jpeg,0,0,0,0,0,7,7,7,167.34947012699558,None,167.34947012699558,None,1,9.00143879299867,167.34947012699558,None,176.38430458700168,None,176.38430458700168,None,178.88773009600118,None,178.88773009600118,None,0.9500091869995231,180.6862954870012,None,180.6862954870012,None,6,1,1.185604180995142,181.6271190779953,None,181.6271190779953,None,181.6271190779953,None,182.8289344000077,None,1,1.6370442860061303,182.8289344000077,None,4,184.48219689099642,None,144,A,1,2021_Jun_03_1059,GazeFlow,2020.1.2,59.87480596976808,
1,Block502.xls,A,,,,,,,,,,,,,,,,,,0,0,0,0,,,,,,,,,,,,,,,,,,,,,,,,,,,,,,,,,,,,,,,,,,,,144,A,1,2021_Jun_03_1059,GazeFlow,2020.1.2,59.87480596976808,
2,Block506.xls,A,6,1,120,60,22,incongruent,Left,Right,Left,80,79,1,yellow,2,5,/home/docky/apps/exp/images/80Yi.jpeg,/home/docky/apps/exp/images/79Y.jpeg,0,1,1,1,0,0,0,0,214.4423422490072,None,214.4423422490072,None,1,7.871035324991681,214.4423422490072,None,222.34054730999924,None,222.34054730999924,None,224.86026459699497,None,224.86026459699497,None,0.8486879669944756,226.65961065900046,None,226.65961065900046,None,6,0,1.20223673399596,227.49961550399894,None,227.49961550399894,None,227.49961550399894,None,228.71813352100435,None,1,1.6700987980002537,228.71813352100435,None,2,230.40496329699818,None,144,A,1,2021_Jun_03_1059,GazeFlow,2020.1.2,59.87480596976808,
2,Block506.xls,A,6,2,51,51,12,congruent,Right,Right,Left,66,65,1,yellow,2,5,/home/docky/apps/exp/images/66Y.jpeg,/home/docky/apps/exp/images/35Bi.jpeg,0,1,1,1,0,1,1,1,231.4065698600025,None,231.4065698600025,None,1,10.721625303005567,231.4065698600025,None,242.16174683900317,None,242.16174683900317,None,244.6652886410011,None,244.6652886410011,None,1.0334517440060154,246.46900456599542,None,246.46900456599542,None,5,1,1.085126146004768,247.48855597199872,None,247.48855597199872,None,247.48855597199872,None,248.59006806000252,None,1,1.6199463700031629,248.59006806000252,None,4,250.2264697089995,None,144,A,1,2021_Jun_03_1059,GazeFlow,2020.1.2,59.87480596976808,
2,Block506.xls,A,6,3,119,59,22,incongruent,Left,Right,Left,80,79,1,yellow,2,5,/home/docky/apps/exp/images/80Y.jpeg,/home/docky/apps/exp/images/79Yi.jpeg,0,1,1,1,0,2,2,2,251.22906184999738,None,251.22906184999738,None,1,8.449837498992565,251.22906184999738,None,259.7126796710072,None,259.7126796710072,None,262.21757164799783,None,262.21757164799783,None,0.9833965610014275,264.02119112999935,None,264.02119112999935,None,5,1,1.068220636996557,264.9891193049989,None,264.9891193049989,None,264.9891193049989,None,266.074096493001,None,1,1.536584318993846,266.074096493001,None,6,267.6270571130008,None,144,A,1,2021_Jun_03_1059,GazeFlow,2020.1.2,59.87480596976808,
2,Block506.xls,A,6,4,28,28,11,congruent,Left,Left,Right,72,77,5,yellow,2,6,/home/docky/apps/exp/images/72Y.jpeg,/home/docky/apps/exp/images/77Yi.jpeg,0,1,1,1,0,3,3,3,268.6300833179994,None,268.6300833179994,None,1,10.018909701000666,268.6300833179994,None,278.6811415310076,None,278.6811415310076,None,281.185912424,None,281.185912424,None,0.8666611420048866,282.98865748800745,None,282.98865748800745,None,6,1,1.1349405679939082,283.8424746689998,None,283.8424746689998,None,283.8424746689998,None,284.99414642099873,None,1,1.3026184499904048,284.99414642099873,None,8,286.31326682900544,None,144,A,1,2021_Jun_03_1059,GazeFlow,2020.1.2,59.87480596976808,
2,Block506.xls,A,6,5,85,25,21,incongruent,Right,Left,Right,69,75,6,yellow,2,6,/home/docky/apps/exp/images/69Y.jpeg,/home/docky/apps/exp/images/76Yi.jpeg,0,1,1,1,0,4,4,4,287.3150066800008,None,287.3150066800008,None,1,9.185928524995688,287.3150066800008,None,296.53437290299917,None,296.53437290299917,None,299.0375317940052,None,299.0375317940052,None,1.0003083670017077,300.84089601000596,None,300.84089601000596,None,6,1,1.085082033998333,301.8273720790021,None,301.8273720790021,None,301.8273720790021,None,302.9288858820073,None,1,1.4695286269998178,302.9288858820073,None,10,304.41538222899544,None,144,A,1,2021_Jun_03_1059,GazeFlow,2020.1.2,59.87480596976808,
2,Block506.xls,A,6,6,71,11,21,incongruent,Right,Left,Right,76,79,3,blue,2,6,/home/docky/apps/exp/images/76B.jpeg,/home/docky/apps/exp/images/79Bi.jpeg,0,1,1,1,0,5,5,5,305.41749281699595,None,305.41749281699595,None,1,8.884619424992707,305.41749281699595,None,314.3355636100023,None,314.3355636100023,None,316.8389073319995,None,316.8389073319995,None,0.9667266329925042,318.63629311199475,None,318.63629311199475,None,6,1,1.151460904002306,319.59589500300353,None,319.59589500300353,None,319.59589500300353,None,320.7634871009941,None,1,1.3529744789993856,320.7634871009941,None,12,322.1329314869945,None,144,A,1,2021_Jun_03_1059,GazeFlow,2020.1.2,59.87480596976808,
2,Block506.xls,A,6,7,56,56,12,congruent,Right,Right,Left,76,69,7,yellow,2,5,/home/docky/apps/exp/images/76Yi.jpeg,/home/docky/apps/exp/images/69Y.jpeg,0,1,1,1,0,6,6,6,323.134760454006,None,323.134760454006,None,1,9.970614624005975,323.134760454006,None,333.1370814690017,None,333.1370814690017,None,335.6447339849983,None,335.6447339849983,None,0.9334452449984383,337.44534544799535,None,337.44534544799535,None,5,1,1.1182717780029634,338.36507022799924,None,338.36507022799924,None,338.36507022799924,None,339.49966133800626,None,1,1.2861626009980682,339.49966133800626,None,14,340.80239253000764,None,144,A,1,2021_Jun_03_1059,GazeFlow,2020.1.2,59.87480596976808,
2,Block506.xls,A,6,8,33,33,12,congruent,Right,Right,Left,38,35,3,blue,2,5,/home/docky/apps/exp/images/38B.jpeg,/home/docky/apps/exp/images/35Bi.jpeg,0,1,1,1,0,7,7,7,341.8048243730009,None,341.8048243730009,None,1,8.066361578996293,341.8048243730009,None,349.904670007003,None,349.904670007003,None,352.4078830750077,None,352.4078830750077,None,0.9165781500050798,354.21296175000316,None,354.21296175000316,None,5,1,1.0518452289979905,355.11429996500374,None,355.11429996500374,None,355.11429996500374,None,356.1822874280042,None,1,1.7033160620048875,356.1822874280042,None,16,357.9025770589942,None,144,A,1,2021_Jun_03_1059,GazeFlow,2020.1.2,59.87480596976808,
2,Block506.xls,A,,,,,,,,,,,,,,,,,,0,1,1,1,,,,,,,,,,,,,,,,,,,,,,,,,,,,,,,,,,,,,,,,,,,,144,A,1,2021_Jun_03_1059,GazeFlow,2020.1.2,59.87480596976808,
3,Block505.xls,A,5,1,1,1,11,congruent,Left,Left,Right,16,19,3,blue,2,6,/home/docky/apps/exp/images/16Bi.jpeg,/home/docky/apps/exp/images/19B.jpeg,0,2,2,2,0,0,0,0,376.5575580779987,None,376.5575580779987,None,1,10.994638213000144,376.5575580779987,None,387.5829822090018,None,387.5829822090018,None,390.0993203389953,None,390.0993203389953,None,0.8656694660021458,391.9029422409949,None,391.9029422409949,None,6,1,1.1019253349950304,392.7539500980056,None,392.7539500980056,None,392.7539500980056,None,393.87230930999795,None,1,1.2190173440030776,393.87230930999795,None,18,395.1080110500043,None,144,A,1,2021_Jun_03_1059,GazeFlow,2020.1.2,59.87480596976808,
3,Block505.xls,A,5,2,10,10,11,congruent,Left,Left,Right,73,76,3,blue,2,6,/home/docky/apps/exp/images/73B.jpeg,/home/docky/apps/exp/images/76Bi.jpeg,0,2,2,2,0,1,1,1,396.1098556979996,None,396.1098556979996,None,1,7.582335093989968,396.1098556979996,None,403.72574154200265,None,403.72574154200265,None,406.2305794480053,None,406.2305794480053,None,0.8662988919968484,408.03426910399867,None,408.03426910399867,None,6,1,1.1348492679971969,408.88536767200276,None,408.88536767200276,None,408.88536767200276,None,410.0368733119976,None,1,1.5701135820127092,410.0368733119976,None,20,411.6232101259957,None,144,A,1,2021_Jun_03_1059,GazeFlow,2020.1.2,59.87480596976808,
3,Block505.xls,A,5,3,95,35,22,incongruent,Left,Right,Left,66,65,1,blue,2,5,/home/docky/apps/exp/images/66B.jpeg,/home/docky/apps/exp/images/35Yi.jpeg,0,2,2,2,0,2,2,2,412.6257796830032,None,412.6257796830032,None,1,8.11587830100325,412.6257796830032,None,420.7756410980073,None,420.7756410980073,None,423.2784320100036,None,423.2784320100036,None,0.9168132560007507,425.0813655730017,None,425.0813655730017,None,5,1,1.151490363990888,425.9852443849959,None,425.9852443849959,None,425.9852443849959,None,427.1534773379972,None,1,1.469681564005441,427.1534773379972,None,22,428.6395901990036,None,144,A,1,2021_Jun_03_1059,GazeFlow,2020.1.2,59.87480596976808,
3,Block505.xls,A,5,4,46,46,12,congruent,Right,Right,Left,35,33,2,yellow,2,5,/home/docky/apps/exp/images/35Yi.jpeg,/home/docky/apps/exp/images/33Y.jpeg,0,2,2,2,0,3,3,3,429.64209526000195,None,429.64209526000195,None,1,9.953270564001286,429.64209526000195,None,439.62859266200394,None,439.62859266200394,None,442.1355761360028,None,442.1355761360028,None,0.7999146729998756,443.93696597300004,None,443.93696597300004,None,5,1,1.0852725810109405,444.72150579400477,None,444.72150579400477,None,444.72150579400477,None,445.8233574890037,None,1,1.4691711989871692,445.8233574890037,None,24,447.309342958004,None,144,A,1,2021_Jun_03_1059,GazeFlow,2020.1.2,59.87480596976808,
3,Block505.xls,A,5,5,78,18,21,incongruent,Right,Left,Right,65,66,1,yellow,2,6,/home/docky/apps/exp/images/35Bi.jpeg,/home/docky/apps/exp/images/66Y.jpeg,0,2,2,2,0,4,4,4,448.3117203639995,None,448.3117203639995,None,1,9.652594238010352,448.3117203639995,None,457.9979356440017,None,457.9979356440017,None,460.504971235001,None,460.504971235001,None,1.0503124009992462,462.3045190240082,None,462.3045190240082,None,6,1,1.1184972580085741,463.3410496370052,None,463.3410496370052,None,463.3410496370052,None,464.476031461003,None,1,1.5696286949969362,464.476031461003,None,26,466.0625537110027,None,144,A,1,2021_Jun_03_1059,GazeFlow,2020.1.2,59.87480596976808,
3,Block505.xls,A,5,6,43,43,12,congruent,Right,Right,Left,83,80,3,blue,2,5,/home/docky/apps/exp/images/83B.jpeg,/home/docky/apps/exp/images/80Bi.jpeg,0,2,2,2,0,5,5,5,467.064674002002,None,467.064674002002,None,1,9.318517837993568,467.064674002002,None,476.4169031019992,None,476.4169031019992,None,478.92168422500254,None,478.92168422500254,None,0.7833540029969299,480.7237881409965,None,480.7237881409965,None,5,1,1.1015200639958493,481.49291932900087,None,481.49291932900087,None,481.49291932900087,None,482.6112928369985,None,1,1.7199542829912389,482.6112928369985,None,28,484.347931412005,None,144,A,1,2021_Jun_03_1059,GazeFlow,2020.1.2,59.87480596976808,
3,Block505.xls,A,5,7,44,44,12,congruent,Right,Right,Left,39,38,1,blue,2,5,/home/docky/apps/exp/images/39Bi.jpeg,/home/docky/apps/exp/images/38B.jpeg,0,2,2,2,0,6,6,6,485.35046051100653,None,485.35046051100653,None,1,11.840222897997592,485.35046051100653,None,497.22396913899865,None,497.22396913899865,None,499.72975060700264,None,499.72975060700264,None,0.7829460679931799,501.5255098549969,None,501.5255098549969,None,5,1,1.1848079149931436,502.3001654410036,None,502.3001654410036,None,502.3001654410036,None,503.50172017500154,None,1,2.221155388004263,503.50172017500154,None,30,505.73937782400753,None,144,A,1,2021_Jun_03_1059,GazeFlow,2020.1.2,59.87480596976808,
3,Block505.xls,A,5,8,116,56,22,incongruent,Left,Right,Left,77,72,5,yellow,2,5,/home/docky/apps/exp/images/77Y.jpeg,/home/docky/apps/exp/images/72Y.jpeg,0,2,2,2,0,7,7,7,506.7418757300038,None,506.7418757300038,None,1,9.318333399001858,506.7418757300038,None,516.0941594949982,None,516.0941594949982,None,518.5974174230068,None,518.5974174230068,None,0.949779242000659,520.400888225995,None,520.400888225995,None,5,1,1.0015707499987911,521.336964039001,None,521.336964039001,None,521.336964039001,None,522.3548843409953,None,1,2.9571285150013864,522.3548843409953,None,32,525.3279101299995,None,144,A,1,2021_Jun_03_1059,GazeFlow,2020.1.2,59.87480596976808,
3,Block505.xls,A,,,,,,,,,,,,,,,,,,0,2,2,2,,,,,,,,,,,,,,,,,,,,,,,,,,,,,,,,,,,,,,,,,,,,144,A,1,2021_Jun_03_1059,GazeFlow,2020.1.2,59.87480596976808,
4,Block509.xls,A,9,1,34,34,12,congruent,Right,Right,Left,38,35,3,blue,2,5,/home/docky/apps/exp/images/38Bi.jpeg,/home/docky/apps/exp/images/35B.jpeg,0,3,3,3,0,0,0,0,544.6000460930081,None,544.6000460930081,None,1,9.273692621005466,544.6000460930081,None,553.9033339290036,None,553.9033339290036,None,556.4223957750073,None,556.4223957750073,None,0.7824690950074,558.2245091579971,None,558.2245091579971,None,5,1,1.1350317899923539,558.9934071320022,None,558.9934071320022,None,558.9934071320022,None,560.1449588100077,None,1,2.3883249369973782,560.1449588100077,None,34,562.549864148008,None,144,A,1,2021_Jun_03_1059,GazeFlow,2020.1.2,59.87480596976808,
4,Block509.xls,A,9,2,7,7,11,congruent,Left,Left,Right,65,66,1,blue,2,6,/home/docky/apps/exp/images/35Yi.jpeg,/home/docky/apps/exp/images/66B.jpeg,0,3,3,3,0,1,1,1,563.5521798830014,None,563.5521798830014,None,1,8.183187089001876,563.5521798830014,None,571.7687611879956,None,571.7687611879956,None,574.2716537219967,None,574.2716537219967,None,0.7997475690062856,576.0769298539963,None,576.0769298539963,None,6,1,1.1349641010019695,576.8614716000011,None,576.8614716000011,None,576.8614716000011,None,578.0132954400033,None,1,1.4360923859931063,578.0132954400033,None,36,579.4657869329967,None,144,A,1,2021_Jun_03_1059,GazeFlow,2020.1.2,59.87480596976808,
4,Block509.xls,A,9,3,74,14,21,incongruent,Right,Left,Right,80,83,3,blue,2,6,/home/docky/apps/exp/images/80B.jpeg,/home/docky/apps/exp/images/83Bi.jpeg,0,3,3,3,0,2,2,2,580.4683547680033,None,580.4683547680033,None,1,8.333475538005587,580.4683547680033,None,588.8351143299951,None,588.8351143299951,None,591.3400448140019,None,591.3400448140019,None,0.8664301440003328,593.1437843470048,None,593.1437843470048,None,6,1,1.1852377479954157,593.9947402380058,None,593.9947402380058,None,593.9947402380058,None,595.1965299610019,None,1,1.5027894049999304,595.1965299610019,None,38,596.716161616001,None,144,A,1,2021_Jun_03_1059,GazeFlow,2020.1.2,59.87480596976808,
4,Block509.xls,A,9,4,19,19,11,congruent,Left,Left,Right,65,66,1,yellow,2,6,/home/docky/apps/exp/images/35Bi.jpeg,/home/docky/apps/exp/images/66Y.jpeg,0,3,3,3,0,3,3,3,597.7183834349999,None,597.7183834349999,None,1,9.134722181988764,597.7183834349999,None,606.8869645899977,None,606.8869645899977,None,609.3897392899962,None,609.3897392899962,None,0.799764628012781,611.1934309750068,None,611.1934309750068,None,6,1,1.1850162839982659,611.9796648530028,None,611.9796648530028,None,611.9796648530028,None,613.1814836010017,None,1,1.9871796669904143,613.1814836010017,None,40,615.185335821996,None,144,A,1,2021_Jun_03_1059,GazeFlow,2020.1.2,59.87480596976808,
4,Block509.xls,A,9,5,60,60,12,congruent,Right,Right,Left,80,79,1,yellow,2,5,/home/docky/apps/exp/images/80Yi.jpeg,/home/docky/apps/exp/images/79Y.jpeg,0,3,3,3,0,4,4,4,616.1876744320034,None,616.1876744320034,None,1,8.650456966992351,616.1876744320034,None,624.871544966998,None,624.871544966998,None,627.380638638002,None,627.380638638002,None,0.8164410839963239,629.1802409289958,None,629.1802409289958,None,6,0,1.218785523000406,629.9811939119973,None,629.9811939119973,None,629.9811939119973,None,631.2166416010004,None,1,1.653237242004252,631.2166416010004,None,38,632.8860531340033,None,144,A,1,2021_Jun_03_1059,GazeFlow,2020.1.2,59.87480596976808,
4,Block509.xls,A,9,6,83,23,21,incongruent,Right,Left,Right,38,39,1,yellow,2,6,/home/docky/apps/exp/images/38Yi.jpeg,/home/docky/apps/exp/images/39Y.jpeg,0,3,3,3,0,5,5,5,633.8886890290014,None,633.8886890290014,None,1,9.452417638996849,633.8886890290014,None,643.3746642140031,None,643.3746642140031,None,645.8781404030015,None,645.8781404030015,None,0.716119079006603,647.6756454809947,None,647.6756454809947,None,6,1,1.118336558007286,648.3837825240043,None,648.3837825240043,None,648.3837825240043,None,649.5185155829968,None,1,1.7033835670008557,649.5185155829968,None,40,651.2386132389947,None,144,A,1,2021_Jun_03_1059,GazeFlow,2020.1.2,59.87480596976808,
4,Block509.xls,A,9,7,4,4,11,congruent,Left,Left,Right,35,38,3,blue,2,6,/home/docky/apps/exp/images/35B.jpeg,/home/docky/apps/exp/images/38Bi.jpeg,0,3,3,3,0,6,6,6,652.2409901149949,None,652.2409901149949,None,1,8.75115336899762,652.2409901149949,None,661.0253054149944,None,661.0253054149944,None,663.5300939519948,None,663.5300939519948,None,0.7997615749918623,665.3320307149988,None,665.3320307149988,None,6,1,1.1015861880005104,666.1182300009968,None,666.1182300009968,None,666.1182300009968,None,667.2364874790073,None,1,1.3025247269979445,667.2364874790073,None,42,668.5555824699986,None,144,A,1,2021_Jun_03_1059,GazeFlow,2020.1.2,59.87480596976808,
4,Block509.xls,A,9,8,24,24,11,congruent,Left,Left,Right,38,39,1,yellow,2,6,/home/docky/apps/exp/images/38Y.jpeg,/home/docky/apps/exp/images/39Yi.jpeg,0,3,3,3,0,7,7,7,669.5573976040032,None,669.5573976040032,None,1,7.732996179998736,669.5573976040032,None,677.3237753730064,None,677.3237753730064,None,679.8271917940001,None,679.8271917940001,None,0.8999862130003748,681.6249668899982,None,681.6249668899982,None,6,1,1.084670650991029,682.5167593759979,None,682.5167593759979,None,682.5167593759979,None,683.6182268819975,None,1,1.9038487159996293,683.6182268819975,None,44,685.538458555995,None,144,A,1,2021_Jun_03_1059,GazeFlow,2020.1.2,59.87480596976808,
4,Block509.xls,A,,,,,,,,,,,,,,,,,,0,3,3,3,,,,,,,,,,,,,,,,,,,,,,,,,,,,,,,,,,,,,,,,,,,,144,A,1,2021_Jun_03_1059,GazeFlow,2020.1.2,59.87480596976808,
5,Block504.xls,A,4,1,11,11,11,congruent,Left,Left,Right,73,76,3,blue,2,6,/home/docky/apps/exp/images/73Bi.jpeg,/home/docky/apps/exp/images/76B.jpeg,0,4,4,4,0,0,0,0,704.7443331660033,None,704.7443331660033,None,1,9.422044959006598,704.7443331660033,None,714.1963639379974,None,714.1963639379974,None,716.7168425370037,None,716.7168425370037,None,1.1665365939988988,718.5141140079941,None,718.5141140079941,None,6,1,1.4031402289983816,719.6721339189971,None,719.6721339189971,None,719.6721339189971,None,721.0913293220074,None,1,1.2856783239985816,721.0913293220074,None,46,722.3938680959982,None,144,A,1,2021_Jun_03_1059,GazeFlow,2020.1.2,59.87480596976808,
5,Block504.xls,A,4,2,87,27,21,incongruent,Right,Left,Right,72,77,5,yellow,2,6,/home/docky/apps/exp/images/72Y.jpeg,/home/docky/apps/exp/images/77Yi.jpeg,0,4,4,4,0,1,1,1,723.3958328860026,None,723.3958328860026,None,1,7.4146647909947205,723.3958328860026,None,730.8443027600006,None,730.8443027600006,None,733.3475576509954,None,733.3475576509954,None,0.9836036299966509,735.1511227989977,None,735.1511227989977,None,6,1,1.1516485390020534,736.1207232300076,None,736.1207232300076,None,736.1207232300076,None,737.2890591239993,None,1,1.3192489599896362,737.2890591239993,None,48,738.6251023369987,None,144,A,1,2021_Jun_03_1059,GazeFlow,2020.1.2,59.87480596976808,
5,Block504.xls,A,4,3,48,48,12,congruent,Right,Right,Left,39,38,1,yellow,2,5,/home/docky/apps/exp/images/39Yi.jpeg,/home/docky/apps/exp/images/38Y.jpeg,0,4,4,4,0,2,2,2,739.6273081230029,None,739.6273081230029,None,1,8.850902747988584,739.6273081230029,None,748.510403428998,None,748.510403428998,None,751.0145563359983,None,751.0145563359983,None,0.8663458849914605,752.8187458869943,None,752.8187458869943,None,5,1,1.085174312000163,753.6713460210012,None,753.6713460210012,None,753.6713460210012,None,754.7731198410038,None,1,1.2694550779997371,754.7731198410038,None,50,756.0585068530054,None,144,A,1,2021_Jun_03_1059,GazeFlow,2020.1.2,59.87480596976808,
5,Block504.xls,A,4,4,38,38,12,congruent,Right,Right,Left,79,73,6,blue,2,5,/home/docky/apps/exp/images/79B.jpeg,/home/docky/apps/exp/images/73Bi.jpeg,0,4,4,4,0,3,3,3,757.060899610995,None,757.060899610995,None,1,9.869896646006964,757.060899610995,None,766.9644244380033,None,766.9644244380033,None,769.4692692870012,None,769.4692692870012,None,0.9999715430021752,771.2727668919979,None,771.2727668919979,None,5,1,1.4191559449973283,772.257656354006,None,772.257656354006,None,772.257656354006,None,773.6935542139981,None,1,1.2020989939919673,773.6935542139981,None,52,774.9118837480055,None,144,A,1,2021_Jun_03_1059,GazeFlow,2020.1.2,59.87480596976808,
5,Block504.xls,A,4,5,2,2,11,congruent,Left,Left,Right,16,19,3,blue,2,6,/home/docky/apps/exp/images/16B.jpeg,/home/docky/apps/exp/images/19Bi.jpeg,0,4,4,4,0,4,4,4,775.914576989002,None,775.914576989002,None,1,8.38357999001164,775.914576989002,None,784.3317322420044,None,784.3317322420044,None,786.836444754008,None,786.836444754008,None,0.9332846949982923,788.6338251609995,None,788.6338251609995,None,6,1,1.1683146949944785,789.5578917149978,None,789.5578917149978,None,789.5578917149978,None,790.7431395239983,None,1,1.3524396720022196,790.7431395239983,None,54,792.1121922029997,None,144,A,1,2021_Jun_03_1059,GazeFlow,2020.1.2,59.87480596976808,
5,Block504.xls,A,4,6,73,13,21,incongruent,Right,Left,Right,80,83,3,blue,2,6,/home/docky/apps/exp/images/80Bi.jpeg,/home/docky/apps/exp/images/83B.jpeg,0,4,4,4,0,5,5,5,793.1146541869966,None,793.1146541869966,None,1,8.133115968012135,793.1146541869966,None,801.2811518850067,None,801.2811518850067,None,803.7858859520056,None,803.7858859520056,None,0.9333207769959699,805.5822455580055,None,805.5822455580055,None,6,1,1.1515877599886153,806.5074300749984,None,806.5074300749984,None,806.5074300749984,None,807.6755402639974,None,1,1.7371039770077914,807.6755402639974,None,56,809.4291737169988,None,144,A,1,2021_Jun_03_1059,GazeFlow,2020.1.2,59.87480596976808,
5,Block504.xls,A,4,7,63,3,21,incongruent,Right,Left,Right,35,38,3,blue,2,6,/home/docky/apps/exp/images/35B.jpeg,/home/docky/apps/exp/images/38Bi.jpeg,0,4,4,4,0,6,6,6,810.4315311639948,None,810.4315311639948,None,1,8.633593095990364,810.4315311639948,None,819.0992876569944,None,819.0992876569944,None,821.6036366390035,None,821.6036366390035,None,0.8667200119962217,823.4056109460071,None,823.4056109460071,None,6,1,1.1856235879968153,824.2584469559952,None,824.2584469559952,None,824.2584469559952,None,825.4606111549947,None,1,1.7035428439994575,825.4606111549947,None,58,827.1800844569952,None,144,A,1,2021_Jun_03_1059,GazeFlow,2020.1.2,59.87480596976808,
5,Block504.xls,A,4,8,86,26,21,incongruent,Right,Left,Right,72,77,5,yellow,2,6,/home/docky/apps/exp/images/72Yi.jpeg,/home/docky/apps/exp/images/77Y.jpeg,0,4,4,4,0,7,7,7,828.1827584760031,None,828.1827584760031,None,1,7.114124497005832,828.1827584760031,None,835.3350967230072,None,835.3350967230072,None,837.8342554389965,None,837.8342554389965,None,0.8831534380005905,839.6310602349986,None,839.6310602349986,None,6,1,1.1514568089914974,840.5067840660049,None,840.5067840660049,None,840.5067840660049,None,841.6748623629974,None,1,1.5699514400039334,841.6748623629974,None,60,843.261488892007,None,144,A,1,2021_Jun_03_1059,GazeFlow,2020.1.2,59.87480596976808,
5,Block504.xls,A,,,,,,,,,,,,,,,,,,0,4,4,4,,,,,,,,,,,,,,,,,,,,,,,,,,,,,,,,,,,,,,,,,,,,144,A,1,2021_Jun_03_1059,GazeFlow,2020.1.2,59.87480596976808,
6,Block511.xls,A,11,1,15,15,11,congruent,Left,Left,Right,80,83,3,blue,2,6,/home/docky/apps/exp/images/80Bi.jpeg,/home/docky/apps/exp/images/83B.jpeg,0,5,5,5,0,0,0,0,861.3298303290067,None,861.3298303290067,None,1,9.65967875799106,861.3298303290067,None,871.0228209339984,None,871.0228209339984,None,873.5423429439979,None,873.5423429439979,None,0.8992681980016641,875.3416346349986,None,875.3416346349986,None,6,1,1.1684827599965502,876.2261629300046,None,876.2261629300046,None,876.2261629300046,None,877.4112855770072,None,1,1.569965183007298,877.4112855770072,None,62,878.997595615001,None,144,A,1,2021_Jun_03_1059,GazeFlow,2020.1.2,59.87480596976808,
6,Block511.xls,A,11,2,105,45,22,incongruent,Left,Right,Left,39,38,1,blue,2,5,/home/docky/apps/exp/images/39Bi.jpeg,/home/docky/apps/exp/images/38B.jpeg,0,5,5,5,0,1,1,1,880.0000318620005,None,880.0000318620005,None,1,8.450790229995619,880.0000318620005,None,888.4839297029976,None,888.4839297029976,None,890.9881442549959,None,890.9881442549959,None,0.8997549259947846,892.790240857008,None,892.790240857008,None,5,1,1.1182615860016085,893.6765621000086,None,893.6765621000086,None,893.6765621000086,None,894.8113869030058,None,1,1.73696451500291,894.8113869030058,None,64,896.5648848419951,None,144,A,1,2021_Jun_03_1059,GazeFlow,2020.1.2,59.87480596976808,
6,Block511.xls,A,11,3,68,8,21,incongruent,Right,Left,Right,38,39,1,blue,2,6,/home/docky/apps/exp/images/38B.jpeg,/home/docky/apps/exp/images/39Bi.jpeg,0,5,5,5,0,2,2,2,897.5680256750056,None,897.5680256750056,None,1,8.916895325994119,897.5680256750056,None,906.5186989530048,None,906.5186989530048,None,909.0215557470074,None,909.0215557470074,None,0.8167669130052673,910.8246615050011,None,910.8246615050011,None,6,1,1.4190870849997737,911.6280973800021,None,911.6280973800021,None,911.6280973800021,None,913.0643663060036,None,1,1.6859795750060584,913.0643663060036,None,66,914.7672083850048,None,144,A,1,2021_Jun_03_1059,GazeFlow,2020.1.2,59.87480596976808,
6,Block511.xls,A,11,4,80,20,21,incongruent,Right,Left,Right,62,65,3,yellow,2,6,/home/docky/apps/exp/images/38Bi.jpeg,/home/docky/apps/exp/images/35B.jpeg,0,5,5,5,0,3,3,3,915.7694210570044,None,915.7694210570044,None,1,9.318447530007688,915.7694210570044,None,925.1217868319945,None,925.1217868319945,None,927.6248080570076,None,927.6248080570076,None,0.9831847180030309,929.4277264249977,None,929.4277264249977,None,6,1,1.1854206720017828,930.3980484829954,None,930.3980484829954,None,930.3980484829954,None,931.6000360360049,None,1,2.220555392996175,931.6000360360049,None,68,933.837463363001,None,144,A,1,2021_Jun_03_1059,GazeFlow,2020.1.2,59.87480596976808,
6,Block511.xls,A,11,5,5,5,11,congruent,Left,Left,Right,65,66,1,blue,2,6,/home/docky/apps/exp/images/35Yi.jpeg,/home/docky/apps/exp/images/66B.jpeg,0,5,5,5,0,4,4,4,934.8397693489969,None,934.8397693489969,None,1,8.567017473993474,934.8397693489969,None,943.4405247800023,None,943.4405247800023,None,945.9432472070039,None,945.9432472070039,None,0.9168077369977254,947.7464440580079,None,947.7464440580079,None,6,1,1.1849157780088717,948.6502616420039,None,948.6502616420039,None,948.6502616420039,None,949.8517807330063,None,1,2.4555039539991412,949.8517807330063,None,70,952.3236046960083,None,144,A,1,2021_Jun_03_1059,GazeFlow,2020.1.2,59.87480596976808,
6,Block511.xls,A,11,6,18,18,11,congruent,Left,Left,Right,65,66,1,yellow,2,6,/home/docky/apps/exp/images/35B.jpeg,/home/docky/apps/exp/images/66Yi.jpeg,0,5,5,5,0,5,5,5,953.3257960030023,None,953.3257960030023,None,1,6.76360104799096,953.3257960030023,None,960.124893678003,None,960.124893678003,None,962.6277355189959,None,962.6277355189959,None,0.9835270859912271,964.4296782599995,None,964.4296782599995,None,6,1,1.0848886939929798,965.3991769429995,None,965.3991769429995,None,965.3991769429995,None,966.5007695980021,None,1,1.7869363909994718,966.5007695980021,None,72,968.304465690002,None,144,A,1,2021_Jun_03_1059,GazeFlow,2020.1.2,59.87480596976808,
6,Block511.xls,A,11,7,25,25,11,congruent,Left,Left,Right,69,75,6,yellow,2,6,/home/docky/apps/exp/images/69Yi.jpeg,/home/docky/apps/exp/images/76Y.jpeg,0,5,5,5,0,6,6,6,969.3066896240052,None,969.3066896240052,None,1,8.817913064995082,969.3066896240052,None,978.1580701579951,None,978.1580701579951,None,980.6606021339976,None,980.6606021339976,None,1.0000526630028617,982.4637214179966,None,982.4637214179966,None,6,1,1.1685914990084711,983.451170786997,None,983.451170786997,None,983.451170786997,None,984.6360392469942,None,1,1.1526005759951659,984.6360392469942,None,74,985.8048611660051,None,144,A,1,2021_Jun_03_1059,GazeFlow,2020.1.2,59.87480596976808,
6,Block511.xls,A,11,8,3,3,11,congruent,Left,Left,Right,35,38,3,blue,2,6,/home/docky/apps/exp/images/35Bi.jpeg,/home/docky/apps/exp/images/38B.jpeg,0,5,5,5,0,7,7,7,986.8068189960031,None,986.8068189960031,None,1,7.782567240996286,986.8068189960031,None,994.6232750199997,None,994.6232750199997,None,997.1263371800014,None,997.1263371800014,None,0.8832419700047467,998.9287844899955,None,998.9287844899955,None,6,1,1.168352150998544,999.7993766520085,None,999.7993766520085,None,999.7993766520085,None,1000.9844743819995,None,1,1.720032480006921,1000.9844743819995,None,76,1002.7211379579967,None,144,A,1,2021_Jun_03_1059,GazeFlow,2020.1.2,59.87480596976808,
6,Block511.xls,A,,,,,,,,,,,,,,,,,,0,5,5,5,,,,,,,,,,,,,,,,,,,,,,,,,,,,,,,,,,,,,,,,,,,,144,A,1,2021_Jun_03_1059,GazeFlow,2020.1.2,59.87480596976808,
7,Block508.xls,A,8,1,13,13,11,congruent,Left,Left,Right,76,79,3,blue,2,6,/home/docky/apps/exp/images/76Bi.jpeg,/home/docky/apps/exp/images/79B.jpeg,0,6,6,6,0,0,0,0,1025.2319627510005,None,1025.2319627510005,None,1,9.255161123001017,1025.2319627510005,None,1034.5188191990019,None,1034.5188191990019,None,1037.038849354998,None,1037.038849354998,None,0.9496224720060127,1038.8257988609985,None,1038.8257988609985,None,6,1,1.2687738810054725,1039.760246018006,None,1039.760246018006,None,1039.760246018006,None,1041.045566989007,None,1,1.5863941739953589,1041.045566989007,None,78,1042.6484504050022,None,144,A,1,2021_Jun_03_1059,GazeFlow,2020.1.2,59.87480596976808,
7,Block508.xls,A,8,2,21,21,11,congruent,Left,Left,Right,62,65,3,yellow,2,6,/home/docky/apps/exp/images/38B.jpeg,/home/docky/apps/exp/images/35Bi.jpeg,0,6,6,6,0,1,1,1,1043.6511448840029,None,1043.6511448840029,None,1,7.481160252005793,1043.6511448840029,None,1051.1646603900008,None,1051.1646603900008,None,1053.6695226559968,None,1053.6695226559968,None,0.8667795159999514,1055.4725215890066,None,1055.4725215890066,None,6,1,1.1517405479971785,1056.3259341899975,None,1056.3259341899975,None,1056.3259341899975,None,1057.4941871290066,None,1,1.2694760750018759,1057.4941871290066,None,80,1058.7799849430012,None,144,A,1,2021_Jun_03_1059,GazeFlow,2020.1.2,59.87480596976808,
7,Block508.xls,A,8,3,99,39,22,incongruent,Left,Right,Left,79,76,3,blue,2,5,/home/docky/apps/exp/images/79Bi.jpeg,/home/docky/apps/exp/images/76B.jpeg,0,6,6,6,0,2,2,2,1059.7825568669941,None,1059.7825568669941,None,1,7.381688394991215,1059.7825568669941,None,1067.1976179930061,None,1067.1976179930061,None,1069.7023781930038,None,1069.7023781930038,None,0.8666337890026625,1071.4996342340019,None,1071.4996342340019,None,5,1,1.1181089329911629,1072.3571694260027,None,1072.3571694260027,None,1072.3571694260027,None,1073.4920071020024,None,1,2.037822831000085,1073.4920071020024,None,82,1075.5461624000018,None,144,A,1,2021_Jun_03_1059,GazeFlow,2020.1.2,59.87480596976808,
7,Block508.xls,A,8,4,37,37,12,congruent,Right,Right,Left,66,65,1,blue,2,5,/home/docky/apps/exp/images/66Bi.jpeg,/home/docky/apps/exp/images/35Y.jpeg,0,6,6,6,0,3,3,3,1076.548336798005,None,1076.548336798005,None,1,8.751133572004619,1076.548336798005,None,1085.3327574930008,None,1085.3327574930008,None,1087.8393442230008,None,1087.8393442230008,None,0.8999964200047543,1089.6343805060023,None,1089.6343805060023,None,6,0,1.0850541050022002,1090.525629655007,None,1090.525629655007,None,1090.525629655007,None,1091.627107096996,None,1,1.2691733969986672,1091.627107096996,None,80,1092.9131065700058,None,144,A,1,2021_Jun_03_1059,GazeFlow,2020.1.2,59.87480596976808,
7,Block508.xls,A,8,5,82,22,21,incongruent,Right,Left,Right,38,39,1,yellow,2,6,/home/docky/apps/exp/images/38Y.jpeg,/home/docky/apps/exp/images/39Yi.jpeg,0,6,6,6,0,4,4,4,1093.915086413006,None,1093.915086413006,None,1,7.932608178991359,1093.915086413006,None,1101.881577207998,None,1101.881577207998,None,1104.3863063970057,None,1104.3863063970057,None,1.00015167001402,1106.190222314006,None,1106.190222314006,None,6,1,1.051574356999481,1107.1745878859947,None,1107.1745878859947,None,1107.1745878859947,None,1108.242700050003,None,1,1.6202733800018905,1108.242700050003,None,82,1109.8794531900057,None,144,A,1,2021_Jun_03_1059,GazeFlow,2020.1.2,59.87480596976808,
7,Block508.xls,A,8,6,104,44,22,incongruent,Left,Right,Left,39,38,1,blue,2,5,/home/docky/apps/exp/images/39B.jpeg,/home/docky/apps/exp/images/38Bi.jpeg,0,6,6,6,0,5,5,5,1110.881668269998,None,1110.881668269998,None,1,7.197502736002207,1110.881668269998,None,1118.1129352169955,None,1118.1129352169955,None,1120.6180973779992,None,1120.6180973779992,None,1.3840872259897878,1122.4195527819975,None,1122.4195527819975,None,5,1,1.819828553008847,1123.790066497997,None,1123.790066497997,None,1123.790066497997,None,1125.626486098001,None,1,1.520041391995619,1125.626486098001,None,84,1127.1626160640008,None,144,A,1,2021_Jun_03_1059,GazeFlow,2020.1.2,59.87480596976808,
7,Block508.xls,A,8,7,39,39,12,congruent,Right,Right,Left,79,73,6,blue,2,5,/home/docky/apps/exp/images/79B.jpeg,/home/docky/apps/exp/images/73Bi.jpeg,0,6,6,6,0,6,6,6,1128.1651598010067,None,1128.1651598010067,None,1,8.299680694995914,1128.1651598010067,None,1136.4986284220067,None,1136.4986284220067,None,1139.0019636180077,None,1139.0019636180077,None,1.0339101999998093,1140.804899737006,None,1140.804899737006,None,5,1,1.0682530170015525,1141.8251759179984,None,1141.8251759179984,None,1141.8251759179984,None,1142.9101872890024,None,1,1.6530946170096286,1142.9101872890024,None,86,1144.5801891830051,None,144,A,1,2021_Jun_03_1059,GazeFlow,2020.1.2,59.87480596976808,
7,Block508.xls,A,8,8,36,36,12,congruent,Right,Right,Left,66,65,1,blue,2,5,/home/docky/apps/exp/images/66B.jpeg,/home/docky/apps/exp/images/35Yi.jpeg,0,6,6,6,0,7,7,7,1145.5824252620077,None,1145.5824252620077,None,1,8.967670519006788,1145.5824252620077,None,1154.5837509319972,None,1154.5837509319972,None,1157.088401882007,None,1157.088401882007,None,1.2507896549941506,1158.8899127610057,None,1158.8899127610057,None,5,1,1.035494893003488,1160.1274256250035,None,1160.1274256250035,None,1160.1274256250035,None,1161.179414526996,None,1,1.1518606530007673,1161.179414526996,None,88,1162.3475722440053,None,144,A,1,2021_Jun_03_1059,GazeFlow,2020.1.2,59.87480596976808,
7,Block508.xls,A,,,,,,,,,,,,,,,,,,0,6,6,6,,,,,,,,,,,,,,,,,,,,,,,,,,,,,,,,,,,,,,,,,,,,144,A,1,2021_Jun_03_1059,GazeFlow,2020.1.2,59.87480596976808,
8,Block510.xls,A,10,1,102,42,22,incongruent,Left,Right,Left,83,80,3,blue,2,5,/home/docky/apps/exp/images/83B.jpeg,/home/docky/apps/exp/images/80Bi.jpeg,0,7,7,7,0,0,0,0,1182.9716650580085,None,1182.9716650580085,None,1,8.655130769999232,1182.9716650580085,None,1191.6533327310026,None,1191.6533327310026,None,1194.1774001949962,None,1194.1774001949962,None,1.5506226279976545,1195.9795668959996,None,1195.9795668959996,None,5,1,1.0354004230030114,1197.5166851800022,None,1197.5166851800022,None,1197.5166851800022,None,1198.568633064002,None,1,1.2856390880042454,1198.568633064002,None,90,1199.8709045529977,None,144,A,1,2021_Jun_03_1059,GazeFlow,2020.1.2,59.87480596976808,
8,Block510.xls,A,10,2,114,54,22,incongruent,Left,Right,Left,76,69,7,yellow,2,5,/home/docky/apps/exp/images/76Yi.jpeg,/home/docky/apps/exp/images/69Y.jpeg,0,7,7,7,0,1,1,1,1200.873078249002,None,1200.873078249002,None,1,9.118042162997881,1200.873078249002,None,1210.023422141996,None,1210.023422141996,None,1212.5298740129947,None,1212.5298740129947,None,0.9667640690022381,1214.333318732999,None,1214.333318732999,None,5,1,1.1013630679954076,1215.284934092997,None,1215.284934092997,None,1215.284934092997,None,1216.402965086003,None,1,1.9371208999946248,1216.402965086003,None,92,1218.3565799350035,None,144,A,1,2021_Jun_03_1059,GazeFlow,2020.1.2,59.87480596976808,
8,Block510.xls,A,10,3,72,12,21,incongruent,Right,Left,Right,76,79,3,blue,2,6,/home/docky/apps/exp/images/76Bi.jpeg,/home/docky/apps/exp/images/79B.jpeg,0,7,7,7,0,2,2,2,1219.3591355440003,None,1219.3591355440003,None,1,10.069682775996625,1219.3591355440003,None,1229.462519460998,None,1229.462519460998,None,1231.9657160049974,None,1231.9657160049974,None,1.1505025980004575,1233.7696463460015,None,1233.7696463460015,None,6,1,1.219208897993667,1234.905980609008,None,1234.905980609008,None,1234.905980609008,None,1236.1417120219994,None,1,1.0686694260075456,1236.1417120219994,None,94,1237.226903873001,None,144,A,1,2021_Jun_03_1059,GazeFlow,2020.1.2,59.87480596976808,
8,Block510.xls,A,10,4,112,52,22,incongruent,Left,Right,Left,75,69,6,yellow,2,5,/home/docky/apps/exp/images/76Y.jpeg,/home/docky/apps/exp/images/69Yi.jpeg,0,7,7,7,0,3,3,3,1238.228659704997,None,1238.228659704997,None,1,7.7324678389995825,1238.228659704997,None,1245.994910309004,None,1245.994910309004,None,1248.4977205869945,None,1248.4977205869945,None,0.9166739089996554,1250.3010868130077,None,1250.3010868130077,None,5,1,1.0680995370057644,1251.204440654008,None,1251.204440654008,None,1251.204440654008,None,1252.2893742199958,None,1,1.7199208209931385,1252.2893742199958,None,96,1254.0261338580021,None,144,A,1,2021_Jun_03_1059,GazeFlow,2020.1.2,59.87480596976808,
8,Block510.xls,A,10,5,17,17,11,congruent,Left,Left,Right,33,35,2,yellow,2,6,/home/docky/apps/exp/images/33Y.jpeg,/home/docky/apps/exp/images/35Yi.jpeg,0,7,7,7,0,4,4,4,1255.0283513680042,None,1255.0283513680042,None,1,8.166688657001941,1255.0283513680042,None,1263.2285122299945,None,1263.2285122299945,None,1265.7330899679946,None,1265.7330899679946,None,1.6846455500053708,1267.5292971849995,None,1267.5292971849995,None,6,1,1.2360067840054398,1269.2062183399976,None,1269.2062183399976,None,1269.2062183399976,None,1270.4583805889997,None,1,1.653127965008025,1270.4583805889997,None,98,1272.1282322129991,None,144,A,1,2021_Jun_03_1059,GazeFlow,2020.1.2,59.87480596976808,
8,Block510.xls,A,10,6,31,31,12,congruent,Right,Right,Left,19,16,3,blue,2,5,/home/docky/apps/exp/images/19Bi.jpeg,/home/docky/apps/exp/images/16B.jpeg,0,7,7,7,0,5,5,5,1273.1302294439956,None,1273.1302294439956,None,1,7.966067943008966,1273.1302294439956,None,1281.1295190810051,None,1281.1295190810051,None,1283.6329739799985,None,1283.6329739799985,None,0.8332010740123224,1285.4359301460063,None,1285.4359301460063,None,5,1,1.085061470992514,1286.255657257003,None,1286.255657257003,None,1286.255657257003,None,1287.3574582529982,None,1,1.9040045500005363,1287.3574582529982,None,100,1289.2776817569975,None,144,A,1,2021_Jun_03_1059,GazeFlow,2020.1.2,59.87480596976808,
8,Block510.xls,A,10,7,61,1,21,incongruent,Right,Left,Right,16,19,3,blue,2,6,/home/docky/apps/exp/images/16Bi.jpeg,/home/docky/apps/exp/images/19B.jpeg,0,7,7,7,0,6,6,6,1290.2802316460002,None,1290.2802316460002,None,1,8.700971925005433,1290.2802316460002,None,1299.016844843005,None,1299.016844843005,None,1301.517567199,None,1301.517567199,None,1.083873745999881,1303.3210698740004,None,1303.3210698740004,None,6,1,1.235996579998755,1304.391099814995,None,1304.391099814995,None,1304.391099814995,None,1305.643414377002,None,1,1.2186285570060136,1305.643414377002,None,102,1306.8786654779979,None,144,A,1,2021_Jun_03_1059,GazeFlow,2020.1.2,59.87480596976808,
8,Block510.xls,A,10,8,94,34,22,incongruent,Left,Right,Left,38,35,3,blue,2,5,/home/docky/apps/exp/images/38Bi.jpeg,/home/docky/apps/exp/images/35B.jpeg,0,7,7,7,0,7,7,7,1307.8809193000052,None,1307.8809193000052,None,1,7.064086098995176,1307.8809193000052,None,1314.9787295220012,None,1314.9787295220012,None,1317.483512050996,None,1317.483512050996,None,0.9329379570117453,1319.2850530989963,None,1319.2850530989963,None,5,1,1.4357337499968708,1320.2053090940026,None,1320.2053090940026,None,1320.2053090940026,None,1321.6577489740012,None,1,2.2721445110073546,1321.6577489740012,None,104,1323.945206763994,None,144,A,1,2021_Jun_03_1059,GazeFlow,2020.1.2,59.87480596976808,
8,Block510.xls,A,,,,,,,,,,,,,,,,,,0,7,7,7,,,,,,,,,,,,,,,,,,,,,,,,,,,,,,,,,,,,,,,,,,,,144,A,1,2021_Jun_03_1059,GazeFlow,2020.1.2,59.87480596976808,
9,Block507.xls,A,7,1,110,50,22,incongruent,Left,Right,Left,66,65,1,yellow,2,5,/home/docky/apps/exp/images/66Y.jpeg,/home/docky/apps/exp/images/35Bi.jpeg,0,8,8,8,0,0,0,0,1354.8247931509977,None,1354.8247931509977,None,1,11.307954795993282,1354.8247931509977,None,1366.1629661509942,None,1366.1629661509942,None,1368.681649774997,None,1368.681649774997,None,0.8993958339997334,1370.4849098429986,None,1370.4849098429986,None,5,1,1.1017400790005922,1371.3713234280003,None,1371.3713234280003,None,1371.3713234280003,None,1372.4893709409953,None,1,1.1691284870030358,1372.4893709409953,None,106,1373.6752424910082,None,144,A,1,2021_Jun_03_1059,GazeFlow,2020.1.2,59.87480596976808,
9,Block507.xls,A,7,2,90,30,22,incongruent,Right,Left,Right,16,19,3,blue,2,6,/home/docky/apps/exp/images/16Bi.jpeg,/home/docky/apps/exp/images/19B.jpeg,0,8,8,8,0,1,1,1,1374.6770968399942,None,1374.6770968399942,None,1,8.250244656010182,1374.6770968399942,None,1382.9610159940057,None,1382.9610159940057,None,1385.464145267004,None,1385.464145267004,None,1.1339071850088658,1387.2676208000048,None,1387.2676208000048,None,6,1,1.553771920996951,1388.3874263409962,None,1388.3874263409962,None,1388.3874263409962,None,1389.9572257350083,None,1,1.3522060069954023,1389.9572257350083,None,108,1391.3262471240014,None,144,A,1,2021_Jun_03_1059,GazeFlow,2020.1.2,59.87480596976808,
9,Block507.xls,A,7,3,16,16,11,congruent,Left,Left,Right,33,35,2,yellow,2,6,/home/docky/apps/exp/images/33Yi.jpeg,/home/docky/apps/exp/images/35Y.jpeg,0,8,8,8,0,2,2,2,1392.3285592580069,None,1392.3285592580069,None,1,7.230921106005553,1392.3285592580069,None,1399.5932814749976,None,1399.5932814749976,None,1402.0958102360019,None,1402.0958102360019,None,0.8163877750048414,1403.8984945039992,None,1403.8984945039992,None,6,1,1.3355143269873224,1404.7027487040032,None,1404.7027487040032,None,1404.7027487040032,None,1406.0547726410005,None,1,1.1190652730001602,1406.0547726410005,None,110,1407.1902084690082,None,144,A,1,2021_Jun_03_1059,GazeFlow,2020.1.2,59.87480596976808,
9,Block507.xls,A,7,4,117,57,22,incongruent,Left,Right,Left,77,72,5,yellow,2,5,/home/docky/apps/exp/images/77Y.jpeg,/home/docky/apps/exp/images/72Yi.jpeg,0,8,8,8,0,3,3,3,1408.1928926330002,None,1408.1928926330002,None,1,9.535702102002688,1408.1928926330002,None,1417.7619630469999,None,1417.7619630469999,None,1420.2651887380052,None,1420.2651887380052,None,0.799898312005098,1422.0685290770052,None,1422.0685290770052,None,5,1,1.1182044769957429,1422.8546151150076,None,1422.8546151150076,None,1422.8546151150076,None,1423.9895095620013,None,1,1.73686708000605,1423.9895095620013,None,112,1425.7430622300017,None,144,A,1,2021_Jun_03_1059,GazeFlow,2020.1.2,59.87480596976808,
9,Block507.xls,A,7,5,53,53,12,congruent,Right,Right,Left,75,69,6,yellow,2,5,/home/docky/apps/exp/images/76Yi.jpeg,/home/docky/apps/exp/images/69Y.jpeg,0,8,8,8,0,4,4,4,1426.745321208,None,1426.745321208,None,1,8.08314448899182,1426.745321208,None,1434.8618866140023,None,1434.8618866140023,None,1437.3647022560035,None,1437.3647022560035,None,1.01696585600439,1439.1699053229968,None,1439.1699053229968,None,5,1,1.101920119006536,1440.1715228350076,None,1440.1715228350076,None,1440.1715228350076,None,1441.2899945170066,None,1,1.068705489000422,1441.2899945170066,None,114,1442.375245674004,None,144,A,1,2021_Jun_03_1059,GazeFlow,2020.1.2,59.87480596976808,
9,Block507.xls,A,7,6,96,36,22,incongruent,Left,Right,Left,66,65,1,blue,2,5,/home/docky/apps/exp/images/66Bi.jpeg,/home/docky/apps/exp/images/35Y.jpeg,0,8,8,8,0,5,5,5,1443.3772509929986,None,1443.3772509929986,None,1,7.598835914002848,1443.3772509929986,None,1451.009339516997,None,1451.009339516997,None,1453.5129458320007,None,1453.5129458320007,None,1.2339309779927135,1455.3162275700015,None,1455.3162275700015,None,5,1,1.7031488500069827,1456.5365841029998,None,1456.5365841029998,None,1456.5365841029998,None,1458.2560165869945,None,1,1.486531834001653,1458.2560165869945,None,116,1459.7596081100055,None,144,A,1,2021_Jun_03_1059,GazeFlow,2020.1.2,59.87480596976808,
9,Block507.xls,A,7,7,58,58,12,congruent,Right,Right,Left,77,72,5,yellow,2,5,/home/docky/apps/exp/images/77Yi.jpeg,/home/docky/apps/exp/images/72Y.jpeg,0,8,8,8,0,6,6,6,1460.7614806290076,None,1460.7614806290076,None,1,6.797274042997742,1460.7614806290076,None,1467.5921036219952,None,1467.5921036219952,None,1470.0950018430012,None,1470.0950018430012,None,0.8830601140070939,1471.8982998499996,None,1471.8982998499996,None,5,1,1.135074968013214,1472.768283618003,None,1472.768283618003,None,1472.768283618003,None,1473.9202416369953,None,1,1.4359564299957128,1473.9202416369953,None,118,1475.3726926560048,None,144,A,1,2021_Jun_03_1059,GazeFlow,2020.1.2,59.87480596976808,
9,Block507.xls,A,7,8,41,41,12,congruent,Right,Right,Left,79,76,3,blue,2,5,/home/docky/apps/exp/images/79Bi.jpeg,/home/docky/apps/exp/images/76B.jpeg,0,8,8,8,0,7,7,7,1476.3749000670068,None,1476.3749000670068,None,1,7.565205842998694,1476.3749000670068,None,1483.9741313770064,None,1483.9741313770064,None,1486.478597786001,None,1486.478597786001,None,0.9664482480002334,1488.2822509959951,None,1488.2822509959951,None,5,1,1.10167237900896,1489.233617467995,None,1489.233617467995,None,1489.233617467995,None,1490.3518234259973,None,1,1.3360768850106979,1490.3518234259973,None,120,1491.7047071720008,None,144,A,1,2021_Jun_03_1059,GazeFlow,2020.1.2,59.87480596976808,
9,Block507.xls,A,,,,,,,,,,,,,,,,,,0,8,8,8,,,,,,,,,,,,,,,,,,,,,,,,,,,,,,,,,,,,,,,,,,,,144,A,1,2021_Jun_03_1059,GazeFlow,2020.1.2,59.87480596976808,
10,Block515.xls,A,15,1,107,47,22,incongruent,Left,Right,Left,35,33,2,yellow,2,5,/home/docky/apps/exp/images/35Yi.jpeg,/home/docky/apps/exp/images/33Y.jpeg,0,9,9,9,0,0,0,0,1514.2668609179964,None,1514.2668609179964,None,1,8.808805107997614,1514.2668609179964,None,1523.0957917339983,None,1523.0957917339983,None,1525.6215457259968,None,1525.6215457259968,None,0.8993611519981641,1527.4252103199979,None,1527.4252103199979,None,5,1,1.2353782830032287,1528.3094547200017,None,1528.3094547200017,None,1528.3094547200017,None,1529.5613700289978,None,1,1.9539745840011165,1529.5613700289978,None,122,1531.5315537660063,None,144,A,1,2021_Jun_03_1059,GazeFlow,2020.1.2,59.87480596976808,
10,Block515.xls,A,15,2,55,55,12,congruent,Right,Right,Left,76,69,7,yellow,2,5,/home/docky/apps/exp/images/76Yi.jpeg,/home/docky/apps/exp/images/69Y.jpeg,0,9,9,9,0,1,1,1,1532.534286643,None,1532.534286643,None,1,6.580090759001905,1532.534286643,None,1539.1478296380083,None,1539.1478296380083,None,1541.650400493003,None,1541.650400493003,None,0.8831600950070424,1543.4536489540042,None,1543.4536489540042,None,5,1,1.1016802039957838,1544.3239068529947,None,1544.3239068529947,None,1544.3239068529947,None,1545.4423557020054,None,1,1.9038830839999719,1545.4423557020054,None,124,1547.3625145510014,None,144,A,1,2021_Jun_03_1059,GazeFlow,2020.1.2,59.87480596976808,
10,Block515.xls,A,15,3,75,15,21,incongruent,Right,Left,Right,33,35,2,yellow,2,6,/home/docky/apps/exp/images/33Yi.jpeg,/home/docky/apps/exp/images/35Y.jpeg,0,9,9,9,0,2,2,2,1548.365043029,None,1548.365043029,None,1,8.416587353989598,1548.365043029,None,1556.8154873089952,None,1556.8154873089952,None,1559.3187093680026,None,1559.3187093680026,None,0.9000225349882385,1561.1220761709992,None,1561.1220761709992,None,6,1,1.3351046229945496,1562.0086509510002,None,1562.0086509510002,None,1562.0086509510002,None,1563.360905206995,None,1,1.2686573400133057,1563.360905206995,None,126,1564.646056344005,None,144,A,1,2021_Jun_03_1059,GazeFlow,2020.1.2,59.87480596976808,
10,Block515.xls,A,15,4,62,2,21,incongruent,Right,Left,Right,35,38,3,blue,2,6,/home/docky/apps/exp/images/35Bi.jpeg,/home/docky/apps/exp/images/38B.jpeg,0,9,9,9,0,3,3,3,1565.6484401439957,None,1565.6484401439957,None,1,6.396149188993149,1565.6484401439957,None,1572.0778825409943,None,1572.0778825409943,None,1574.5807870179997,None,1574.5807870179997,None,0.9331456079962663,1576.3848856469995,None,1576.3848856469995,None,6,1,1.1350193599937484,1577.3047898950026,None,1577.3047898950026,None,1577.3047898950026,None,1578.4563049139979,None,1,1.51982232699811,1578.4563049139979,None,128,1579.9928123169957,None,144,A,1,2021_Jun_03_1059,GazeFlow,2020.1.2,59.87480596976808,
10,Block515.xls,A,15,5,100,40,22,incongruent,Left,Right,Left,79,76,3,blue,2,5,/home/docky/apps/exp/images/79Bi.jpeg,/home/docky/apps/exp/images/76B.jpeg,0,9,9,9,0,4,4,4,1580.9951817020046,None,1580.9951817020046,None,1,7.631973695999477,1580.9951817020046,None,1588.6606815650011,None,1588.6606815650011,None,1591.165438023003,None,1591.165438023003,None,0.8828748180094408,1592.9676272789948,None,1592.9676272789948,None,5,1,1.0345696289878106,1593.8369149759965,None,1593.8369149759965,None,1593.8369149759965,None,1594.8882253680058,None,1,1.419725207000738,1594.8882253680058,None,130,1596.3244218220061,None,144,A,1,2021_Jun_03_1059,GazeFlow,2020.1.2,59.87480596976808,
10,Block515.xls,A,15,6,108,48,22,incongruent,Left,Right,Left,39,38,1,yellow,2,5,/home/docky/apps/exp/images/39Y.jpeg,/home/docky/apps/exp/images/38Yi.jpeg,0,9,9,9,0,5,5,5,1597.3265198269946,None,1597.3265198269946,None,1,8.299991646999842,1597.3265198269946,None,1605.6581101970078,None,1605.6581101970078,None,1608.1632453710045,None,1608.1632453710045,None,0.8498437009984627,1609.9671721299965,None,1609.9671721299965,None,5,1,1.168264318999718,1610.8035566049948,None,1610.8035566049948,None,1610.8035566049948,None,1611.988280029007,None,1,1.3025286399933975,1611.988280029007,None,132,1613.3075791980082,None,144,A,1,2021_Jun_03_1059,GazeFlow,2020.1.2,59.87480596976808,
10,Block515.xls,A,15,7,59,59,12,congruent,Right,Right,Left,80,79,1,yellow,2,5,/home/docky/apps/exp/images/80Y.jpeg,/home/docky/apps/exp/images/79Yi.jpeg,0,9,9,9,0,6,6,6,1614.3097953980032,None,1614.3097953980032,None,1,7.248123175013461,1614.3097953980032,None,1621.5957717880083,None,1621.5957717880083,None,1624.094765058995,None,1624.094765058995,None,0.8835569780057995,1625.8974765169987,None,1625.8974765169987,None,5,1,1.1686167400039267,1626.767317995007,None,1626.767317995007,None,1626.767317995007,None,1627.9523536880006,None,1,1.7535407060058787,1627.9523536880006,None,134,1629.7227953719994,None,144,A,1,2021_Jun_03_1059,GazeFlow,2020.1.2,59.87480596976808,
10,Block515.xls,A,15,8,8,8,11,congruent,Left,Left,Right,38,39,1,blue,2,6,/home/docky/apps/exp/images/38B.jpeg,/home/docky/apps/exp/images/39Bi.jpeg,0,9,9,9,0,7,7,7,1630.7250134189962,None,1630.7250134189962,None,1,6.5297448269993765,1630.7250134189962,None,1637.2852872689982,None,1637.2852872689982,None,1639.7914274719951,None,1639.7914274719951,None,0.8998948140069842,1641.5893820909987,None,1641.5893820909987,None,6,1,1.2857052350009326,1642.4813006019976,None,1642.4813006019976,None,1642.4813006019976,None,1643.7833049760084,None,1,1.0354055850039003,1643.7833049760084,None,136,1644.835348212,None,144,A,1,2021_Jun_03_1059,GazeFlow,2020.1.2,59.87480596976808,
10,Block515.xls,A,,,,,,,,,,,,,,,,,,0,9,9,9,,,,,,,,,,,,,,,,,,,,,,,,,,,,,,,,,,,,,,,,,,,,144,A,1,2021_Jun_03_1059,GazeFlow,2020.1.2,59.87480596976808,
11,Block512.xls,A,12,1,30,30,11,congruent,Left,Left,Right,79,82,3,yellow,2,6,/home/docky/apps/exp/images/79Yi.jpeg,/home/docky/apps/exp/images/80Y.jpeg,0,10,10,10,0,0,0,0,1665.007979557995,None,1665.007979557995,None,1,8.891062214010162,1665.007979557995,None,1673.9337598200073,None,1673.9337598200073,None,1676.4479531810066,None,1676.4479531810066,None,0.9330345479975222,1678.2513124990073,None,1678.2513124990073,None,6,1,1.1514844530029222,1679.1693599459977,None,1679.1693599459977,None,1679.1693599459977,None,1680.3375485520082,None,1,1.3530773029924603,1680.3375485520082,None,138,1681.7070036789955,None,144,A,1,2021_Jun_03_1059,GazeFlow,2020.1.2,59.87480596976808,
11,Block512.xls,A,12,2,115,55,22,incongruent,Left,Right,Left,76,69,7,yellow,2,5,/home/docky/apps/exp/images/76Yi.jpeg,/home/docky/apps/exp/images/69Y.jpeg,0,10,10,10,0,1,1,1,1682.7093393810064,None,1682.7093393810064,None,1,6.312592223999673,1682.7093393810064,None,1689.055725740007,None,1689.055725740007,None,1691.5586308320053,None,1691.5586308320053,None,0.9163039679988287,1693.3626479109953,None,1693.3626479109953,None,5,1,1.101730623995536,1694.2653660030046,None,1694.2653660030046,None,1694.2653660030046,None,1695.383516382004,None,1,1.7204820509941783,1695.383516382004,None,140,1697.1204249550065,None,144,A,1,2021_Jun_03_1059,GazeFlow,2020.1.2,59.87480596976808,
11,Block512.xls,A,12,3,66,6,21,incongruent,Right,Left,Right,38,39,1,blue,2,6,/home/docky/apps/exp/images/38B.jpeg,/home/docky/apps/exp/images/39Bi.jpeg,0,10,10,10,0,2,2,2,1698.1225290449947,None,1698.1225290449947,None,1,6.964432948996546,1698.1225290449947,None,1705.1203180160082,None,1705.1203180160082,None,1707.6249023880082,None,1707.6249023880082,None,1.00006893700629,1709.4268302919954,None,1709.4268302919954,None,6,1,1.2351794369897107,1710.4132928640029,None,1710.4132928640029,None,1710.4132928640029,None,1711.6652598890068,None,1,1.4694413840043126,1711.6652598890068,None,142,1713.1513970749947,None,144,A,1,2021_Jun_03_1059,GazeFlow,2020.1.2,59.87480596976808,
11,Block512.xls,A,12,4,35,35,12,congruent,Right,Right,Left,66,65,1,blue,2,5,/home/docky/apps/exp/images/66B.jpeg,/home/docky/apps/exp/images/35Yi.jpeg,0,10,10,10,0,3,3,3,1714.153845629,None,1714.153845629,None,1,6.6298116730031325,1714.153845629,None,1720.8175369480014,None,1720.8175369480014,None,1723.3257521339983,None,1723.3257521339983,None,0.9667538840003544,1725.1231753720058,None,1725.1231753720058,None,5,1,1.1182129829976475,1726.0770930129947,None,1726.0770930129947,None,1726.0770930129947,None,1727.2123837249965,None,1,1.5529637730069226,1727.2123837249965,None,144,1728.7816555250029,None,144,A,1,2021_Jun_03_1059,GazeFlow,2020.1.2,59.87480596976808,
11,Block512.xls,A,12,5,40,40,12,congruent,Right,Right,Left,79,76,3,blue,2,5,/home/docky/apps/exp/images/79Bi.jpeg,/home/docky/apps/exp/images/76B.jpeg,0,10,10,10,0,4,4,4,1729.7841960719961,None,1729.7841960719961,None,1,7.7656817929964745,1729.7841960719961,None,1737.5832957069942,None,1737.5832957069942,None,1740.0865595960058,None,1740.0865595960058,None,0.8667304669943405,1741.8895314550027,None,1741.8895314550027,None,5,1,1.0517801319947466,1742.7428177959955,None,1742.7428177959955,None,1742.7428177959955,None,1743.8107827560016,None,1,1.5032081509998534,1743.8107827560016,None,146,1745.3303968539985,None,144,A,1,2021_Jun_03_1059,GazeFlow,2020.1.2,59.87480596976808,
11,Block512.xls,A,12,6,64,4,21,incongruent,Right,Left,Right,65,66,1,blue,2,6,/home/docky/apps/exp/images/35Yi.jpeg,/home/docky/apps/exp/images/66B.jpeg,0,10,10,10,0,5,5,5,1746.3327259149955,None,1746.3327259149955,None,1,7.565647298004478,1746.3327259149955,None,1753.931620260002,None,1753.931620260002,None,1756.4364661699947,None,1756.4364661699947,None,0.8831524599954719,1758.2381959560007,None,1758.2381959560007,None,6,1,1.6032923649909208,1759.1078053670062,None,1759.1078053670062,None,1759.1078053670062,None,1760.7274174430058,None,1,1.7030822709930362,1760.7274174430058,None,148,1762.4470288610028,None,144,A,1,2021_Jun_03_1059,GazeFlow,2020.1.2,59.87480596976808,
11,Block512.xls,A,12,7,12,12,11,congruent,Left,Left,Right,76,79,3,blue,2,6,/home/docky/apps/exp/images/76B.jpeg,/home/docky/apps/exp/images/79Bi.jpeg,0,10,10,10,0,6,6,6,1763.4496160370036,None,1763.4496160370036,None,1,6.813891710000462,1763.4496160370036,None,1770.296766939995,None,1770.296766939995,None,1772.8001110180048,None,1772.8001110180048,None,1.067087758987327,1774.5982530390029,None,1774.5982530390029,None,6,1,1.0851237919996493,1775.656641745998,None,1775.656641745998,None,1775.656641745998,None,1776.7581632820074,None,1,1.26946960100031,1776.7581632820074,None,150,1778.0444482260064,None,144,A,1,2021_Jun_03_1059,GazeFlow,2020.1.2,59.87480596976808,
11,Block512.xls,A,12,8,49,49,12,congruent,Right,Right,Left,39,38,1,yellow,2,5,/home/docky/apps/exp/images/39Y.jpeg,/home/docky/apps/exp/images/38Yi.jpeg,0,10,10,10,0,7,7,7,1779.0461924800038,None,1779.0461924800038,None,1,8.667436775998794,1779.0461924800038,None,1787.7472965589986,None,1787.7472965589986,None,1790.250274428996,None,1790.250274428996,None,1.0833794499922078,1792.0540994430048,None,1792.0540994430048,None,5,1,1.1515439850045368,1793.1238529969996,None,1793.1238529969996,None,1793.1238529969996,None,1794.2921687950002,None,1,2.6727108679915546,1794.2921687950002,None,152,1796.9812382249947,None,144,A,1,2021_Jun_03_1059,GazeFlow,2020.1.2,59.87480596976808,
11,Block512.xls,A,,,,,,,,,,,,,,,,,,0,10,10,10,,,,,,,,,,,,,,,,,,,,,,,,,,,,,,,,,,,,,,,,,,,,144,A,1,2021_Jun_03_1059,GazeFlow,2020.1.2,59.87480596976808,
12,Block503.xls,A,3,1,22,22,11,congruent,Left,Left,Right,62,65,3,yellow,2,6,/home/docky/apps/exp/images/38Bi.jpeg,/home/docky/apps/exp/images/35B.jpeg,0,11,11,11,0,0,0,0,1817.2706332249945,None,1817.2706332249945,None,1,8.95543044101214,1817.2706332249945,None,1826.2562273250078,None,1826.2562273250078,None,1828.777140295002,None,1828.777140295002,None,1.0325793429947225,1830.5567455060082,None,1830.5567455060082,None,6,1,1.1683834589930484,1831.5820864069974,None,1831.5820864069974,None,1831.5820864069974,None,1832.7669379699946,None,1,1.3027894620026927,1832.7669379699946,None,154,1834.086242528996,None,144,A,1,2021_Jun_03_1059,GazeFlow,2020.1.2,59.87480596976808,
12,Block503.xls,A,3,2,65,5,21,incongruent,Right,Left,Right,65,66,1,blue,2,6,/home/docky/apps/exp/images/35Y.jpeg,/home/docky/apps/exp/images/66Bi.jpeg,0,11,11,11,0,1,1,1,1835.0887351499987,None,1835.0887351499987,None,1,7.047320678990218,1835.0887351499987,None,1842.169868308003,None,1842.169868308003,None,1844.6720701220038,None,1844.6720701220038,None,0.9167733439971926,1846.476116182006,None,1846.476116182006,None,5,0,1.0014532569912262,1847.3791998649976,None,1847.3791998649976,None,1847.3791998649976,None,1848.3973585009953,None,1,1.2024259489990072,1848.3973585009953,None,152,1849.6165164020058,None,144,A,1,2021_Jun_03_1059,GazeFlow,2020.1.2,59.87480596976808,
12,Block503.xls,A,3,3,76,16,21,incongruent,Right,Left,Right,33,35,2,yellow,2,6,/home/docky/apps/exp/images/33Y.jpeg,/home/docky/apps/exp/images/35Yi.jpeg,0,11,11,11,0,2,2,2,1850.6188065919996,None,1850.6188065919996,None,1,9.035029969003517,1850.6188065919996,None,1859.6872739760001,None,1859.6872739760001,None,1862.1916748619988,None,1862.1916748619988,None,1.067269157996634,1863.9935977249988,None,1863.9935977249988,None,6,1,1.0683523460029392,1865.0469469060045,None,1865.0469469060045,None,1865.0469469060045,None,1866.1317638559995,None,1,1.402614785998594,1866.1317638559995,None,154,1867.551461213996,None,144,A,1,2021_Jun_03_1059,GazeFlow,2020.1.2,59.87480596976808,
12,Block503.xls,A,3,4,29,29,11,congruent,Left,Left,Right,79,82,3,yellow,2,6,/home/docky/apps/exp/images/79Y.jpeg,/home/docky/apps/exp/images/80Yi.jpeg,0,11,11,11,0,3,3,3,1868.5538012790057,None,1868.5538012790057,None,1,6.980421754997224,1868.5538012790057,None,1875.5680723380065,None,1875.5680723380065,None,1878.0711712759949,None,1878.0711712759949,None,0.8832142380124424,1879.874252855996,None,1879.874252855996,None,6,1,1.0684269570047036,1880.744214323,None,1880.744214323,None,1880.744214323,None,1881.8290700869984,None,1,1.2026532749878243,1881.8290700869984,None,156,1883.048040779002,None,144,A,1,2021_Jun_03_1059,GazeFlow,2020.1.2,59.87480596976808,
12,Block503.xls,A,3,5,103,43,22,incongruent,Left,Right,Left,39,38,1,blue,2,5,/home/docky/apps/exp/images/39Bi.jpeg,/home/docky/apps/exp/images/38B.jpeg,0,11,11,11,0,4,4,4,1884.0503861280013,None,1884.0503861280013,None,1,6.880397925997386,1884.0503861280013,None,1890.9646240800066,None,1890.9646240800066,None,1893.4692757209996,None,1893.4692757209996,None,0.9498911150003551,1895.2703488380066,None,1895.2703488380066,None,5,1,1.118300795002142,1896.2076231429965,None,1896.2076231429965,None,1896.2076231429965,None,1897.3422811049968,None,1,1.6202591299952473,1897.3422811049968,None,158,1898.979119608004,None,144,A,1,2021_Jun_03_1059,GazeFlow,2020.1.2,59.87480596976808,
12,Block503.xls,A,3,6,47,47,12,congruent,Right,Right,Left,35,33,2,yellow,2,5,/home/docky/apps/exp/images/35Yi.jpeg,/home/docky/apps/exp/images/33Y.jpeg,0,11,11,11,0,5,5,5,1899.9810909310036,None,1899.9810909310036,None,1,8.417497581001953,1899.9810909310036,None,1908.4317620560032,None,1908.4317620560032,None,1910.9350921250007,None,1910.9350921250007,None,1.51790871299454,1912.7396698619996,None,1912.7396698619996,None,5,1,1.1854661199904513,1914.2427389329969,None,1914.2427389329969,None,1914.2427389329969,None,1915.4447310899996,None,1,1.3855466450040694,1915.4447310899996,None,160,1916.8471490869997,None,144,A,1,2021_Jun_03_1059,GazeFlow,2020.1.2,59.87480596976808,
12,Block503.xls,A,3,7,20,20,11,congruent,Left,Left,Right,65,66,1,yellow,2,6,/home/docky/apps/exp/images/35Bi.jpeg,/home/docky/apps/exp/images/66Y.jpeg,0,11,11,11,0,6,6,6,1917.849429727008,None,1917.849429727008,None,1,7.916072093998082,1917.849429727008,None,1925.7990795140067,None,1925.7990795140067,None,1928.303765374003,None,1928.303765374003,None,0.9500911770010134,1930.1051860220032,None,1930.1051860220032,None,6,1,1.4528047089988831,1931.0418195719976,None,1931.0418195719976,None,1931.0418195719976,None,1932.511225989001,None,1,1.4359125419869088,1932.511225989001,None,162,1933.9634172689985,None,144,A,1,2021_Jun_03_1059,GazeFlow,2020.1.2,59.87480596976808,
12,Block503.xls,A,3,8,27,27,11,congruent,Left,Left,Right,72,77,5,yellow,2,6,/home/docky/apps/exp/images/72Yi.jpeg,/home/docky/apps/exp/images/77Y.jpeg,0,11,11,11,0,7,7,7,1934.966150157008,None,1934.966150157008,None,1,7.464659375997144,1934.966150157008,None,1942.4622753220028,None,1942.4622753220028,None,1944.9674059499957,None,1944.9674059499957,None,0.9498735219967784,1946.7726672910067,None,1946.7726672910067,None,6,1,1.2346641600015573,1947.7082013409963,None,1947.7082013409963,None,1947.7082013409963,None,1948.959640867004,None,1,1.5695415899972431,1948.959640867004,None,164,1950.545911527006,None,144,A,1,2021_Jun_03_1059,GazeFlow,2020.1.2,59.87480596976808,
12,Block503.xls,A,,,,,,,,,,,,,,,,,,0,11,11,11,,,,,,,,,,,,,,,,,,,,,,,,,,,,,,,,,,,,,,,,,,,,144,A,1,2021_Jun_03_1059,GazeFlow,2020.1.2,59.87480596976808,
13,Block501.xls,A,1,1,54,54,12,congruent,Right,Right,Left,75,69,6,yellow,2,5,/home/docky/apps/exp/images/76Y.jpeg,/home/docky/apps/exp/images/69Yi.jpeg,0,12,12,12,0,0,0,0,1970.8524518600025,None,1970.8524518600025,None,1,6.904634735008585,1970.8524518600025,None,1977.7811756919982,None,1977.7811756919982,None,1980.3047502539994,None,1980.3047502539994,None,3.354718379006954,1982.1062589079957,None,1982.1062589079957,None,5,1,1.117783273992245,1985.4648907039955,None,1985.4648907039955,None,1985.4648907039955,None,1986.5992607759981,None,1,1.5539048000064213,1986.5992607759981,None,166,1988.1694839150005,None,144,A,1,2021_Jun_03_1059,GazeFlow,2020.1.2,59.87480596976808,
13,Block501.xls,A,1,2,70,10,21,incongruent,Right,Left,Right,73,76,3,blue,2,6,/home/docky/apps/exp/images/73Bi.jpeg,/home/docky/apps/exp/images/76B.jpeg,0,12,12,12,0,1,1,1,1989.171390575997,None,1989.171390575997,None,1,7.447910248010885,1989.171390575997,None,1996.651609338005,None,1996.651609338005,None,1999.1556897289993,None,1999.1556897289993,None,2.637177666008938,2000.959995830999,None,2000.959995830999,None,6,1,1.1673429570073495,2003.6003314539994,None,2003.6003314539994,None,2003.6003314539994,None,2004.7844526679983,None,1,1.4704105400014669,2004.7844526679983,None,168,2006.271269970006,None,144,A,1,2021_Jun_03_1059,GazeFlow,2020.1.2,59.87480596976808,
13,Block501.xls,A,1,3,84,24,21,incongruent,Right,Left,Right,69,76,7,yellow,2,6,/home/docky/apps/exp/images/69Yi.jpeg,/home/docky/apps/exp/images/76Y.jpeg,0,12,12,12,0,2,2,2,2007.2730750699993,None,2007.2730750699993,None,1,7.932912107993616,2007.2730750699993,None,2015.2392561610031,None,2015.2392561610031,None,2017.742842542997,None,2017.742842542997,None,2.8375746499950765,2019.540228001002,None,2019.540228001002,None,6,1,1.0845095020049484,2022.3865327149979,None,2022.3865327149979,None,2022.3865327149979,None,2023.4877224509983,None,1,1.3197194450040115,2023.4877224509983,None,170,2024.8239366630005,None,144,A,1,2021_Jun_03_1059,GazeFlow,2020.1.2,59.87480596976808,
13,Block501.xls,A,1,4,26,26,11,congruent,Left,Left,Right,69,75,6,yellow,2,6,/home/docky/apps/exp/images/69Y.jpeg,/home/docky/apps/exp/images/76Yi.jpeg,0,12,12,12,0,3,3,3,2025.8260684870038,None,2025.8260684870038,None,1,7.330893085003481,2025.8260684870038,None,2033.1904576990055,None,2033.1904576990055,None,2035.6936413130024,None,2035.6936413130024,None,0.9669682329986244,2037.4922539580002,None,2037.4922539580002,None,6,1,1.03501294599846,2038.4504958440084,None,2038.4504958440084,None,2038.4504958440084,None,2039.5021017810068,None,1,1.8531873329920927,2039.5021017810068,None,172,2041.3722535630077,None,144,A,1,2021_Jun_03_1059,GazeFlow,2020.1.2,59.87480596976808,
13,Block501.xls,A,1,5,97,37,22,incongruent,Left,Right,Left,79,73,6,blue,2,5,/home/docky/apps/exp/images/79B.jpeg,/home/docky/apps/exp/images/73Bi.jpeg,0,12,12,12,0,4,4,4,2042.3746389599983,None,2042.3746389599983,None,1,7.715270361004514,2042.3746389599983,None,2050.128933262007,None,2050.128933262007,None,2052.6285214719974,None,2052.6285214719974,None,0.9669867240008898,2054.429933338004,None,2054.429933338004,None,5,1,1.18547431800107,2055.383402210995,None,2055.383402210995,None,2055.383402210995,None,2056.585808029995,None,1,1.4356176769942977,2056.585808029995,None,174,2058.038315197002,None,144,A,1,2021_Jun_03_1059,GazeFlow,2020.1.2,59.87480596976808,
13,Block501.xls,A,1,6,98,38,22,incongruent,Left,Right,Left,79,73,6,blue,2,5,/home/docky/apps/exp/images/79B.jpeg,/home/docky/apps/exp/images/73Bi.jpeg,0,12,12,12,0,5,5,5,2059.0405089889973,None,2059.0405089889973,None,1,7.698980706991279,2059.0405089889973,None,2066.774295110008,None,2066.774295110008,None,2069.2772995459964,None,2069.2772995459964,None,1.0669929360010428,2071.079132466999,None,2071.079132466999,None,5,1,1.1182957580022048,2072.1325659949944,None,2072.1325659949944,None,2072.1325659949944,None,2073.267745956997,None,1,1.6531919990084134,2073.267745956997,None,176,2074.9375371170026,None,144,A,1,2021_Jun_03_1059,GazeFlow,2020.1.2,59.87480596976808,
13,Block501.xls,A,1,7,77,17,21,incongruent,Right,Left,Right,65,66,1,yellow,2,6,/home/docky/apps/exp/images/35B.jpeg,/home/docky/apps/exp/images/66Yi.jpeg,0,12,12,12,0,6,6,6,2075.939896362004,None,2075.939896362004,None,1,7.34780257800594,2075.939896362004,None,2083.321569697,None,2083.321569697,None,2085.8245750450005,None,2085.8245750450005,None,1.0168932429951383,2087.622557046998,None,2087.622557046998,None,5,0,1.201926812005695,2088.6314303359977,None,2088.6314303359977,None,2088.6314303359977,None,2089.8499682770052,None,1,1.4693380769895157,2089.8499682770052,None,174,2091.335767790006,None,144,A,1,2021_Jun_03_1059,GazeFlow,2020.1.2,59.87480596976808,
13,Block501.xls,A,1,8,50,50,12,congruent,Right,Right,Left,66,65,1,yellow,2,5,/home/docky/apps/exp/images/66Y.jpeg,/home/docky/apps/exp/images/35Bi.jpeg,0,12,12,12,0,7,7,7,2092.3384187000047,None,2092.3384187000047,None,1,7.598996287008049,2092.3384187000047,None,2099.970562306,None,2099.970562306,None,2102.4732844060054,None,2102.4732844060054,None,0.8332359070045641,2104.2766994050035,None,2104.2766994050035,None,5,1,1.0681744169996819,2105.096688277001,None,2105.096688277001,None,2105.096688277001,None,2106.181659148002,None,1,1.1020538660086459,2106.181659148002,None,176,2107.300702448003,None,144,A,1,2021_Jun_03_1059,GazeFlow,2020.1.2,59.87480596976808,
13,Block501.xls,A,,,,,,,,,,,,,,,,,,0,12,12,12,,,,,,,,,,,,,,,,,,,,,,,,,,,,,,,,,,,,,,,,,,,,144,A,1,2021_Jun_03_1059,GazeFlow,2020.1.2,59.87480596976808,
14,Block513.xls,A,13,1,32,32,12,congruent,Right,Right,Left,19,16,3,blue,2,5,/home/docky/apps/exp/images/19B.jpeg,/home/docky/apps/exp/images/16Bi.jpeg,0,13,13,13,0,0,0,0,2131.497767413006,None,2131.497767413006,None,1,7.502212931009126,2131.497767413006,None,2139.0252661289996,None,2139.0252661289996,None,2141.5511213220016,None,2141.5511213220016,None,1.149816186996759,2143.3365612909984,None,2143.3365612909984,None,5,1,1.1692013129941188,2144.4732353360014,None,2144.4732353360014,None,2144.4732353360014,None,2145.6586123010056,None,1,1.3358129889966222,2145.6586123010056,None,178,2147.010672164004,None,144,A,1,2021_Jun_03_1059,GazeFlow,2020.1.2,59.87480596976808,
14,Block513.xls,A,13,2,81,21,21,incongruent,Right,Left,Right,38,39,1,yellow,2,6,/home/docky/apps/exp/images/38Yi.jpeg,/home/docky/apps/exp/images/39Y.jpeg,0,13,13,13,0,1,1,1,2148.013148729995,None,2148.013148729995,None,1,7.031147993999184,2148.013148729995,None,2155.0760624179966,None,2155.0760624179966,None,2157.5825288920023,None,2157.5825288920023,None,0.966006300994195,2159.3861088010017,None,2159.3861088010017,None,5,0,1.218543958995724,2160.3372517030075,None,2160.3372517030075,None,2160.3372517030075,None,2161.5722417780053,None,1,1.2024997700063977,2161.5722417780053,None,176,2162.7915799500042,None,144,A,1,2021_Jun_03_1059,GazeFlow,2020.1.2,59.87480596976808,
14,Block513.xls,A,13,3,92,32,22,incongruent,Left,Right,Left,19,16,3,blue,2,5,/home/docky/apps/exp/images/19B.jpeg,/home/docky/apps/exp/images/16Bi.jpeg,0,13,13,13,0,2,2,2,2163.7937493930076,None,2163.7937493930076,None,1,6.914413636011886,2163.7937493930076,None,2170.741277566005,None,2170.741277566005,None,2173.2441540080035,None,2173.2441540080035,None,1.1836533280002186,2175.0480261850025,None,2175.0480261850025,None,5,1,1.1013793289894238,2176.2181123939954,None,2176.2181123939954,None,2176.2181123939954,None,2177.336545426995,None,1,1.469381457005511,2177.336545426995,None,178,2178.8225309300033,None,144,A,1,2021_Jun_03_1059,GazeFlow,2020.1.2,59.87480596976808,
14,Block513.xls,A,13,4,6,6,11,congruent,Left,Left,Right,65,66,1,blue,2,6,/home/docky/apps/exp/images/35Y.jpeg,/home/docky/apps/exp/images/66Bi.jpeg,0,13,13,13,0,3,3,3,2179.824683415005,None,2179.824683415005,None,1,6.279441225997289,2179.824683415005,None,2186.137801115008,None,2186.137801115008,None,2188.6412345620047,None,2188.6412345620047,None,1.8850954969966551,2190.4457900989946,None,2190.4457900989946,None,5,0,1.0353890719998162,2192.316231570003,None,2192.316231570003,None,2192.316231570003,None,2193.367695630004,None,1,1.0017820420034695,2193.367695630004,None,176,2194.386078209005,None,144,A,1,2021_Jun_03_1059,GazeFlow,2020.1.2,59.87480596976808,
14,Block513.xls,A,13,5,67,7,21,incongruent,Right,Left,Right,38,39,1,blue,2,6,/home/docky/apps/exp/images/38Bi.jpeg,/home/docky/apps/exp/images/39B.jpeg,0,13,13,13,0,4,4,4,2195.388540911008,None,2195.388540911008,None,1,7.949004067006172,2195.388540911008,None,2203.3712610140064,None,2203.3712610140064,None,2205.874725222995,None,2205.874725222995,None,1.0669612269994104,2207.667083057997,None,2207.667083057997,None,5,0,1.2189460249937838,2208.731202634008,None,2208.731202634008,None,2208.731202634008,None,2209.966706681007,None,1,1.4025594499980798,2209.966706681007,None,174,2211.385795641996,None,144,A,1,2021_Jun_03_1059,GazeFlow,2020.1.2,59.87480596976808,
14,Block513.xls,A,13,6,111,51,22,incongruent,Left,Right,Left,66,65,1,yellow,2,5,/home/docky/apps/exp/images/66Yi.jpeg,/home/docky/apps/exp/images/35B.jpeg,0,13,13,13,0,5,5,5,2212.3883054930047,None,2212.3883054930047,None,1,7.331629667998641,2212.3883054930047,None,2219.753187205002,None,2219.753187205002,None,2222.2565988599963,None,2222.2565988599963,None,1.768243206999614,2224.0590505489963,None,2224.0590505489963,None,6,0,1.1526222730026348,2225.8145269219967,None,2225.8145269219967,None,2225.8145269219967,None,2226.9832482990023,None,1,1.0684912180004176,2226.9832482990023,None,172,2228.068474241998,None,144,A,1,2021_Jun_03_1059,GazeFlow,2020.1.2,59.87480596976808,
14,Block513.xls,A,13,7,88,28,21,incongruent,Right,Left,Right,79,82,3,yellow,2,6,/home/docky/apps/exp/images/79Y.jpeg,/home/docky/apps/exp/images/80Yi.jpeg,0,13,13,13,0,6,6,6,2229.0706363960053,None,2229.0706363960053,None,1,6.530095451002126,2229.0706363960053,None,2235.6341396920034,None,2235.6341396920034,None,2238.1389058399945,None,2238.1389058399945,None,1.0502511619997676,2239.9408317100024,None,2239.9408317100024,None,6,1,1.1181997189996764,2240.9774439299945,None,2240.9774439299945,None,2240.9774439299945,None,2242.1121253589954,None,1,1.1689795359998243,2242.1121253589954,None,174,2243.297941755998,None,144,A,1,2021_Jun_03_1059,GazeFlow,2020.1.2,59.87480596976808,
14,Block513.xls,A,13,8,14,14,11,congruent,Left,Left,Right,80,83,3,blue,2,6,/home/docky/apps/exp/images/80B.jpeg,/home/docky/apps/exp/images/83Bi.jpeg,0,13,13,13,0,7,7,7,2244.2999920160073,None,2244.2999920160073,None,1,6.796972326003015,2244.2999920160073,None,2251.130229525006,None,2251.130229525006,None,2253.635787759995,None,2253.635787759995,None,1.150445416002185,2255.4364264540054,None,2255.4364264540054,None,6,1,1.0347850190009922,2256.5743834909954,None,2256.5743834909954,None,2256.5743834909954,None,2257.6256600339984,None,1,1.0852172379964031,2257.6256600339984,None,176,2258.727701783995,None,144,A,1,2021_Jun_03_1059,GazeFlow,2020.1.2,59.87480596976808,
14,Block513.xls,A,,,,,,,,,,,,,,,,,,0,13,13,13,,,,,,,,,,,,,,,,,,,,,,,,,,,,,,,,,,,,,,,,,,,,144,A,1,2021_Jun_03_1059,GazeFlow,2020.1.2,59.87480596976808,
15,Block514.xls,A,14,1,113,53,22,incongruent,Left,Right,Left,75,69,6,yellow,2,5,/home/docky/apps/exp/images/76Y.jpeg,/home/docky/apps/exp/images/69Yi.jpeg,0,14,14,14,0,0,0,0,2304.667352956996,None,2304.667352956996,None,1,7.588449492002837,2304.667352956996,None,2312.285384766001,None,2312.285384766001,None,2314.802796600008,None,2314.802796600008,None,0.9327268210035982,2316.6009389310057,None,2316.6009389310057,None,5,1,1.0683394859952386,2317.5258858190064,None,2317.5258858190064,None,2317.5258858190064,None,2318.6106886449998,None,1,1.1858006719994592,2318.6106886449998,None,178,2319.8131105420034,None,144,A,1,2021_Jun_03_1059,GazeFlow,2020.1.2,59.87480596976808,
15,Block514.xls,A,14,2,45,45,12,congruent,Right,Right,Left,39,38,1,blue,2,5,/home/docky/apps/exp/images/39B.jpeg,/home/docky/apps/exp/images/38Bi.jpeg,0,14,14,14,0,1,1,1,2320.8151440380025,None,2320.8151440380025,None,1,8.500603587002843,2320.8151440380025,None,2329.349271058003,None,2329.349271058003,None,2331.852250922995,None,2331.852250922995,None,1.4005565279949224,2333.650605335002,None,2333.650605335002,None,5,1,1.319911503000185,2335.043224602996,None,2335.043224602996,None,2335.043224602996,None,2336.3790778429975,None,1,1.3688897819956765,2336.3790778429975,None,180,2337.7646013500053,None,144,A,1,2021_Jun_03_1059,GazeFlow,2020.1.2,59.87480596976808,
15,Block514.xls,A,14,3,52,52,12,congruent,Right,Right,Left,75,69,6,yellow,2,5,/home/docky/apps/exp/images/76Y.jpeg,/home/docky/apps/exp/images/69Yi.jpeg,0,14,14,14,0,2,2,2,2338.766941024005,None,2338.766941024005,None,1,6.964333602998522,2338.766941024005,None,2345.764580848001,None,2345.764580848001,None,2348.2693889240036,None,2348.2693889240036,None,0.9831187630043132,2350.071768274007,None,2350.071768274007,None,5,1,1.001262075995328,2351.0410670120036,None,2351.0410670120036,None,2351.0410670120036,None,2352.0588234430033,None,1,1.4865845919994172,2352.0588234430033,None,182,2353.561925381,None,144,A,1,2021_Jun_03_1059,GazeFlow,2020.1.2,59.87480596976808,
15,Block514.xls,A,14,4,106,46,22,incongruent,Left,Right,Left,35,33,2,yellow,2,5,/home/docky/apps/exp/images/35Yi.jpeg,/home/docky/apps/exp/images/33Y.jpeg,0,14,14,14,0,3,3,3,2354.564514890997,None,2354.564514890997,None,1,7.197901491002995,2354.564514890997,None,2361.792923097004,None,2361.792923097004,None,2364.2983754580055,None,2364.2983754580055,None,1.0169375319965184,2366.102065807994,None,2366.102065807994,None,5,1,1.1186091089912225,2367.1054590580025,None,2367.1054590580025,None,2367.1054590580025,None,2368.240729311001,None,1,1.3523663689993555,2368.240729311001,None,184,2369.609968912002,None,144,A,1,2021_Jun_03_1059,GazeFlow,2020.1.2,59.87480596976808,
15,Block514.xls,A,14,5,109,49,22,incongruent,Left,Right,Left,39,38,1,yellow,2,5,/home/docky/apps/exp/images/39Yi.jpeg,/home/docky/apps/exp/images/38Y.jpeg,0,14,14,14,0,4,4,4,2370.612359628998,None,2370.612359628998,None,1,7.014626479998697,2370.612359628998,None,2377.6599773299968,None,2377.6599773299968,None,2380.162726249997,None,2380.162726249997,None,0.9833619919954799,2381.9664693259983,None,2381.9664693259983,None,5,1,1.151710379999713,2382.9363808479975,None,2382.9363808479975,None,2382.9363808479975,None,2384.1047420469986,None,1,1.1188210359978257,2384.1047420469986,None,186,2385.2401215779973,None,144,A,1,2021_Jun_03_1059,GazeFlow,2020.1.2,59.87480596976808,
15,Block514.xls,A,14,6,89,29,21,incongruent,Right,Left,Right,79,82,3,yellow,2,6,/home/docky/apps/exp/images/79Yi.jpeg,/home/docky/apps/exp/images/80Y.jpeg,0,14,14,14,0,5,5,5,2386.2425186809996,None,2386.2425186809996,None,1,8.366961624997202,2386.2425186809996,None,2394.6430599129963,None,2394.6430599129963,None,2397.147257193006,None,2397.147257193006,None,0.883455139992293,2398.9492104609963,None,2398.9492104609963,None,6,1,1.1353265759971691,2399.8190098490013,None,2399.8190098490013,None,2399.8190098490013,None,2400.970667746995,None,1,0.9686984569998458,2400.970667746995,None,188,2401.9559124429943,None,144,A,1,2021_Jun_03_1059,GazeFlow,2020.1.2,59.87480596976808,
15,Block514.xls,A,14,7,91,31,22,incongruent,Left,Right,Left,19,16,3,blue,2,5,/home/docky/apps/exp/images/19Bi.jpeg,/home/docky/apps/exp/images/16B.jpeg,0,14,14,14,0,6,6,6,2402.957995368997,None,2402.957995368997,None,1,8.099712031995296,2402.957995368997,None,2411.0897587899963,None,2411.0897587899963,None,2413.5947218430083,None,2413.5947218430083,None,0.8163907190028112,2415.397922381002,None,2415.397922381002,None,5,1,1.084933780002757,2416.2008968900045,None,2416.2008968900045,None,2416.2008968900045,None,2417.3026031119953,None,1,1.002546653005993,2417.3026031119953,None,190,2418.3211665349954,None,144,A,1,2021_Jun_03_1059,GazeFlow,2020.1.2,59.87480596976808,
15,Block514.xls,A,14,8,79,19,21,incongruent,Right,Left,Right,62,65,3,yellow,2,6,/home/docky/apps/exp/images/38B.jpeg,/home/docky/apps/exp/images/35Bi.jpeg,0,14,14,14,0,7,7,7,2419.3231508150056,None,2419.3231508150056,None,1,8.61737126200751,2419.3231508150056,None,2427.9740648730076,None,2427.9740648730076,None,2430.4792668589944,None,2430.4792668589944,None,0.8498660280019976,2432.280563221997,None,2432.280563221997,None,6,1,1.2685653480002657,2433.117000926999,None,2433.117000926999,None,2433.117000926999,None,2434.4023991529975,None,1,1.1855507509899326,2434.4023991529975,None,192,2435.604691860004,None,144,A,1,2021_Jun_03_1059,GazeFlow,2020.1.2,59.87480596976808,
15,Block514.xls,A,,,,,,,,,,,,,,,,,,0,14,14,14,,,,,,,,,,,,,,,,,,,,,,,,,,,,,,,,,,,,,,,,,,,,144,A,1,2021_Jun_03_1059,GazeFlow,2020.1.2,59.87480596976808,
