Nblock,condsFile,grouping,Block,TrialBlock,N,trialN,trialCond,gazeCon,gazedirR,corrBinR,corrBinP,valLBY,valRBY,diff,colorCube,feedbacktext,corrAns,imageL,imageR,SelBlocks.thisRepN,SelBlocks.thisTrialN,SelBlocks.thisN,SelBlocks.thisIndex,Trials.thisRepN,Trials.thisTrialN,Trials.thisN,Trials.thisIndex,waitCube.started,waitCube.stopped,text_3.started,text_3.stopped,StartKeyPress.keys,StartKeyPress.rt,StartKeyPress.started,StartKeyPress.stopped,StimL.started,StimL.stopped,StimR.started,StimR.stopped,imageStim2L.started,imageStim2L.stopped,imageStim2R.started,imageStim2R.stopped,RTkeyRelease,imageStim3L.started,imageStim3L.stopped,imageStim3R.started,imageStim3R.stopped,dropResp.keys,dropResp.corr,dropResp.rt,dropResp.started,dropResp.stopped,imageStim5L.started,imageStim5L.stopped,imageStim5R.started,imageStim5R.stopped,text_2.started,text_2.stopped,ReturnSpace.keys,ReturnSpace.rt,ReturnSpace.started,ReturnSpace.stopped,totalpoints,textFeedback.started,textFeedback.stopped,participant,group,session,date,expName,psychopyVersion,frameRate,
1,Block502.xls,A,2,1,93,33,22,incongruent,Left,Right,Left,38,35,3,blue,2,5,/home/docky/apps/exp/images/38B.jpeg,/home/docky/apps/exp/images/35Bi.jpeg,0,0,0,0,0,0,0,0,52.00896230500075,None,52.00896230500075,None,1,4.046304915013025,52.00896230500075,None,56.086574803994154,None,56.086574803994154,None,58.604012693991535,None,58.604012693991535,None,0.832678931998089,60.4070969769964,None,60.4070969769964,None,5,1,0.7007247329893289,61.22372137999628,None,61.22372137999628,None,61.22372137999628,None,61.94115617999341,None,1,0.7845732459973078,61.94115617999341,None,2,62.74254812899744,None,145,A,1,2021_Jun_03_1452,GazeFlow,2020.1.2,59.76122307598574,
1,Block502.xls,A,2,2,42,42,12,congruent,Right,Right,Left,83,80,3,blue,2,5,/home/docky/apps/exp/images/83Bi.jpeg,/home/docky/apps/exp/images/80B.jpeg,0,0,0,0,0,1,1,1,63.744670603991835,None,63.744670603991835,None,1,3.958230520991492,63.744670603991835,None,67.73891409799398,None,67.73891409799398,None,70.24017606799316,None,70.24017606799316,None,0.8327874620008515,72.04347881699505,None,72.04347881699505,None,6,0,0.801338574005058,72.8626988469914,None,72.8626988469914,None,72.8626988469914,None,73.68060930399224,None,1,0.7355374560138443,73.68060930399224,None,0,74.43241749999288,None,145,A,1,2021_Jun_03_1452,GazeFlow,2020.1.2,59.76122307598574,
1,Block502.xls,A,2,3,9,9,11,congruent,Left,Left,Right,38,39,1,blue,2,6,/home/docky/apps/exp/images/38Bi.jpeg,/home/docky/apps/exp/images/39B.jpeg,0,0,0,0,0,2,2,2,75.43372196199198,None,75.43372196199198,None,1,4.777326772993547,75.43372196199198,None,80.2441637479933,None,80.2441637479933,None,82.74739869499172,None,82.74739869499172,None,1.1335327620035969,84.55069960698893,None,84.55069960698893,None,5,0,0.6841685290128225,85.67087034799624,None,85.67087034799624,None,85.67087034799624,None,86.37173750599322,None,1,0.6356284000066807,86.37173750599322,None,-2,87.0234294969996,None,145,A,1,2021_Jun_03_1452,GazeFlow,2020.1.2,59.76122307598574,
1,Block502.xls,A,2,4,23,23,11,congruent,Left,Left,Right,38,39,1,yellow,2,6,/home/docky/apps/exp/images/38Yi.jpeg,/home/docky/apps/exp/images/39Y.jpeg,0,0,0,0,0,3,3,3,88.02497702499386,None,88.02497702499386,None,1,4.626771654991899,88.02497702499386,None,92.68462120200275,None,92.68462120200275,None,95.18817413199577,None,95.18817413199577,None,0.8164060340059223,96.9918126679986,None,96.9918126679986,None,6,1,0.8177889700018568,97.79458248599258,None,97.79458248599258,None,97.79458248599258,None,98.6288878100022,None,1,0.5846231020113919,98.6288878100022,None,0,99.23008049299824,None,145,A,1,2021_Jun_03_1452,GazeFlow,2020.1.2,59.76122307598574,
1,Block502.xls,A,2,5,57,57,12,congruent,Right,Right,Left,77,72,5,yellow,2,5,/home/docky/apps/exp/images/77Y.jpeg,/home/docky/apps/exp/images/72Yi.jpeg,0,0,0,0,0,4,4,4,100.23215683799936,None,100.23215683799936,None,1,4.142107829000452,100.23215683799936,None,104.40772453400132,None,104.40772453400132,None,106.91123851700104,None,106.91123851700104,None,0.9499789760011481,108.7141829369939,None,108.7141829369939,None,5,1,1.6357268449937692,109.65101731500181,None,109.65101731500181,None,109.65101731500181,None,111.30388482900162,None,1,0.8350527389993658,111.30388482900162,None,2,112.1552866580023,None,145,A,1,2021_Jun_03_1452,GazeFlow,2020.1.2,59.76122307598574,
1,Block502.xls,A,2,6,118,58,22,incongruent,Left,Right,Left,80,79,1,yellow,2,5,/home/docky/apps/exp/images/80Yi.jpeg,/home/docky/apps/exp/images/79Y.jpeg,0,0,0,0,0,5,5,5,113.15731194599357,None,113.15731194599357,None,1,4.876534030001494,113.15731194599357,None,118.06773510300263,None,118.06773510300263,None,120.5709034439933,None,120.5709034439933,None,0.9830991630005883,122.37624299399613,None,122.37624299399613,None,5,1,0.7009231139963958,123.34422800299944,None,123.34422800299944,None,123.34422800299944,None,124.06171787300264,None,1,0.651809561997652,124.06171787300264,None,4,124.72997223900165,None,145,A,1,2021_Jun_03_1452,GazeFlow,2020.1.2,59.76122307598574,
1,Block502.xls,A,2,7,101,41,22,incongruent,Left,Right,Left,83,80,3,blue,2,5,/home/docky/apps/exp/images/83Bi.jpeg,/home/docky/apps/exp/images/80B.jpeg,0,0,0,0,0,6,6,6,125.73153209598968,None,125.73153209598968,None,1,3.541474265992292,125.73153209598968,None,129.3063072609948,None,129.3063072609948,None,131.8111088470032,None,131.8111088470032,None,0.8496836440026527,133.6130517929996,None,133.6130517929996,None,5,1,0.7176812060060911,134.44908074499108,None,134.44908074499108,None,134.44908074499108,None,135.18325823399937,None,1,0.6848521710053319,135.18325823399937,None,6,135.88454661499418,None,145,A,1,2021_Jun_03_1452,GazeFlow,2020.1.2,59.76122307598574,
1,Block502.xls,A,2,8,69,9,21,incongruent,Right,Left,Right,73,76,3,blue,2,6,/home/docky/apps/exp/images/73B.jpeg,/home/docky/apps/exp/images/76Bi.jpeg,0,0,0,0,0,7,7,7,136.8864652129996,None,136.8864652129996,None,1,4.74379509400751,136.8864652129996,None,141.66460899398953,None,141.66460899398953,None,144.1670306869928,None,144.1670306869928,None,0.8663733889989089,145.97202038299292,None,145.97202038299292,None,6,1,0.7512444689928088,146.82290202999138,None,146.82290202999138,None,146.82290202999138,None,147.5906627749937,None,1,0.5345502609998221,147.5906627749937,None,8,148.14155831499374,None,145,A,1,2021_Jun_03_1452,GazeFlow,2020.1.2,59.76122307598574,
1,Block502.xls,A,,,,,,,,,,,,,,,,,,0,0,0,0,,,,,,,,,,,,,,,,,,,,,,,,,,,,,,,,,,,,,,,,,,,,145,A,1,2021_Jun_03_1452,GazeFlow,2020.1.2,59.76122307598574,
2,Block506.xls,A,6,1,120,60,22,incongruent,Left,Right,Left,80,79,1,yellow,2,5,/home/docky/apps/exp/images/80Yi.jpeg,/home/docky/apps/exp/images/79Y.jpeg,0,1,1,1,0,0,0,0,168.36614596399886,None,168.36614596399886,None,1,6.031476694988669,168.36614596399886,None,174.42796167600318,None,174.42796167600318,None,176.9487804199889,None,176.9487804199889,None,0.8323392000020249,178.75242538900056,None,178.75242538900056,None,6,0,0.7678846470080316,179.56999620499846,None,179.56999620499846,None,179.56999620499846,None,180.35429318799288,None,1,0.7349496709939558,180.35429318799288,None,6,181.10576089798997,None,145,A,1,2021_Jun_03_1452,GazeFlow,2020.1.2,59.76122307598574,
2,Block506.xls,A,6,2,51,51,12,congruent,Right,Right,Left,66,65,1,yellow,2,5,/home/docky/apps/exp/images/66Y.jpeg,/home/docky/apps/exp/images/35Bi.jpeg,0,1,1,1,0,1,1,1,182.1076204819983,None,182.1076204819983,None,1,3.524236869008746,182.1076204819983,None,185.66571149499214,None,185.66571149499214,None,188.1706179640023,None,188.1706179640023,None,0.9000032500043744,189.97375187498983,None,189.97375187498983,None,5,1,0.7342379199981224,190.8587312259915,None,190.8587312259915,None,190.8587312259915,None,191.60950560499623,None,1,0.6687524570006644,191.60950560499623,None,8,192.2944375799998,None,145,A,1,2021_Jun_03_1452,GazeFlow,2020.1.2,59.76122307598574,
2,Block506.xls,A,6,3,119,59,22,incongruent,Left,Right,Left,80,79,1,yellow,2,5,/home/docky/apps/exp/images/80Y.jpeg,/home/docky/apps/exp/images/79Yi.jpeg,0,1,1,1,0,2,2,2,193.2961501539976,None,193.2961501539976,None,1,3.4077444479917176,193.2961501539976,None,196.7373737070011,None,196.7373737070011,None,199.24213480899925,None,199.24213480899925,None,0.7998289149982156,201.04390618100297,None,201.04390618100297,None,5,1,0.7172963869961677,201.8299508959899,None,201.8299508959899,None,201.8299508959899,None,202.56398284700117,None,1,0.6181113670027116,202.56398284700117,None,10,203.19893529399997,None,145,A,1,2021_Jun_03_1452,GazeFlow,2020.1.2,59.76122307598574,
2,Block506.xls,A,6,4,28,28,11,congruent,Left,Left,Right,72,77,5,yellow,2,6,/home/docky/apps/exp/images/72Y.jpeg,/home/docky/apps/exp/images/77Yi.jpeg,0,1,1,1,0,3,3,3,204.20067573699635,None,204.20067573699635,None,1,3.6244132139981957,204.20067573699635,None,207.85879800999828,None,207.85879800999828,None,210.36209352499282,None,210.36209352499282,None,0.8497156189987436,212.1609386409982,None,212.1609386409982,None,6,1,0.70082110799558,213.00167720099853,None,213.00167720099853,None,213.00167720099853,None,213.71934828899975,None,1,0.7680130450025899,213.71934828899975,None,12,214.50500859499152,None,145,A,1,2021_Jun_03_1452,GazeFlow,2020.1.2,59.76122307598574,
2,Block506.xls,A,6,5,85,25,21,incongruent,Right,Left,Right,69,75,6,yellow,2,6,/home/docky/apps/exp/images/69Y.jpeg,/home/docky/apps/exp/images/76Yi.jpeg,0,1,1,1,0,4,4,4,215.50605645299947,None,215.50605645299947,None,1,3.039762721004081,215.50605645299947,None,218.57960091099085,None,218.57960091099085,None,221.08292580700072,None,221.08292580700072,None,0.7830047799943713,222.8857798789977,None,222.8857798789977,None,6,1,0.7174510330078192,223.6557206860016,None,223.6557206860016,None,223.6557206860016,None,224.38984600399272,None,1,0.8693355979921762,224.38984600399272,None,14,225.2753684920026,None,145,A,1,2021_Jun_03_1452,GazeFlow,2020.1.2,59.76122307598574,
2,Block506.xls,A,6,6,71,11,21,incongruent,Right,Left,Right,76,79,3,blue,2,6,/home/docky/apps/exp/images/76B.jpeg,/home/docky/apps/exp/images/79Bi.jpeg,0,1,1,1,0,5,5,5,226.27686224199715,None,226.27686224199715,None,1,4.058641984011047,226.27686224199715,None,230.36744432400155,None,230.36744432400155,None,232.8717816110002,None,232.8717816110002,None,0.7999798270029714,234.67729780299123,None,234.67729780299123,None,5,0,0.700591466986225,235.46195383099257,None,235.46195383099257,None,235.46195383099257,None,236.17929972999264,None,1,0.6180830530065577,236.17929972999264,None,12,236.81384669599356,None,145,A,1,2021_Jun_03_1452,GazeFlow,2020.1.2,59.76122307598574,
2,Block506.xls,A,6,7,56,56,12,congruent,Right,Right,Left,76,69,7,yellow,2,5,/home/docky/apps/exp/images/76Yi.jpeg,/home/docky/apps/exp/images/69Y.jpeg,0,1,1,1,0,6,6,6,237.81588814599672,None,237.81588814599672,None,1,3.29042322600435,237.81588814599672,None,241.14028009299363,None,241.14028009299363,None,243.64299508699332,None,243.64299508699332,None,0.7663551189907594,245.44604866098962,None,245.44604866098962,None,5,1,0.751087248994736,246.1994267639966,None,246.1994267639966,None,246.1994267639966,None,246.96697214299638,None,1,0.5512673379998887,246.96697214299638,None,14,247.53453193898895,None,145,A,1,2021_Jun_03_1452,GazeFlow,2020.1.2,59.76122307598574,
2,Block506.xls,A,6,8,33,33,12,congruent,Right,Right,Left,38,35,3,blue,2,5,/home/docky/apps/exp/images/38B.jpeg,/home/docky/apps/exp/images/35Bi.jpeg,0,1,1,1,0,7,7,7,248.5367096609989,None,248.5367096609989,None,1,3.1401843810017454,248.5367096609989,None,251.70878327799437,None,251.70878327799437,None,254.21530640999845,None,254.21530640999845,None,0.8002572900004452,256.01733843499096,None,256.01733843499096,None,6,0,0.7509107469959417,256.803352153991,None,256.803352153991,None,256.803352153991,None,257.5710024479922,None,1,0.5180480720009655,257.5710024479922,None,12,258.1052094199986,None,145,A,1,2021_Jun_03_1452,GazeFlow,2020.1.2,59.76122307598574,
2,Block506.xls,A,,,,,,,,,,,,,,,,,,0,1,1,1,,,,,,,,,,,,,,,,,,,,,,,,,,,,,,,,,,,,,,,,,,,,145,A,1,2021_Jun_03_1452,GazeFlow,2020.1.2,59.76122307598574,
3,Block505.xls,A,5,1,1,1,11,congruent,Left,Left,Right,16,19,3,blue,2,6,/home/docky/apps/exp/images/16Bi.jpeg,/home/docky/apps/exp/images/19B.jpeg,0,2,2,2,0,0,0,0,277.07575423999515,None,277.07575423999515,None,1,6.203096648998326,277.07575423999515,None,283.31118982798944,None,283.31118982798944,None,285.8267369499954,None,285.8267369499954,None,0.7991752469970379,287.6289502860018,None,287.6289502860018,None,6,1,0.7509248439891962,288.4149235770019,None,288.4149235770019,None,288.4149235770019,None,289.1823552970018,None,1,0.5510425079992274,289.1823552970018,None,14,289.7500147749961,None,145,A,1,2021_Jun_03_1452,GazeFlow,2020.1.2,59.76122307598574,
3,Block505.xls,A,5,2,10,10,11,congruent,Left,Left,Right,73,76,3,blue,2,6,/home/docky/apps/exp/images/73B.jpeg,/home/docky/apps/exp/images/76Bi.jpeg,0,2,2,2,0,1,1,1,290.75201457799994,None,290.75201457799994,None,1,3.190248283004621,290.75201457799994,None,293.97592820700083,None,293.97592820700083,None,296.4789015610004,None,296.4789015610004,None,0.7495842030039057,298.2770404569892,None,298.2770404569892,None,5,0,0.7009711960126879,299.0187769059994,None,299.0187769059994,None,299.0187769059994,None,299.7360050319985,None,1,0.7015932170033921,299.7360050319985,None,12,300.45401354499336,None,145,A,1,2021_Jun_03_1452,GazeFlow,2020.1.2,59.76122307598574,
3,Block505.xls,A,5,3,95,35,22,incongruent,Left,Right,Left,66,65,1,blue,2,5,/home/docky/apps/exp/images/66B.jpeg,/home/docky/apps/exp/images/35Yi.jpeg,0,2,2,2,0,2,2,2,301.45629120898957,None,301.45629120898957,None,1,3.090577687995392,301.45629120898957,None,304.58010609399935,None,304.58010609399935,None,307.08477578600287,None,307.08477578600287,None,0.7998208979988704,308.88580995799566,None,308.88580995799566,None,5,1,0.7508544519951101,309.672646024992,None,309.672646024992,None,309.672646024992,None,310.4403324909945,None,1,0.6346097880013986,310.4403324909945,None,14,311.0914226169989,None,145,A,1,2021_Jun_03_1452,GazeFlow,2020.1.2,59.76122307598574,
3,Block505.xls,A,5,4,46,46,12,congruent,Right,Right,Left,35,33,2,yellow,2,5,/home/docky/apps/exp/images/35Yi.jpeg,/home/docky/apps/exp/images/33Y.jpeg,0,2,2,2,0,3,3,3,312.0935159380024,None,312.0935159380024,None,1,4.141995150988805,312.0935159380024,None,316.2693876599951,None,316.2693876599951,None,318.7741758889897,None,318.7741758889897,None,0.749330099002691,320.57781898099347,None,320.57781898099347,None,6,0,0.7006328300049063,321.31209824098914,None,321.31209824098914,None,321.31209824098914,None,322.0292497499904,None,1,0.6680087899876526,322.0292497499904,None,12,322.71395897399634,None,145,A,1,2021_Jun_03_1452,GazeFlow,2020.1.2,59.76122307598574,
3,Block505.xls,A,5,5,78,18,21,incongruent,Right,Left,Right,65,66,1,yellow,2,6,/home/docky/apps/exp/images/35Bi.jpeg,/home/docky/apps/exp/images/66Y.jpeg,0,2,2,2,0,4,4,4,323.71587249299046,None,323.71587249299046,None,1,2.8898416259908117,323.71587249299046,None,326.6397523929918,None,326.6397523929918,None,329.14441909499874,None,329.14441909499874,None,0.8167938869883073,330.9459804319922,None,330.9459804319922,None,6,1,0.7841482980002183,331.7489971929899,None,331.7489971929899,None,331.7489971929899,None,332.54989625499,None,1,0.7522725040034857,332.54989625499,None,14,333.31848494800215,None,145,A,1,2021_Jun_03_1452,GazeFlow,2020.1.2,59.76122307598574,
3,Block505.xls,A,5,6,43,43,12,congruent,Right,Right,Left,83,80,3,blue,2,5,/home/docky/apps/exp/images/83B.jpeg,/home/docky/apps/exp/images/80Bi.jpeg,0,2,2,2,0,5,5,5,334.3199925039953,None,334.3199925039953,None,1,4.576163942998392,334.3199925039953,None,338.92974343198875,None,338.92974343198875,None,341.434846277989,None,341.434846277989,None,0.7162542199948803,343.2322920079896,None,343.2322920079896,None,6,0,0.8179702329944121,343.9390178670001,None,343.9390178670001,None,343.9390178670001,None,344.77325549199304,None,1,0.6847205000085523,344.77325549199304,None,12,345.47511242399924,None,145,A,1,2021_Jun_03_1452,GazeFlow,2020.1.2,59.76122307598574,
3,Block505.xls,A,5,7,44,44,12,congruent,Right,Right,Left,39,38,1,blue,2,5,/home/docky/apps/exp/images/39Bi.jpeg,/home/docky/apps/exp/images/38B.jpeg,0,2,2,2,0,6,6,6,346.4765937459888,None,346.4765937459888,None,1,4.559868236989132,346.4765937459888,None,351.07032751299266,None,351.07032751299266,None,353.5749942440016,None,353.5749942440016,None,0.7827611029933905,355.3760190309986,None,355.3760190309986,None,5,1,0.7344405339972582,356.14615418399626,None,356.14615418399626,None,356.14615418399626,None,356.8970968469948,None,1,0.667803588003153,356.8970968469948,None,14,357.5815094799909,None,145,A,1,2021_Jun_03_1452,GazeFlow,2020.1.2,59.76122307598574,
3,Block505.xls,A,5,8,116,56,22,incongruent,Left,Right,Left,77,72,5,yellow,2,5,/home/docky/apps/exp/images/77Y.jpeg,/home/docky/apps/exp/images/72Y.jpeg,0,2,2,2,0,7,7,7,358.583884216001,None,358.583884216001,None,1,3.791723998001544,358.583884216001,None,362.4090002049925,None,362.4090002049925,None,364.91243948499323,None,364.91243948499323,None,0.916405501004192,366.71740058399155,None,366.71740058399155,None,5,1,0.7342857909970917,367.61837767099496,None,367.61837767099496,None,367.61837767099496,None,368.36939814499056,None,1,0.6011883470055182,368.36939814499056,None,16,368.9872154699988,None,145,A,1,2021_Jun_03_1452,GazeFlow,2020.1.2,59.76122307598574,
3,Block505.xls,A,,,,,,,,,,,,,,,,,,0,2,2,2,,,,,,,,,,,,,,,,,,,,,,,,,,,,,,,,,,,,,,,,,,,,145,A,1,2021_Jun_03_1452,GazeFlow,2020.1.2,59.76122307598574,
4,Block509.xls,A,9,1,34,34,12,congruent,Right,Right,Left,38,35,3,blue,2,5,/home/docky/apps/exp/images/38Bi.jpeg,/home/docky/apps/exp/images/35B.jpeg,0,3,3,3,0,0,0,0,387.8916335519898,None,387.8916335519898,None,1,5.952719249005895,387.8916335519898,None,393.8707802699937,None,393.8707802699937,None,396.3915326619899,None,396.3915326619899,None,0.7145301060081692,398.19036535799387,None,398.19036535799387,None,5,1,0.7508663220069138,398.8960791089921,None,398.8960791089921,None,398.8960791089921,None,399.6636068349908,None,1,0.7351932670135284,399.6636068349908,None,18,400.4151251239964,None,145,A,1,2021_Jun_03_1452,GazeFlow,2020.1.2,59.76122307598574,
4,Block509.xls,A,9,2,7,7,11,congruent,Left,Left,Right,65,66,1,blue,2,6,/home/docky/apps/exp/images/35Yi.jpeg,/home/docky/apps/exp/images/66B.jpeg,0,3,3,3,0,1,1,1,401.4169775869959,None,401.4169775869959,None,1,3.089835952996509,401.4169775869959,None,404.54091051299474,None,404.54091051299474,None,407.04342001199257,None,407.04342001199257,None,0.7329073949949816,408.8465978750028,None,408.8465978750028,None,6,1,0.801037166005699,409.56664009799715,None,409.56664009799715,None,409.56664009799715,None,410.3842822529987,None,1,0.6178417210030602,410.3842822529987,None,20,411.0190501199977,None,145,A,1,2021_Jun_03_1452,GazeFlow,2020.1.2,59.76122307598574,
4,Block509.xls,A,9,3,74,14,21,incongruent,Right,Left,Right,80,83,3,blue,2,6,/home/docky/apps/exp/images/80B.jpeg,/home/docky/apps/exp/images/83Bi.jpeg,0,3,3,3,0,2,2,2,412.0210861109954,None,412.0210861109954,None,1,3.406988695001928,412.0210861109954,None,415.4614978890022,None,415.4614978890022,None,417.96676824799215,None,417.96676824799215,None,0.7330228409991832,419.7685626619932,None,419.7685626619932,None,6,1,0.7007840110018151,420.4878480089974,None,420.4878480089974,None,420.4878480089974,None,421.2051062249957,None,1,1.7872513649926987,421.2051062249957,None,22,423.0089295279904,None,145,A,1,2021_Jun_03_1452,GazeFlow,2020.1.2,59.76122307598574,
4,Block509.xls,A,9,4,19,19,11,congruent,Left,Left,Right,65,66,1,yellow,2,6,/home/docky/apps/exp/images/35Bi.jpeg,/home/docky/apps/exp/images/66Y.jpeg,0,3,3,3,0,3,3,3,424.01105280200136,None,424.01105280200136,None,1,3.0563946629990824,424.01105280200136,None,427.1011172879953,None,427.1011172879953,None,429.60440173400275,None,429.60440173400275,None,0.716763467004057,431.4071533959941,None,431.4071533959941,None,5,0,0.8175759919977281,432.110584930997,None,432.110584930997,None,432.110584930997,None,432.9446522419894,None,1,0.6514175789925503,432.9446522419894,None,20,433.6129847379925,None,145,A,1,2021_Jun_03_1452,GazeFlow,2020.1.2,59.76122307598574,
4,Block509.xls,A,9,5,60,60,12,congruent,Right,Right,Left,80,79,1,yellow,2,5,/home/docky/apps/exp/images/80Yi.jpeg,/home/docky/apps/exp/images/79Y.jpeg,0,3,3,3,0,4,4,4,434.61497503198916,None,434.61497503198916,None,1,2.972864818002563,434.61497503198916,None,437.6216108059889,None,437.6216108059889,None,440.12470632599434,None,440.12470632599434,None,0.8501712430006592,441.92744299898914,None,441.92744299898914,None,5,1,0.7513695840025321,442.76437504000205,None,442.76437504000205,None,442.76437504000205,None,443.5319521259953,None,1,0.6517697590024909,443.5319521259953,None,22,444.20040649099974,None,145,A,1,2021_Jun_03_1452,GazeFlow,2020.1.2,59.76122307598574,
4,Block509.xls,A,9,6,83,23,21,incongruent,Right,Left,Right,38,39,1,yellow,2,6,/home/docky/apps/exp/images/38Yi.jpeg,/home/docky/apps/exp/images/39Y.jpeg,0,3,3,3,0,5,5,5,445.202098979993,None,445.202098979993,None,1,3.357279383999412,445.202098979993,None,448.59320758299145,None,448.59320758299145,None,451.0958605850028,None,451.0958605850028,None,0.9501456370053347,452.89905680000084,None,452.89905680000084,None,6,1,0.8509789899981115,453.83613547899586,None,453.83613547899586,None,453.83613547899586,None,454.7036450299929,None,1,0.6518814259907231,454.7036450299929,None,24,455.37203915299324,None,145,A,1,2021_Jun_03_1452,GazeFlow,2020.1.2,59.76122307598574,
4,Block509.xls,A,9,7,4,4,11,congruent,Left,Left,Right,35,38,3,blue,2,6,/home/docky/apps/exp/images/35B.jpeg,/home/docky/apps/exp/images/38Bi.jpeg,0,3,3,3,0,6,6,6,456.37353157799225,None,456.37353157799225,None,1,3.557502071998897,456.37353157799225,None,459.96493229399493,None,459.96493229399493,None,462.4697759409901,None,462.4697759409901,None,0.7497266449936433,464.26656619799905,None,464.26656619799905,None,6,1,0.7342351770057576,465.0077042539924,None,465.0077042539924,None,465.0077042539924,None,465.75873959799355,None,1,0.6846009980072267,465.75873959799355,None,26,466.4598924789898,None,145,A,1,2021_Jun_03_1452,GazeFlow,2020.1.2,59.76122307598574,
4,Block509.xls,A,9,8,24,24,11,congruent,Left,Left,Right,38,39,1,yellow,2,6,/home/docky/apps/exp/images/38Y.jpeg,/home/docky/apps/exp/images/39Yi.jpeg,0,3,3,3,0,7,7,7,467.4620834340021,None,467.4620834340021,None,1,4.20862543900148,467.4620834340021,None,471.7045690840023,None,471.7045690840023,None,474.2093175679911,None,474.2093175679911,None,0.7995132820069557,476.01307929299946,None,476.01307929299946,None,5,0,0.7843213829910383,476.7974056270032,None,476.7974056270032,None,476.7974056270032,None,477.5982125439914,None,1,0.7014167710003676,477.5982125439914,None,24,478.31643681699643,None,145,A,1,2021_Jun_03_1452,GazeFlow,2020.1.2,59.76122307598574,
4,Block509.xls,A,,,,,,,,,,,,,,,,,,0,3,3,3,,,,,,,,,,,,,,,,,,,,,,,,,,,,,,,,,,,,,,,,,,,,145,A,1,2021_Jun_03_1452,GazeFlow,2020.1.2,59.76122307598574,
5,Block504.xls,A,4,1,11,11,11,congruent,Left,Left,Right,73,76,3,blue,2,6,/home/docky/apps/exp/images/73Bi.jpeg,/home/docky/apps/exp/images/76B.jpeg,0,4,4,4,0,0,0,0,498.09013806800067,None,498.09013806800067,None,1,4.965799141995376,498.09013806800067,None,503.08147828798974,None,503.08147828798974,None,505.6036893080018,None,505.6036893080018,None,0.7655690679966938,507.40559243698954,None,507.40559243698954,None,6,1,0.7341604649991496,508.1581811590004,None,508.1581811590004,None,508.1581811590004,None,508.90922196199244,None,1,0.8518214200012153,508.90922196199244,None,26,509.7777406969981,None,145,A,1,2021_Jun_03_1452,GazeFlow,2020.1.2,59.76122307598574,
5,Block504.xls,A,4,2,87,27,21,incongruent,Right,Left,Right,72,77,5,yellow,2,6,/home/docky/apps/exp/images/72Y.jpeg,/home/docky/apps/exp/images/77Yi.jpeg,0,4,4,4,0,1,1,1,510.77929532899,None,510.77929532899,None,1,3.123505726995063,510.77929532899,None,513.9365310479916,None,513.9365310479916,None,516.4412281659897,None,516.4412281659897,None,0.7494723050040193,518.2385302640032,None,518.2385302640032,None,6,1,0.7343560610024724,518.9791997299908,None,518.9791997299908,None,518.9791997299908,None,519.7302104039991,None,1,0.7348447330005001,519.7302104039991,None,28,520.4811790039967,None,145,A,1,2021_Jun_03_1452,GazeFlow,2020.1.2,59.76122307598574,
5,Block504.xls,A,4,3,48,48,12,congruent,Right,Right,Left,39,38,1,yellow,2,5,/home/docky/apps/exp/images/39Yi.jpeg,/home/docky/apps/exp/images/38Y.jpeg,0,4,4,4,0,2,2,2,521.4836841479992,None,521.4836841479992,None,1,2.472334181002225,521.4836841479992,None,523.9893982969952,None,523.9893982969952,None,526.4911891809897,None,526.4911891809897,None,0.7666019070020411,528.289476512,None,528.289476512,None,5,1,0.7675594489992363,529.0486805120017,None,529.0486805120017,None,529.0486805120017,None,529.8330505209888,None,1,0.7014193170034559,529.8330505209888,None,30,530.5515252299956,None,145,A,1,2021_Jun_03_1452,GazeFlow,2020.1.2,59.76122307598574,
5,Block504.xls,A,4,4,38,38,12,congruent,Right,Right,Left,79,73,6,blue,2,5,/home/docky/apps/exp/images/79B.jpeg,/home/docky/apps/exp/images/73Bi.jpeg,0,4,4,4,0,3,3,3,531.5529814309994,None,531.5529814309994,None,1,2.8065456570038805,531.5529814309994,None,534.3913320619904,None,534.3913320619904,None,536.9007613879949,None,536.9007613879949,None,0.7494357729883632,538.7014953350008,None,538.7014953350008,None,5,1,0.8679075390100479,539.4355493780022,None,539.4355493780022,None,539.4355493780022,None,540.319996487,None,1,0.7685700939910021,540.319996487,None,32,541.1049011959985,None,145,A,1,2021_Jun_03_1452,GazeFlow,2020.1.2,59.76122307598574,
5,Block504.xls,A,4,5,2,2,11,congruent,Left,Left,Right,16,19,3,blue,2,6,/home/docky/apps/exp/images/16B.jpeg,/home/docky/apps/exp/images/19Bi.jpeg,0,4,4,4,0,4,4,4,542.1069448789931,None,542.1069448789931,None,1,2.9897484600078315,542.1069448789931,None,545.1305586870003,None,545.1305586870003,None,547.6333302619896,None,547.6333302619896,None,0.7162638979934854,549.4370046249969,None,549.4370046249969,None,6,1,0.7174635470000794,550.1396722560021,None,550.1396722560021,None,550.1396722560021,None,550.8739430449932,None,1,0.7180527540040202,550.8739430449932,None,34,551.6087189269892,None,145,A,1,2021_Jun_03_1452,GazeFlow,2020.1.2,59.76122307598574,
5,Block504.xls,A,4,6,73,13,21,incongruent,Right,Left,Right,80,83,3,blue,2,6,/home/docky/apps/exp/images/80Bi.jpeg,/home/docky/apps/exp/images/83B.jpeg,0,4,4,4,0,5,5,5,552.6106437409908,None,552.6106437409908,None,1,2.321818536001956,552.6106437409908,None,554.9660117379972,None,554.9660117379972,None,557.4752815129905,None,557.4752815129905,None,0.6991404709988274,559.2684463439946,None,559.2684463439946,None,6,1,0.7507739089924144,559.958863783002,None,559.958863783002,None,559.958863783002,None,560.726332523991,None,1,0.6848895159928361,560.726332523991,None,36,561.4279000829993,None,145,A,1,2021_Jun_03_1452,GazeFlow,2020.1.2,59.76122307598574,
5,Block504.xls,A,4,7,63,3,21,incongruent,Right,Left,Right,35,38,3,blue,2,6,/home/docky/apps/exp/images/35B.jpeg,/home/docky/apps/exp/images/38Bi.jpeg,0,4,4,4,0,6,6,6,562.4297576870013,None,562.4297576870013,None,1,2.3051105460035615,562.4297576870013,None,564.7686708580004,None,564.7686708580004,None,567.2731581849948,None,567.2731581849948,None,0.73277603299357,569.0753895270027,None,569.0753895270027,None,6,1,0.7342723850015318,569.7948590039887,None,569.7948590039887,None,569.7948590039887,None,570.5455573630024,None,1,0.6179728690040065,570.5455573630024,None,38,571.1798991329997,None,145,A,1,2021_Jun_03_1452,GazeFlow,2020.1.2,59.76122307598574,
5,Block504.xls,A,4,8,86,26,21,incongruent,Right,Left,Right,72,77,5,yellow,2,6,/home/docky/apps/exp/images/72Yi.jpeg,/home/docky/apps/exp/images/77Y.jpeg,0,4,4,4,0,7,7,7,572.1820788999903,None,572.1820788999903,None,1,2.638930473010987,572.1820788999903,None,574.8548550029955,None,574.8548550029955,None,577.359686967,None,577.359686967,None,0.7831033280090196,579.1551081539947,None,579.1551081539947,None,6,1,0.7845943169959355,579.9305930019909,None,579.9305930019909,None,579.9305930019909,None,580.7317795299896,None,1,0.6180762739968486,580.7317795299896,None,40,581.3664803009888,None,145,A,1,2021_Jun_03_1452,GazeFlow,2020.1.2,59.76122307598574,
5,Block504.xls,A,,,,,,,,,,,,,,,,,,0,4,4,4,,,,,,,,,,,,,,,,,,,,,,,,,,,,,,,,,,,,,,,,,,,,145,A,1,2021_Jun_03_1452,GazeFlow,2020.1.2,59.76122307598574,
6,Block511.xls,A,11,1,15,15,11,congruent,Left,Left,Right,80,83,3,blue,2,6,/home/docky/apps/exp/images/80Bi.jpeg,/home/docky/apps/exp/images/83B.jpeg,0,5,5,5,0,0,0,0,606.3152106319903,None,606.3152106319903,None,1,5.002397984993877,606.3152106319903,None,611.3418532659998,None,611.3418532659998,None,613.8638692980021,None,613.8638692980021,None,0.8158924659946933,615.6655393269903,None,615.6655393269903,None,6,1,0.7342855879978742,616.468421618003,None,616.468421618003,None,616.468421618003,None,617.2193464579905,None,1,0.7018318170012208,617.2193464579905,None,42,617.9371313299926,None,145,A,1,2021_Jun_03_1452,GazeFlow,2020.1.2,59.76122307598574,
6,Block511.xls,A,11,2,105,45,22,incongruent,Left,Right,Left,39,38,1,blue,2,5,/home/docky/apps/exp/images/39Bi.jpeg,/home/docky/apps/exp/images/38B.jpeg,0,5,5,5,0,1,1,1,618.9396404419967,None,618.9396404419967,None,1,2.3715003359975526,618.9396404419967,None,621.3450627269922,None,621.3450627269922,None,623.8483162969933,None,623.8483162969933,None,0.850078993011266,625.6516109649965,None,625.6516109649965,None,5,1,0.7675547310063848,626.4878381759918,None,626.4878381759918,None,626.4878381759918,None,627.2721889719978,None,1,0.8022697999986121,627.2721889719978,None,44,628.0908602039999,None,145,A,1,2021_Jun_03_1452,GazeFlow,2020.1.2,59.76122307598574,
6,Block511.xls,A,11,3,68,8,21,incongruent,Right,Left,Right,38,39,1,blue,2,6,/home/docky/apps/exp/images/38B.jpeg,/home/docky/apps/exp/images/39Bi.jpeg,0,5,5,5,0,2,2,2,629.092462702989,None,629.092462702989,None,1,3.2574564820097294,629.092462702989,None,632.3832620039902,None,632.3832620039902,None,634.8876236209908,None,634.8876236209908,None,0.9334637559950352,636.6892925739958,None,636.6892925739958,None,6,1,0.7508471800101688,637.6095771129912,None,637.6095771129912,None,637.6095771129912,None,638.3771627109963,None,1,0.5853424729866674,638.3771627109963,None,46,638.9787981919944,None,145,A,1,2021_Jun_03_1452,GazeFlow,2020.1.2,59.76122307598574,
6,Block511.xls,A,11,4,80,20,21,incongruent,Right,Left,Right,62,65,3,yellow,2,6,/home/docky/apps/exp/images/38Bi.jpeg,/home/docky/apps/exp/images/35B.jpeg,0,5,5,5,0,3,3,3,639.9802630389895,None,639.9802630389895,None,1,2.222521768999286,639.9802630389895,None,642.2367229669908,None,642.2367229669908,None,644.7391023599921,None,644.7391023599921,None,0.6996477780048735,646.5440004229895,None,646.5440004229895,None,6,1,0.6679080379981315,647.2281808089901,None,647.2281808089901,None,647.2281808089901,None,647.9123280539934,None,1,0.6177780780126341,647.9123280539934,None,48,648.5471166589996,None,145,A,1,2021_Jun_03_1452,GazeFlow,2020.1.2,59.76122307598574,
6,Block511.xls,A,11,5,5,5,11,congruent,Left,Left,Right,65,66,1,blue,2,6,/home/docky/apps/exp/images/35Yi.jpeg,/home/docky/apps/exp/images/66B.jpeg,0,5,5,5,0,4,4,4,649.5488651589985,None,649.5488651589985,None,1,2.4384567309898557,649.5488651589985,None,652.0214000749984,None,652.0214000749984,None,654.5241150499933,None,654.5241150499933,None,0.7664818219927838,656.3225520150008,None,656.3225520150008,None,6,1,0.7175372659985442,657.0807056149933,None,657.0807056149933,None,657.0807056149933,None,657.8147830679954,None,1,0.6344589009968331,657.8147830679954,None,50,658.4658451750001,None,145,A,1,2021_Jun_03_1452,GazeFlow,2020.1.2,59.76122307598574,
6,Block511.xls,A,11,6,18,18,11,congruent,Left,Left,Right,65,66,1,yellow,2,6,/home/docky/apps/exp/images/35B.jpeg,/home/docky/apps/exp/images/66Yi.jpeg,0,5,5,5,0,5,5,5,659.4680272940022,None,659.4680272940022,None,1,2.6730966629984323,659.4680272940022,None,662.1744187389995,None,662.1744187389995,None,664.6770129549986,None,664.6770129549986,None,0.6829242240055464,666.4808111689927,None,666.4808111689927,None,6,1,0.7844480050116545,667.150154648989,None,667.150154648989,None,667.150154648989,None,667.9511418309994,None,1,0.568033285002457,667.9511418309994,None,52,668.5355506549968,None,145,A,1,2021_Jun_03_1452,GazeFlow,2020.1.2,59.76122307598574,
6,Block511.xls,A,11,7,25,25,11,congruent,Left,Left,Right,69,75,6,yellow,2,6,/home/docky/apps/exp/images/69Yi.jpeg,/home/docky/apps/exp/images/76Y.jpeg,0,5,5,5,0,6,6,6,669.5376603309996,None,669.5376603309996,None,1,2.2219371410028543,669.5376603309996,None,671.7935182439978,None,671.7935182439978,None,674.2977751959988,None,674.2977751959988,None,0.6830030310084112,676.0990357679984,None,676.0990357679984,None,6,1,0.7340975429979153,676.7689001029939,None,676.7689001029939,None,676.7689001029939,None,677.5196150690026,None,1,0.6682113870047033,677.5196150690026,None,54,678.2046426629968,None,145,A,1,2021_Jun_03_1452,GazeFlow,2020.1.2,59.76122307598574,
6,Block511.xls,A,11,8,3,3,11,congruent,Left,Left,Right,35,38,3,blue,2,6,/home/docky/apps/exp/images/35Bi.jpeg,/home/docky/apps/exp/images/38B.jpeg,0,5,5,5,0,7,7,7,679.2065792479989,None,679.2065792479989,None,1,2.30494590899616,679.2065792479989,None,681.5452284279891,None,681.5452284279891,None,684.0503398269939,None,684.0503398269939,None,0.8334174009942217,685.8521525109973,None,685.8521525109973,None,6,1,0.7510558210051386,686.6713473769923,None,686.6713473769923,None,686.6713473769923,None,687.4390036229888,None,1,0.8018205739936093,687.4390036229888,None,56,688.2576873119979,None,145,A,1,2021_Jun_03_1452,GazeFlow,2020.1.2,59.76122307598574,
6,Block511.xls,A,,,,,,,,,,,,,,,,,,0,5,5,5,,,,,,,,,,,,,,,,,,,,,,,,,,,,,,,,,,,,,,,,,,,,145,A,1,2021_Jun_03_1452,GazeFlow,2020.1.2,59.76122307598574,
7,Block508.xls,A,8,1,13,13,11,congruent,Left,Left,Right,76,79,3,blue,2,6,/home/docky/apps/exp/images/76Bi.jpeg,/home/docky/apps/exp/images/79B.jpeg,0,6,6,6,0,0,0,0,710.2104599119921,None,710.2104599119921,None,1,4.322075449992553,710.2104599119921,None,714.5643921489973,None,714.5643921489973,None,717.0808853310009,None,717.0808853310009,None,0.8157247119961539,718.884655529997,None,718.884655529997,None,6,1,0.7509442479931749,719.6855310050014,None,719.6855310050014,None,719.6855310050014,None,720.4530602589948,None,1,0.5848542470048415,720.4530602589948,None,58,721.0542946069909,None,145,A,1,2021_Jun_03_1452,GazeFlow,2020.1.2,59.76122307598574,
7,Block508.xls,A,8,2,21,21,11,congruent,Left,Left,Right,62,65,3,yellow,2,6,/home/docky/apps/exp/images/38B.jpeg,/home/docky/apps/exp/images/35Bi.jpeg,0,6,6,6,0,1,1,1,722.0563000289985,None,722.0563000289985,None,1,2.389119892002782,722.0563000289985,None,724.4788049329945,None,724.4788049329945,None,726.9816921559977,None,726.9816921559977,None,0.7161773749976419,728.785220670994,None,728.785220670994,None,6,1,0.7174449020094471,729.4880831819901,None,729.4880831819901,None,729.4880831819901,None,730.2218513409898,None,1,0.5847941990068648,730.2218513409898,None,60,730.823296342991,None,145,A,1,2021_Jun_03_1452,GazeFlow,2020.1.2,59.76122307598574,
7,Block508.xls,A,8,3,99,39,22,incongruent,Left,Right,Left,79,76,3,blue,2,5,/home/docky/apps/exp/images/79Bi.jpeg,/home/docky/apps/exp/images/76B.jpeg,0,6,6,6,0,2,2,2,731.8251420209999,None,731.8251420209999,None,1,2.1388107639941154,731.8251420209999,None,733.997240932993,None,733.997240932993,None,736.499917729001,None,736.499917729001,None,0.7662415480008349,738.2987100890023,None,738.2987100890023,None,5,1,0.7507876849995228,739.0567568879924,None,739.0567568879924,None,739.0567568879924,None,739.8242046359956,None,1,0.7012349900032859,739.8242046359956,None,62,740.5422314640018,None,145,A,1,2021_Jun_03_1452,GazeFlow,2020.1.2,59.76122307598574,
7,Block508.xls,A,8,4,37,37,12,congruent,Right,Right,Left,66,65,1,blue,2,5,/home/docky/apps/exp/images/66Bi.jpeg,/home/docky/apps/exp/images/35Y.jpeg,0,6,6,6,0,3,3,3,741.5442345499905,None,741.5442345499905,None,1,2.8565229210071266,741.5442345499905,None,744.4342604690028,None,744.4342604690028,None,746.9372509569948,None,746.9372509569948,None,0.7495729029906215,748.740930918997,None,748.740930918997,None,5,1,0.800768174987752,749.4767623789958,None,749.4767623789958,None,749.4767623789958,None,750.2942819279997,None,1,0.5850382550124777,750.2942819279997,None,64,750.895954601001,None,145,A,1,2021_Jun_03_1452,GazeFlow,2020.1.2,59.76122307598574,
7,Block508.xls,A,8,5,82,22,21,incongruent,Right,Left,Right,38,39,1,yellow,2,6,/home/docky/apps/exp/images/38Y.jpeg,/home/docky/apps/exp/images/39Yi.jpeg,0,6,6,6,0,4,4,4,751.89741666599,None,751.89741666599,None,1,3.0401337100047385,751.89741666599,None,754.9711459620012,None,754.9711459620012,None,757.4746664510021,None,757.4746664510021,None,0.8163177039969014,759.2722346689989,None,759.2722346689989,None,6,1,0.7007482749904739,760.0807524559932,None,760.0807524559932,None,760.0807524559932,None,760.7981399689888,None,1,0.5681679190020077,760.7981399689888,None,66,761.382728741999,None,145,A,1,2021_Jun_03_1452,GazeFlow,2020.1.2,59.76122307598574,
7,Block508.xls,A,8,6,104,44,22,incongruent,Left,Right,Left,39,38,1,blue,2,5,/home/docky/apps/exp/images/39B.jpeg,/home/docky/apps/exp/images/38Bi.jpeg,0,6,6,6,0,5,5,5,762.3848751289916,None,762.3848751289916,None,1,2.9728581219969783,762.3848751289916,None,765.3915501849988,None,765.3915501849988,None,767.8945613749966,None,767.8945613749966,None,0.7327828609995777,769.6998270740005,None,769.6998270740005,None,5,1,0.7843475109984865,770.4173556009919,None,770.4173556009919,None,770.4173556009919,None,771.218574034996,None,1,0.6346611389890313,771.218574034996,None,68,771.8696730719967,None,145,A,1,2021_Jun_03_1452,GazeFlow,2020.1.2,59.76122307598574,
7,Block508.xls,A,8,7,39,39,12,congruent,Right,Right,Left,79,73,6,blue,2,5,/home/docky/apps/exp/images/79B.jpeg,/home/docky/apps/exp/images/73Bi.jpeg,0,6,6,6,0,6,6,6,772.8715772180003,None,772.8715772180003,None,1,2.8896886769944103,772.8715772180003,None,775.792935844991,None,775.792935844991,None,778.2984621069918,None,778.2984621069918,None,0.7164300579897827,780.1019586869952,None,780.1019586869952,None,5,1,0.7844695469975704,780.8042280840018,None,780.8042280840018,None,780.8042280840018,None,781.6051259879896,None,1,0.968764082994312,781.6051259879896,None,70,782.590605430989,None,145,A,1,2021_Jun_03_1452,GazeFlow,2020.1.2,59.76122307598574,
7,Block508.xls,A,8,8,36,36,12,congruent,Right,Right,Left,66,65,1,blue,2,5,/home/docky/apps/exp/images/66B.jpeg,/home/docky/apps/exp/images/35Yi.jpeg,0,6,6,6,0,7,7,7,783.5924383550009,None,783.5924383550009,None,1,2.9898249879915966,783.5924383550009,None,786.6159326749912,None,786.6159326749912,None,789.120819438991,None,789.120819438991,None,0.7165137339907233,790.9243419650011,None,790.9243419650011,None,5,1,0.767655339994235,791.6253569330001,None,791.6253569330001,None,791.6253569330001,None,792.409447041995,None,1,0.9525454230024479,792.409447041995,None,72,793.3785232579976,None,145,A,1,2021_Jun_03_1452,GazeFlow,2020.1.2,59.76122307598574,
7,Block508.xls,A,,,,,,,,,,,,,,,,,,0,6,6,6,,,,,,,,,,,,,,,,,,,,,,,,,,,,,,,,,,,,,,,,,,,,145,A,1,2021_Jun_03_1452,GazeFlow,2020.1.2,59.76122307598574,
8,Block510.xls,A,10,1,102,42,22,incongruent,Left,Right,Left,83,80,3,blue,2,5,/home/docky/apps/exp/images/83B.jpeg,/home/docky/apps/exp/images/80Bi.jpeg,0,7,7,7,0,0,0,0,817.0886697239912,None,817.0886697239912,None,1,4.968257736007217,817.0886697239912,None,822.0851129779912,None,822.0851129779912,None,824.6065346879914,None,824.6065346879914,None,0.7157555100129684,826.4100654099893,None,826.4100654099893,None,5,1,0.784315577999223,827.1109554569994,None,827.1109554569994,None,827.1109554569994,None,827.9116954979982,None,1,0.8861958959896583,827.9116954979982,None,74,828.8139894459891,None,145,A,1,2021_Jun_03_1452,GazeFlow,2020.1.2,59.76122307598574,
8,Block510.xls,A,10,2,114,54,22,incongruent,Left,Right,Left,76,69,7,yellow,2,5,/home/docky/apps/exp/images/76Yi.jpeg,/home/docky/apps/exp/images/69Y.jpeg,0,7,7,7,0,1,1,1,829.8156993339944,None,829.8156993339944,None,1,3.0732625649980037,829.8156993339944,None,832.922608983994,None,832.922608983994,None,835.4273610239907,None,835.4273610239907,None,0.6996168420009781,837.2238983970019,None,837.2238983970019,None,5,1,0.7844119929941371,837.9152575799963,None,837.9152575799963,None,837.9152575799963,None,838.7161925120017,None,1,0.7681780359998811,838.7161925120017,None,76,839.5008855619963,None,145,A,1,2021_Jun_03_1452,GazeFlow,2020.1.2,59.76122307598574,
8,Block510.xls,A,10,3,72,12,21,incongruent,Right,Left,Right,76,79,3,blue,2,6,/home/docky/apps/exp/images/76Bi.jpeg,/home/docky/apps/exp/images/79B.jpeg,0,7,7,7,0,2,2,2,840.5029116219957,None,840.5029116219957,None,1,2.7895306380087277,840.5029116219957,None,843.3259793659963,None,843.3259793659963,None,845.8311316969921,None,845.8311316969921,None,0.7830282220093068,847.6345345149894,None,847.6345345149894,None,6,1,0.7008718930010218,848.4022138259897,None,848.4022138259897,None,848.4022138259897,None,849.1195864679903,None,1,0.7517450329905841,849.1195864679903,None,78,849.8886237499974,None,145,A,1,2021_Jun_03_1452,GazeFlow,2020.1.2,59.76122307598574,
8,Block510.xls,A,10,4,112,52,22,incongruent,Left,Right,Left,75,69,6,yellow,2,5,/home/docky/apps/exp/images/76Y.jpeg,/home/docky/apps/exp/images/69Yi.jpeg,0,7,7,7,0,3,3,3,850.8899577029952,None,850.8899577029952,None,1,2.288309764000587,850.8899577029952,None,853.2120654239989,None,853.2120654239989,None,855.7146311669931,None,855.7146311669931,None,0.749561224001809,857.5181215789926,None,857.5181215789926,None,5,1,0.7342399949993705,858.2547159169917,None,858.2547159169917,None,858.2547159169917,None,859.0055202359945,None,1,0.6850283840030897,859.0055202359945,None,80,859.7071090429963,None,145,A,1,2021_Jun_03_1452,GazeFlow,2020.1.2,59.76122307598574,
8,Block510.xls,A,10,5,17,17,11,congruent,Left,Left,Right,33,35,2,yellow,2,6,/home/docky/apps/exp/images/33Y.jpeg,/home/docky/apps/exp/images/35Yi.jpeg,0,7,7,7,0,4,4,4,860.7089066339977,None,860.7089066339977,None,1,2.6897315770038404,860.7089066339977,None,863.4321872869914,None,863.4321872869914,None,865.9350868369947,None,865.9350868369947,None,0.6997653590078698,867.7382633899979,None,867.7382633899979,None,5,0,0.7842127949988935,868.4244376089919,None,868.4244376089919,None,868.4244376089919,None,869.2254770799918,None,1,2.504728383006295,869.2254770799918,None,78,871.7471354979934,None,145,A,1,2021_Jun_03_1452,GazeFlow,2020.1.2,59.76122307598574,
8,Block510.xls,A,10,6,31,31,12,congruent,Right,Right,Left,19,16,3,blue,2,5,/home/docky/apps/exp/images/19Bi.jpeg,/home/docky/apps/exp/images/16B.jpeg,0,7,7,7,0,5,5,5,872.749415030994,None,872.749415030994,None,1,2.3881382899999153,872.749415030994,None,875.1711079090019,None,875.1711079090019,None,877.676132085995,None,877.676132085995,None,0.8162773650110466,879.4797687359969,None,879.4797687359969,None,5,1,0.7343211520055775,880.2808822630032,None,880.2808822630032,None,880.2808822630032,None,881.0315981329913,None,1,0.7517663339967839,881.0315981329913,None,80,881.8001529589965,None,145,A,1,2021_Jun_03_1452,GazeFlow,2020.1.2,59.76122307598574,
8,Block510.xls,A,10,7,61,1,21,incongruent,Right,Left,Right,16,19,3,blue,2,6,/home/docky/apps/exp/images/16Bi.jpeg,/home/docky/apps/exp/images/19B.jpeg,0,7,7,7,0,6,6,6,882.8019655139942,None,882.8019655139942,None,1,3.2739376690005884,882.8019655139942,None,886.1092092100007,None,886.1092092100007,None,888.6142322439991,None,888.6142322439991,None,0.9166386960132513,890.4164088589896,None,890.4164088589896,None,6,1,0.7508415979973506,891.3189847149915,None,891.3189847149915,None,891.3189847149915,None,892.0864111209958,None,1,0.6348346029990353,892.0864111209958,None,82,892.737637528,None,145,A,1,2021_Jun_03_1452,GazeFlow,2020.1.2,59.76122307598574,
8,Block510.xls,A,10,8,94,34,22,incongruent,Left,Right,Left,38,35,3,blue,2,5,/home/docky/apps/exp/images/38Bi.jpeg,/home/docky/apps/exp/images/35B.jpeg,0,7,7,7,0,7,7,7,893.7395869579923,None,893.7395869579923,None,1,2.506139239005279,893.7395869579923,None,896.2789738299907,None,896.2789738299907,None,898.7847469120024,None,898.7847469120024,None,0.6994870910129976,900.5858219590009,None,900.5858219590009,None,5,1,0.7841966450068867,901.2717146919895,None,901.2717146919895,None,901.2717146919895,None,902.0725391279993,None,1,0.7680082620063331,902.0725391279993,None,84,902.8573295379902,None,145,A,1,2021_Jun_03_1452,GazeFlow,2020.1.2,59.76122307598574,
8,Block510.xls,A,,,,,,,,,,,,,,,,,,0,7,7,7,,,,,,,,,,,,,,,,,,,,,,,,,,,,,,,,,,,,,,,,,,,,145,A,1,2021_Jun_03_1452,GazeFlow,2020.1.2,59.76122307598574,
9,Block507.xls,A,7,1,110,50,22,incongruent,Left,Right,Left,66,65,1,yellow,2,5,/home/docky/apps/exp/images/66Y.jpeg,/home/docky/apps/exp/images/35Bi.jpeg,0,8,8,8,0,0,0,0,925.9861056869995,None,925.9861056869995,None,1,5.12024801800726,925.9861056869995,None,931.1297941989906,None,931.1297941989906,None,933.6515639939898,None,933.6515639939898,None,0.6986909540137276,935.4551806050004,None,935.4551806050004,None,5,1,0.7675856470013969,936.139322759991,None,936.139322759991,None,936.139322759991,None,936.9236283429927,None,1,0.817914335988462,936.9236283429927,None,86,937.7583526379894,None,145,A,1,2021_Jun_03_1452,GazeFlow,2020.1.2,59.76122307598574,
9,Block507.xls,A,7,2,90,30,22,incongruent,Right,Left,Right,16,19,3,blue,2,6,/home/docky/apps/exp/images/16Bi.jpeg,/home/docky/apps/exp/images/19B.jpeg,0,8,8,8,0,1,1,1,938.7604933239927,None,938.7604933239927,None,1,2.222087930989801,938.7604933239927,None,941.0157526690018,None,941.0157526690018,None,943.5188756939897,None,943.5188756939897,None,0.7163405700121075,945.3169943469984,None,945.3169943469984,None,6,1,0.7340659750043415,946.0252506669931,None,946.0252506669931,None,946.0252506669931,None,946.7758870529942,None,1,0.6013329310080735,946.7758870529942,None,88,947.3939561379957,None,145,A,1,2021_Jun_03_1452,GazeFlow,2020.1.2,59.76122307598574,
9,Block507.xls,A,7,3,16,16,11,congruent,Left,Left,Right,33,35,2,yellow,2,6,/home/docky/apps/exp/images/33Yi.jpeg,/home/docky/apps/exp/images/35Y.jpeg,0,8,8,8,0,2,2,2,948.3957151149953,None,948.3957151149953,None,1,1.887622616995941,948.3957151149953,None,950.3173373710015,None,950.3173373710015,None,952.822317676997,None,952.822317676997,None,0.7164006380044157,954.6240487460018,None,954.6240487460018,None,5,0,0.7844830359972548,955.3266355939995,None,955.3266355939995,None,955.3266355939995,None,956.1273543689895,None,1,0.6683767170034116,956.1273543689895,None,86,956.8120389139949,None,145,A,1,2021_Jun_03_1452,GazeFlow,2020.1.2,59.76122307598574,
9,Block507.xls,A,7,4,117,57,22,incongruent,Left,Right,Left,77,72,5,yellow,2,5,/home/docky/apps/exp/images/77Y.jpeg,/home/docky/apps/exp/images/72Yi.jpeg,0,8,8,8,0,3,3,3,957.8143330979947,None,957.8143330979947,None,1,2.822670918991207,957.8143330979947,None,960.6703848899924,None,960.6703848899924,None,963.1739586879994,None,963.1739586879994,None,0.7162492839997867,964.9773238039925,None,964.9773238039925,None,5,1,0.7676758739980869,965.6799386969942,None,965.6799386969942,None,965.6799386969942,None,966.4643500889943,None,1,0.7513862670020899,966.4643500889943,None,88,967.2323709829943,None,145,A,1,2021_Jun_03_1452,GazeFlow,2020.1.2,59.76122307598574,
9,Block507.xls,A,7,5,53,53,12,congruent,Right,Right,Left,75,69,6,yellow,2,5,/home/docky/apps/exp/images/76Yi.jpeg,/home/docky/apps/exp/images/69Y.jpeg,0,8,8,8,0,4,4,4,968.2344866310013,None,968.2344866310013,None,1,2.7396606410038657,968.2344866310013,None,971.0083291179908,None,971.0083291179908,None,973.5123802149901,None,973.5123802149901,None,0.7492965900019044,975.3099418409984,None,975.3099418409984,None,5,1,0.7510454400035087,976.0501125879964,None,976.0501125879964,None,976.0501125879964,None,976.8177452689997,None,1,1.0024304819962708,976.8177452689997,None,90,977.836790196001,None,145,A,1,2021_Jun_03_1452,GazeFlow,2020.1.2,59.76122307598574,
9,Block507.xls,A,7,6,96,36,22,incongruent,Left,Right,Left,66,65,1,blue,2,5,/home/docky/apps/exp/images/66Bi.jpeg,/home/docky/apps/exp/images/35Y.jpeg,0,8,8,8,0,5,5,5,978.8382805589936,None,978.8382805589936,None,1,2.7732270039996365,978.8382805589936,None,981.6447569759912,None,981.6447569759912,None,984.1476159640006,None,984.1476159640006,None,0.7163021980086342,985.9509850329923,None,985.9509850329923,None,6,0,0.7344445939961588,986.6539847779932,None,986.6539847779932,None,986.6539847779932,None,987.4050228209962,None,1,0.6511394440021832,987.4050228209962,None,88,988.0729517329892,None,145,A,1,2021_Jun_03_1452,GazeFlow,2020.1.2,59.76122307598574,
9,Block507.xls,A,7,7,58,58,12,congruent,Right,Right,Left,77,72,5,yellow,2,5,/home/docky/apps/exp/images/77Yi.jpeg,/home/docky/apps/exp/images/72Y.jpeg,0,8,8,8,0,6,6,6,989.074920375002,None,989.074920375002,None,1,2.622834995010635,989.074920375002,None,991.7310842439911,None,991.7310842439911,None,994.2336096880026,None,994.2336096880026,None,0.7663197450019652,996.037032481996,None,996.037032481996,None,5,1,0.8010569489997579,996.7901333810005,None,996.7901333810005,None,996.7901333810005,None,997.6080910000019,None,1,0.7517915869975695,997.6080910000019,None,90,998.3764810900029,None,145,A,1,2021_Jun_03_1452,GazeFlow,2020.1.2,59.76122307598574,
9,Block507.xls,A,7,8,41,41,12,congruent,Right,Right,Left,79,76,3,blue,2,5,/home/docky/apps/exp/images/79Bi.jpeg,/home/docky/apps/exp/images/76B.jpeg,0,8,8,8,0,7,7,7,999.3780472179933,None,999.3780472179933,None,1,3.4742253820004407,999.3780472179933,None,1002.8860518079891,None,1002.8860518079891,None,1005.3892934839969,None,1005.3892934839969,None,0.7330339430045569,1007.1876317900023,None,1007.1876317900023,None,5,1,0.800931721998495,1007.9121669110027,None,1007.9121669110027,None,1007.9121669110027,None,1008.7296643629961,None,1,0.7013295930082677,1008.7296643629961,None,92,1009.4479496119893,None,145,A,1,2021_Jun_03_1452,GazeFlow,2020.1.2,59.76122307598574,
9,Block507.xls,A,,,,,,,,,,,,,,,,,,0,8,8,8,,,,,,,,,,,,,,,,,,,,,,,,,,,,,,,,,,,,,,,,,,,,145,A,1,2021_Jun_03_1452,GazeFlow,2020.1.2,59.76122307598574,
10,Block515.xls,A,15,1,107,47,22,incongruent,Left,Right,Left,35,33,2,yellow,2,5,/home/docky/apps/exp/images/35Yi.jpeg,/home/docky/apps/exp/images/33Y.jpeg,0,9,9,9,0,0,0,0,1028.5184776940005,None,1028.5184776940005,None,1,5.365306166000664,1028.5184776940005,None,1033.9183026249957,None,1033.9183026249957,None,1036.4345634749916,None,1036.4345634749916,None,0.6820851790107554,1038.2316582069907,None,1038.2316582069907,None,5,1,0.8175655459926929,1038.9055291429977,None,1038.9055291429977,None,1038.9055291429977,None,1039.7400912229932,None,1,0.7345702079910552,1039.7400912229932,None,94,1040.4911908950016,None,145,A,1,2021_Jun_03_1452,GazeFlow,2020.1.2,59.76122307598574,
10,Block515.xls,A,15,2,55,55,12,congruent,Right,Right,Left,76,69,7,yellow,2,5,/home/docky/apps/exp/images/76Yi.jpeg,/home/docky/apps/exp/images/69Y.jpeg,0,9,9,9,0,1,1,1,1041.493197732998,None,1041.493197732998,None,1,4.192026449003606,1041.493197732998,None,1045.717584154001,None,1045.717584154001,None,1048.2221427539916,None,1048.2221427539916,None,0.7663656590011669,1050.0258098209888,None,1050.0258098209888,None,5,1,0.767541049994179,1050.7788204719982,None,1050.7788204719982,None,1050.7788204719982,None,1051.5627402120008,None,1,0.7183987390017137,1051.5627402120008,None,96,1052.2974511459906,None,145,A,1,2021_Jun_03_1452,GazeFlow,2020.1.2,59.76122307598574,
10,Block515.xls,A,15,3,75,15,21,incongruent,Right,Left,Right,33,35,2,yellow,2,6,/home/docky/apps/exp/images/33Yi.jpeg,/home/docky/apps/exp/images/35Y.jpeg,0,9,9,9,0,2,2,2,1053.2998380899953,None,1053.2998380899953,None,1,3.4737985259998823,1053.2998380899953,None,1056.805272529993,None,1056.805272529993,None,1059.3106085920008,None,1059.3106085920008,None,0.7497191479924368,1061.1135468360008,None,1061.1135468360008,None,6,1,0.750593011995079,1061.8502820419963,None,1061.8502820419963,None,1061.8502820419963,None,1062.6179301069933,None,1,0.6342076220025774,1062.6179301069933,None,98,1063.2687150939892,None,145,A,1,2021_Jun_03_1452,GazeFlow,2020.1.2,59.76122307598574,
10,Block515.xls,A,15,4,62,2,21,incongruent,Right,Left,Right,35,38,3,blue,2,6,/home/docky/apps/exp/images/35Bi.jpeg,/home/docky/apps/exp/images/38B.jpeg,0,9,9,9,0,3,3,3,1064.2709605779964,None,1064.2709605779964,None,1,3.240209851996042,1064.2709605779964,None,1067.5432189409912,None,1067.5432189409912,None,1070.047198123997,None,1070.047198123997,None,0.8167091359937331,1071.8501066850004,None,1071.8501066850004,None,6,1,0.8176688320090761,1072.654437514997,None,1072.654437514997,None,1072.654437514997,None,1073.4886526479968,None,1,0.6351682949898532,1073.4886526479968,None,100,1074.1404853179993,None,145,A,1,2021_Jun_03_1452,GazeFlow,2020.1.2,59.76122307598574,
10,Block515.xls,A,15,5,100,40,22,incongruent,Left,Right,Left,79,76,3,blue,2,5,/home/docky/apps/exp/images/79Bi.jpeg,/home/docky/apps/exp/images/76B.jpeg,0,9,9,9,0,4,4,4,1075.142069220994,None,1075.142069220994,None,1,2.7392951770016225,1075.142069220994,None,1077.9150754430011,None,1077.9150754430011,None,1080.4179043850017,None,1080.4179043850017,None,0.6994070709915832,1082.2167436719901,None,1082.2167436719901,None,5,1,0.8009088979888475,1082.907649543995,None,1082.907649543995,None,1082.907649543995,None,1083.7254800149967,None,1,0.7514677830040455,1083.7254800149967,None,102,1084.4935141719907,None,145,A,1,2021_Jun_03_1452,GazeFlow,2020.1.2,59.76122307598574,
10,Block515.xls,A,15,6,108,48,22,incongruent,Left,Right,Left,39,38,1,yellow,2,5,/home/docky/apps/exp/images/39Y.jpeg,/home/docky/apps/exp/images/38Yi.jpeg,0,9,9,9,0,5,5,5,1085.4957528889936,None,1085.4957528889936,None,1,2.9064135369990254,1085.4957528889936,None,1088.4353947060008,None,1088.4353947060008,None,1090.942871555002,None,1090.942871555002,None,1.3007234579999931,1092.741329462995,None,1092.741329462995,None,6,0,0.7004312700009905,1094.029254693989,None,1094.029254693989,None,1094.029254693989,None,1094.7467015360016,None,1,0.6348791190102929,1094.7467015360016,None,100,1095.3978895399923,None,145,A,1,2021_Jun_03_1452,GazeFlow,2020.1.2,59.76122307598574,
10,Block515.xls,A,15,7,59,59,12,congruent,Right,Right,Left,80,79,1,yellow,2,5,/home/docky/apps/exp/images/80Y.jpeg,/home/docky/apps/exp/images/79Yi.jpeg,0,9,9,9,0,6,6,6,1096.3999005069927,None,1096.3999005069927,None,1,2.5222777720045997,1096.3999005069927,None,1098.955930512995,None,1098.955930512995,None,1101.4608830569923,None,1101.4608830569923,None,0.6993960919935489,1103.2575427190022,None,1103.2575427190022,None,5,1,0.7842043150012614,1103.9484111479978,None,1103.9484111479978,None,1103.9484111479978,None,1104.7494215619954,None,1,0.6345816959947115,1104.7494215619954,None,102,1105.4007599619945,None,145,A,1,2021_Jun_03_1452,GazeFlow,2020.1.2,59.76122307598574,
10,Block515.xls,A,15,8,8,8,11,congruent,Left,Left,Right,38,39,1,blue,2,6,/home/docky/apps/exp/images/38B.jpeg,/home/docky/apps/exp/images/39Bi.jpeg,0,9,9,9,0,7,7,7,1106.402414723998,None,1106.402414723998,None,1,3.0573933010018663,1106.402414723998,None,1109.490714073996,None,1109.490714073996,None,1111.997228031003,None,1111.997228031003,None,0.6830088209972018,1113.799187853001,None,1113.799187853001,None,6,1,0.7341821649897611,1114.4688372050005,None,1114.4688372050005,None,1114.4688372050005,None,1115.219998800996,None,1,0.6515608229965437,1115.219998800996,None,104,1115.887595237,None,145,A,1,2021_Jun_03_1452,GazeFlow,2020.1.2,59.76122307598574,
10,Block515.xls,A,,,,,,,,,,,,,,,,,,0,9,9,9,,,,,,,,,,,,,,,,,,,,,,,,,,,,,,,,,,,,,,,,,,,,145,A,1,2021_Jun_03_1452,GazeFlow,2020.1.2,59.76122307598574,
11,Block512.xls,A,12,1,30,30,11,congruent,Left,Left,Right,79,82,3,yellow,2,6,/home/docky/apps/exp/images/79Yi.jpeg,/home/docky/apps/exp/images/80Y.jpeg,0,10,10,10,0,0,0,0,1136.845345359994,None,1136.845345359994,None,1,4.736423567999736,1136.845345359994,None,1141.6081037519907,None,1141.6081037519907,None,1144.1251115329942,None,1144.1251115329942,None,0.6987456339993514,1145.9304828890017,None,1145.9304828890017,None,6,1,0.7508488830062561,1146.6147381679912,None,1146.6147381679912,None,1146.6147381679912,None,1147.3821764839959,None,1,0.5845035550009925,1147.3821764839959,None,106,1147.9833938059892,None,145,A,1,2021_Jun_03_1452,GazeFlow,2020.1.2,59.76122307598574,
11,Block512.xls,A,12,2,115,55,22,incongruent,Left,Right,Left,76,69,7,yellow,2,5,/home/docky/apps/exp/images/76Yi.jpeg,/home/docky/apps/exp/images/69Y.jpeg,0,10,10,10,0,1,1,1,1148.9852345499967,None,1148.9852345499967,None,1,2.3050995160010643,1148.9852345499967,None,1151.3249209829955,None,1151.3249209829955,None,1153.828979796992,None,1153.828979796992,None,0.6832915889972355,1155.6313642869936,None,1155.6313642869936,None,5,1,0.7509151770063909,1156.299969211992,None,1156.299969211992,None,1156.299969211992,None,1157.067714342993,None,1,0.6848998470086372,1157.067714342993,None,108,1157.7687255899946,None,145,A,1,2021_Jun_03_1452,GazeFlow,2020.1.2,59.76122307598574,
11,Block512.xls,A,12,3,66,6,21,incongruent,Right,Left,Right,38,39,1,blue,2,6,/home/docky/apps/exp/images/38B.jpeg,/home/docky/apps/exp/images/39Bi.jpeg,0,10,10,10,0,2,2,2,1158.7711760660022,None,1158.7711760660022,None,1,2.722456174000399,1158.7711760660022,None,1161.5250285569928,None,1161.5250285569928,None,1164.032309451999,None,1164.032309451999,None,0.7160064140043687,1165.8358779970004,None,1165.8358779970004,None,6,1,0.7509659720089985,1166.536766071993,None,1166.536766071993,None,1166.536766071993,None,1167.304447477989,None,1,0.600918708005338,1167.304447477989,None,110,1167.9220270799997,None,145,A,1,2021_Jun_03_1452,GazeFlow,2020.1.2,59.76122307598574,
11,Block512.xls,A,12,4,35,35,12,congruent,Right,Right,Left,66,65,1,blue,2,5,/home/docky/apps/exp/images/66B.jpeg,/home/docky/apps/exp/images/35Yi.jpeg,0,10,10,10,0,3,3,3,1168.924036654993,None,1168.924036654993,None,1,2.005222532010521,1168.924036654993,None,1170.9624793080002,None,1170.9624793080002,None,1173.4653398020018,None,1173.4653398020018,None,0.7496908019966213,1175.2650533499982,None,1175.2650533499982,None,5,1,0.8512757499993313,1176.0050463789958,None,1176.0050463789958,None,1176.0050463789958,None,1176.872746494002,None,1,0.8021621980005875,1176.872746494002,None,112,1177.6914205089997,None,145,A,1,2021_Jun_03_1452,GazeFlow,2020.1.2,59.76122307598574,
11,Block512.xls,A,12,5,40,40,12,congruent,Right,Right,Left,79,76,3,blue,2,5,/home/docky/apps/exp/images/79Bi.jpeg,/home/docky/apps/exp/images/76B.jpeg,0,10,10,10,0,4,4,4,1178.6927129269898,None,1178.6927129269898,None,1,3.5746276110003237,1178.6927129269898,None,1182.301131070999,None,1182.301131070999,None,1184.8060770119919,None,1184.8060770119919,None,0.699562491994584,1186.609598672003,None,1186.609598672003,None,5,1,0.784690407992457,1187.2934606740018,None,1187.2934606740018,None,1187.2934606740018,None,1188.094719775996,None,1,0.7179193380143261,1188.094719775996,None,114,1188.8294625239942,None,145,A,1,2021_Jun_03_1452,GazeFlow,2020.1.2,59.76122307598574,
11,Block512.xls,A,12,6,64,4,21,incongruent,Right,Left,Right,65,66,1,blue,2,6,/home/docky/apps/exp/images/35Yi.jpeg,/home/docky/apps/exp/images/66B.jpeg,0,10,10,10,0,5,5,5,1189.8313980989915,None,1189.8313980989915,None,1,2.8232060550071765,1189.8313980989915,None,1192.687829870003,None,1192.687829870003,None,1195.192655257997,None,1195.192655257997,None,0.7996239960048115,1196.994141506002,None,1196.994141506002,None,6,1,0.8349135430034949,1197.7806659679918,None,1197.7806659679918,None,1197.7806659679918,None,1198.6318895909935,None,1,0.6517771479993826,1198.6318895909935,None,116,1199.300103237998,None,145,A,1,2021_Jun_03_1452,GazeFlow,2020.1.2,59.76122307598574,
11,Block512.xls,A,12,7,12,12,11,congruent,Left,Left,Right,76,79,3,blue,2,6,/home/docky/apps/exp/images/76B.jpeg,/home/docky/apps/exp/images/79Bi.jpeg,0,10,10,10,0,6,6,6,1200.3016482039966,None,1200.3016482039966,None,1,3.240871743997559,1200.3016482039966,None,1203.575991040998,None,1203.575991040998,None,1206.0807910269941,None,1206.0807910269941,None,0.5657128549937624,1207.8825264920015,None,1207.8825264920015,None,6,1,0.7679957790096523,1208.4345673399948,None,1208.4345673399948,None,1208.4345673399948,None,1209.2188733029907,None,1,0.7182006430084584,1209.2188733029907,None,118,1209.9537779129896,None,145,A,1,2021_Jun_03_1452,GazeFlow,2020.1.2,59.76122307598574,
11,Block512.xls,A,12,8,49,49,12,congruent,Right,Right,Left,39,38,1,yellow,2,5,/home/docky/apps/exp/images/39Y.jpeg,/home/docky/apps/exp/images/38Yi.jpeg,0,10,10,10,0,7,7,7,1210.9556600039941,None,1210.9556600039941,None,1,2.639178907003952,1210.9556600039941,None,1213.6285711329983,None,1213.6285711329983,None,1216.1320109969965,None,1216.1320109969965,None,0.6996653499954846,1217.9341565209907,None,1217.9341565209907,None,5,1,0.7675332049984718,1218.6212312729913,None,1218.6212312729913,None,1218.6212312729913,None,1219.405445409997,None,1,0.7516763059975347,1219.405445409997,None,120,1220.1733512359933,None,145,A,1,2021_Jun_03_1452,GazeFlow,2020.1.2,59.76122307598574,
11,Block512.xls,A,,,,,,,,,,,,,,,,,,0,10,10,10,,,,,,,,,,,,,,,,,,,,,,,,,,,,,,,,,,,,,,,,,,,,145,A,1,2021_Jun_03_1452,GazeFlow,2020.1.2,59.76122307598574,
12,Block503.xls,A,3,1,22,22,11,congruent,Left,Left,Right,62,65,3,yellow,2,6,/home/docky/apps/exp/images/38Bi.jpeg,/home/docky/apps/exp/images/35B.jpeg,0,11,11,11,0,0,0,0,1242.4502148119936,None,1242.4502148119936,None,1,4.279837366004358,1242.4502148119936,None,1246.757386133002,None,1246.757386133002,None,1249.2812663359946,None,1249.2812663359946,None,0.7323217499942984,1251.0666875059978,None,1251.0666875059978,None,6,1,0.7677809190063272,1251.785472906995,None,1251.785472906995,None,1251.785472906995,None,1252.5698670819984,None,1,0.5843535800086102,1252.5698670819984,None,122,1253.1716080089973,None,145,A,1,2021_Jun_03_1452,GazeFlow,2020.1.2,59.76122307598574,
12,Block503.xls,A,3,2,65,5,21,incongruent,Right,Left,Right,65,66,1,blue,2,6,/home/docky/apps/exp/images/35Y.jpeg,/home/docky/apps/exp/images/66Bi.jpeg,0,11,11,11,0,1,1,1,1254.1728707589937,None,1254.1728707589937,None,1,2.4889506309991702,1254.1728707589937,None,1256.6952918180032,None,1256.6952918180032,None,1259.2005222589942,None,1259.2005222589942,None,0.7494014769908972,1261.0026635599934,None,1261.0026635599934,None,5,0,0.7508083159918897,1261.7383776159986,None,1261.7383776159986,None,1261.7383776159986,None,1262.505864377992,None,1,0.7517750080005499,1262.505864377992,None,120,1263.2745597109897,None,145,A,1,2021_Jun_03_1452,GazeFlow,2020.1.2,59.76122307598574,
12,Block503.xls,A,3,3,76,16,21,incongruent,Right,Left,Right,33,35,2,yellow,2,6,/home/docky/apps/exp/images/33Y.jpeg,/home/docky/apps/exp/images/35Yi.jpeg,0,11,11,11,0,2,2,2,1264.2759998099937,None,1264.2759998099937,None,1,2.722627253999235,1264.2759998099937,None,1267.0325361709984,None,1267.0325361709984,None,1269.5370539470023,None,1269.5370539470023,None,0.7831990179984132,1271.337283624991,None,1271.337283624991,None,6,1,0.7508706069929758,1272.108343957996,None,1272.108343957996,None,1272.108343957996,None,1272.876162998,None,1,0.618051295998157,1272.876162998,None,122,1273.5107783029962,None,145,A,1,2021_Jun_03_1452,GazeFlow,2020.1.2,59.76122307598574,
12,Block503.xls,A,3,4,29,29,11,congruent,Left,Left,Right,79,82,3,yellow,2,6,/home/docky/apps/exp/images/79Y.jpeg,/home/docky/apps/exp/images/80Yi.jpeg,0,11,11,11,0,3,3,3,1274.5125756369962,None,1274.5125756369962,None,1,2.455545221004286,1274.5125756369962,None,1277.002635095996,None,1277.002635095996,None,1279.5105181719991,None,1279.5105181719991,None,0.7327864330000011,1281.3035900859977,None,1281.3035900859977,None,5,0,0.7677350749872858,1282.027746474996,None,1282.027746474996,None,1282.027746474996,None,1282.8120727719943,None,1,0.701129018998472,1282.8120727719943,None,120,1283.529831642998,None,145,A,1,2021_Jun_03_1452,GazeFlow,2020.1.2,59.76122307598574,
12,Block503.xls,A,3,5,103,43,22,incongruent,Left,Right,Left,39,38,1,blue,2,5,/home/docky/apps/exp/images/39Bi.jpeg,/home/docky/apps/exp/images/38B.jpeg,0,11,11,11,0,4,4,4,1284.531947615993,None,1284.531947615993,None,1,3.4239378399943234,1284.531947615993,None,1287.9897915439942,None,1287.9897915439942,None,1290.4946917810012,None,1290.4946917810012,None,0.7496164320036769,1292.2915416979959,None,1292.2915416979959,None,5,1,0.9512623729970073,1293.0323746319918,None,1293.0323746319918,None,1293.0323746319918,None,1294.000244070994,None,1,0.6685795929952292,1294.000244070994,None,122,1294.6851457579905,None,145,A,1,2021_Jun_03_1452,GazeFlow,2020.1.2,59.76122307598574,
12,Block503.xls,A,3,6,47,47,12,congruent,Right,Right,Left,35,33,2,yellow,2,5,/home/docky/apps/exp/images/35Yi.jpeg,/home/docky/apps/exp/images/33Y.jpeg,0,11,11,11,0,5,5,5,1295.6869581899955,None,1295.6869581899955,None,1,3.290356552999583,1295.6869581899955,None,1299.0111703820003,None,1299.0111703820003,None,1301.5141248599975,None,1301.5141248599975,None,0.7496348139975453,1303.311964220993,None,1303.311964220993,None,5,1,0.8344217700068839,1304.0537102569942,None,1304.0537102569942,None,1304.0537102569942,None,1304.9050996689912,None,1,0.7018023800046649,1304.9050996689912,None,124,1305.6230813669972,None,145,A,1,2021_Jun_03_1452,GazeFlow,2020.1.2,59.76122307598574,
12,Block503.xls,A,3,7,20,20,11,congruent,Left,Left,Right,65,66,1,yellow,2,6,/home/docky/apps/exp/images/35Bi.jpeg,/home/docky/apps/exp/images/66Y.jpeg,0,11,11,11,0,6,6,6,1306.6247384649905,None,1306.6247384649905,None,1,3.5410126940114424,1306.6247384649905,None,1310.1995309850026,None,1310.1995309850026,None,1312.702985883996,None,1312.702985883996,None,1.3004291069955798,1314.5078808059916,None,1314.5078808059916,None,6,1,0.9177421380009037,1315.793310449997,None,1315.793310449997,None,1315.793310449997,None,1316.7277764059982,None,1,0.635533648004639,1316.7277764059982,None,126,1317.3793786929891,None,145,A,1,2021_Jun_03_1452,GazeFlow,2020.1.2,59.76122307598574,
12,Block503.xls,A,3,8,27,27,11,congruent,Left,Left,Right,72,77,5,yellow,2,6,/home/docky/apps/exp/images/72Yi.jpeg,/home/docky/apps/exp/images/77Y.jpeg,0,11,11,11,0,7,7,7,1318.3811091819953,None,1318.3811091819953,None,1,4.793948867998552,1318.3811091819953,None,1323.208490413992,None,1323.208490413992,None,1325.7130361899908,None,1325.7130361899908,None,0.7327892019966384,1327.514914949992,None,1327.514914949992,None,6,1,0.7677120699954685,1328.2339749169914,None,1328.2339749169914,None,1328.2339749169914,None,1329.0181818629935,None,1,0.7180879590014229,1329.0181818629935,None,128,1329.7534085509978,None,145,A,1,2021_Jun_03_1452,GazeFlow,2020.1.2,59.76122307598574,
12,Block503.xls,A,,,,,,,,,,,,,,,,,,0,11,11,11,,,,,,,,,,,,,,,,,,,,,,,,,,,,,,,,,,,,,,,,,,,,145,A,1,2021_Jun_03_1452,GazeFlow,2020.1.2,59.76122307598574,
13,Block501.xls,A,1,1,54,54,12,congruent,Right,Right,Left,75,69,6,yellow,2,5,/home/docky/apps/exp/images/76Y.jpeg,/home/docky/apps/exp/images/69Yi.jpeg,0,12,12,12,0,0,0,0,1357.0740487889998,None,1357.0740487889998,None,1,4.967124123999383,1357.0740487889998,None,1362.069544560989,None,1362.069544560989,None,1364.5883798769937,None,1364.5883798769937,None,0.7488701840047725,1366.389899168993,None,1366.389899168993,None,5,1,0.8683344489982119,1367.1259830810013,None,1367.1259830810013,None,1367.1259830810013,None,1368.010511059998,None,1,0.903025752006215,1368.010511059998,None,130,1368.9291229279916,None,145,A,1,2021_Jun_03_1452,GazeFlow,2020.1.2,59.76122307598574,
13,Block501.xls,A,1,2,70,10,21,incongruent,Right,Left,Right,73,76,3,blue,2,6,/home/docky/apps/exp/images/73Bi.jpeg,/home/docky/apps/exp/images/76B.jpeg,0,12,12,12,0,1,1,1,1369.931022757999,None,1369.931022757999,None,1,2.489169647989911,1369.931022757999,None,1372.453620647997,None,1372.453620647997,None,1374.95692138499,None,1374.95692138499,None,0.7663798260036856,1376.7600900849939,None,1376.7600900849939,None,6,1,0.7842307039973093,1377.513100983997,None,1377.513100983997,None,1377.513100983997,None,1378.3137223119993,None,1,1.1532564170047408,1378.3137223119993,None,132,1379.4833349289984,None,145,A,1,2021_Jun_03_1452,GazeFlow,2020.1.2,59.76122307598574,
13,Block501.xls,A,1,3,84,24,21,incongruent,Right,Left,Right,69,76,7,yellow,2,6,/home/docky/apps/exp/images/69Yi.jpeg,/home/docky/apps/exp/images/76Y.jpeg,0,12,12,12,0,2,2,2,1380.4849358339998,None,1380.4849358339998,None,1,2.95672423299402,1380.4849358339998,None,1383.4765824679926,None,1383.4765824679926,None,1385.9800606679928,None,1385.9800606679928,None,0.7496338339988142,1387.7816453549895,None,1387.7816453549895,None,6,1,0.7509880249999696,1388.5175945869996,None,1388.5175945869996,None,1388.5175945869996,None,1389.2850625220017,None,1,0.7013708710001083,1389.2850625220017,None,134,1390.0032851549913,None,145,A,1,2021_Jun_03_1452,GazeFlow,2020.1.2,59.76122307598574,
13,Block501.xls,A,1,4,26,26,11,congruent,Left,Left,Right,69,75,6,yellow,2,6,/home/docky/apps/exp/images/69Y.jpeg,/home/docky/apps/exp/images/76Yi.jpeg,0,12,12,12,0,3,3,3,1391.005056376991,None,1391.005056376991,None,1,3.4075653749896446,1391.005056376991,None,1394.4463250209956,None,1394.4463250209956,None,1396.9491116040008,None,1396.9491116040008,None,0.6496901479986263,1398.7528872830007,None,1398.7528872830007,None,6,1,0.7509755349892657,1399.3889434489975,None,1399.3889434489975,None,1399.3889434489975,None,1400.1564051280002,None,1,0.7687142420036253,1400.1564051280002,None,136,1400.9410781100014,None,145,A,1,2021_Jun_03_1452,GazeFlow,2020.1.2,59.76122307598574,
13,Block501.xls,A,1,5,97,37,22,incongruent,Left,Right,Left,79,73,6,blue,2,5,/home/docky/apps/exp/images/79B.jpeg,/home/docky/apps/exp/images/73Bi.jpeg,0,12,12,12,0,4,4,4,1401.943416324997,None,1401.943416324997,None,1,2.538746054007788,1401.943416324997,None,1404.5140577639977,None,1404.5140577639977,None,1407.0188208280015,None,1407.0188208280015,None,0.7662615050066961,1408.8227639249963,None,1408.8227639249963,None,5,1,0.8012380700092763,1409.5752740780008,None,1409.5752740780008,None,1409.5752740780008,None,1410.3930301069922,None,1,0.7014701679872815,1410.3930301069922,None,138,1411.1111965869932,None,145,A,1,2021_Jun_03_1452,GazeFlow,2020.1.2,59.76122307598574,
13,Block501.xls,A,1,6,98,38,22,incongruent,Left,Right,Left,79,73,6,blue,2,5,/home/docky/apps/exp/images/79B.jpeg,/home/docky/apps/exp/images/73Bi.jpeg,0,12,12,12,0,5,5,5,1412.113200769003,None,1412.113200769003,None,1,3.156990132003557,1412.113200769003,None,1415.3035184530017,None,1415.3035184530017,None,1417.8096302369959,None,1417.8096302369959,None,0.7995081520057283,1419.6118462769955,None,1419.6118462769955,None,5,1,0.7842362869996578,1420.3964577680017,None,1420.3964577680017,None,1420.3964577680017,None,1421.1972459719982,None,1,0.7181153709971113,1421.1972459719982,None,140,1421.932852412996,None,145,A,1,2021_Jun_03_1452,GazeFlow,2020.1.2,59.76122307598574,
13,Block501.xls,A,1,7,77,17,21,incongruent,Right,Left,Right,65,66,1,yellow,2,6,/home/docky/apps/exp/images/35B.jpeg,/home/docky/apps/exp/images/66Yi.jpeg,0,12,12,12,0,6,6,6,1422.9339186979923,None,1422.9339186979923,None,1,2.9899512020056136,1422.9339186979923,None,1425.9581355050032,None,1425.9581355050032,None,1428.4622957469983,None,1428.4622957469983,None,0.7663766900077462,1430.2600919249962,None,1430.2600919249962,None,5,0,0.8679432549979538,1431.0170304109924,None,1431.0170304109924,None,1431.0170304109924,None,1431.901420684997,None,1,0.6684105919994181,1431.901420684997,None,138,1432.5865958979994,None,145,A,1,2021_Jun_03_1452,GazeFlow,2020.1.2,59.76122307598574,
13,Block501.xls,A,1,8,50,50,12,congruent,Right,Right,Left,66,65,1,yellow,2,5,/home/docky/apps/exp/images/66Y.jpeg,/home/docky/apps/exp/images/35Bi.jpeg,0,12,12,12,0,7,7,7,1433.5881871019956,None,1433.5881871019956,None,1,3.6242379830073332,1433.5881871019956,None,1437.2464625220018,None,1437.2464625220018,None,1439.750911064999,None,1439.750911064999,None,0.7495226850005565,1441.552937910994,None,1441.552937910994,None,5,1,0.8512706019973848,1442.288851291989,None,1442.288851291989,None,1442.288851291989,None,1443.1564984860015,None,1,0.7347507920057978,1443.1564984860015,None,140,1443.9082150899922,None,145,A,1,2021_Jun_03_1452,GazeFlow,2020.1.2,59.76122307598574,
13,Block501.xls,A,,,,,,,,,,,,,,,,,,0,12,12,12,,,,,,,,,,,,,,,,,,,,,,,,,,,,,,,,,,,,,,,,,,,,145,A,1,2021_Jun_03_1452,GazeFlow,2020.1.2,59.76122307598574,
14,Block513.xls,A,13,1,32,32,12,congruent,Right,Right,Left,19,16,3,blue,2,5,/home/docky/apps/exp/images/19B.jpeg,/home/docky/apps/exp/images/16Bi.jpeg,0,13,13,13,0,0,0,0,1464.7678016339923,None,1464.7678016339923,None,1,4.2790006849973,1464.7678016339923,None,1469.072289607997,None,1469.072289607997,None,1471.5963961050002,None,1471.5963961050002,None,0.7322975400020368,1473.4000073859934,None,1473.4000073859934,None,5,1,0.8340676910011098,1474.1175375239982,None,1474.1175375239982,None,1474.1175375239982,None,1474.968279652996,None,1,0.7189141980052227,1474.968279652996,None,142,1475.703553083993,None,145,A,1,2021_Jun_03_1452,GazeFlow,2020.1.2,59.76122307598574,
14,Block513.xls,A,13,2,81,21,21,incongruent,Right,Left,Right,38,39,1,yellow,2,6,/home/docky/apps/exp/images/38Yi.jpeg,/home/docky/apps/exp/images/39Y.jpeg,0,13,13,13,0,1,1,1,1476.705178292992,None,1476.705178292992,None,1,2.7894121450081,1476.705178292992,None,1479.5286369499954,None,1479.5286369499954,None,1482.0312162799964,None,1482.0312162799964,None,0.7662298659997759,1483.8364262789983,None,1483.8364262789983,None,6,1,0.7675655469938647,1484.5877172170003,None,1484.5877172170003,None,1484.5877172170003,None,1485.3722243859957,None,1,0.7349962269945536,1485.3722243859957,None,144,1486.1237174159905,None,145,A,1,2021_Jun_03_1452,GazeFlow,2020.1.2,59.76122307598574,
14,Block513.xls,A,13,3,92,32,22,incongruent,Left,Right,Left,19,16,3,blue,2,5,/home/docky/apps/exp/images/19B.jpeg,/home/docky/apps/exp/images/16Bi.jpeg,0,13,13,13,0,2,2,2,1487.1253723139962,None,1487.1253723139962,None,1,2.322158857001341,1487.1253723139962,None,1489.481068647001,None,1489.481068647001,None,1491.9858275139995,None,1491.9858275139995,None,0.7330730779940495,1493.7875580809923,None,1493.7875580809923,None,5,1,0.7845272990089143,1494.506746990999,None,1494.506746990999,None,1494.506746990999,None,1495.3078344709938,None,1,0.6682759679970331,1495.3078344709938,None,146,1495.9925027159916,None,145,A,1,2021_Jun_03_1452,GazeFlow,2020.1.2,59.76122307598574,
14,Block513.xls,A,13,4,6,6,11,congruent,Left,Left,Right,65,66,1,blue,2,6,/home/docky/apps/exp/images/35Y.jpeg,/home/docky/apps/exp/images/66Bi.jpeg,0,13,13,13,0,3,3,3,1496.994638242002,None,1496.994638242002,None,1,2.939373960994999,1496.994638242002,None,1499.9665163659956,None,1499.9665163659956,None,1502.471124839998,None,1502.471124839998,None,0.7329983300005551,1504.269145896993,None,1504.269145896993,None,6,1,0.7512745790008921,1504.9937198400003,None,1504.9937198400003,None,1504.9937198400003,None,1505.7614556329936,None,1,0.5681835379946278,1505.7614556329936,None,148,1506.3459036989952,None,145,A,1,2021_Jun_03_1452,GazeFlow,2020.1.2,59.76122307598574,
14,Block513.xls,A,13,5,67,7,21,incongruent,Right,Left,Right,38,39,1,blue,2,6,/home/docky/apps/exp/images/38Bi.jpeg,/home/docky/apps/exp/images/39B.jpeg,0,13,13,13,0,4,4,4,1507.3479310969997,None,1507.3479310969997,None,1,2.6897478150058305,1507.3479310969997,None,1510.0715609170002,None,1510.0715609170002,None,1512.5754422390019,None,1512.5754422390019,None,0.7830772489978699,1514.379574947001,None,1514.379574947001,None,6,1,0.7508156449912349,1515.1472722280014,None,1515.1472722280014,None,1515.1472722280014,None,1515.9149146669952,None,1,0.5842835399962496,1515.9149146669952,None,150,1516.5158603229938,None,145,A,1,2021_Jun_03_1452,GazeFlow,2020.1.2,59.76122307598574,
14,Block513.xls,A,13,6,111,51,22,incongruent,Left,Right,Left,66,65,1,yellow,2,5,/home/docky/apps/exp/images/66Yi.jpeg,/home/docky/apps/exp/images/35B.jpeg,0,13,13,13,0,5,5,5,1517.5176497099892,None,1517.5176497099892,None,1,2.2383421810081927,1517.5176497099892,None,1519.7880399389978,None,1519.7880399389978,None,1522.2947331809992,None,1522.2947331809992,None,0.7494590309943305,1524.0967218839942,None,1524.0967218839942,None,6,0,0.7843957930017496,1524.8325264860032,None,1524.8325264860032,None,1524.8325264860032,None,1525.6335684079968,None,1,0.5678890959970886,1525.6335684079968,None,148,1526.2180732109991,None,145,A,1,2021_Jun_03_1452,GazeFlow,2020.1.2,59.76122307598574,
14,Block513.xls,A,13,7,88,28,21,incongruent,Right,Left,Right,79,82,3,yellow,2,6,/home/docky/apps/exp/images/79Y.jpeg,/home/docky/apps/exp/images/80Yi.jpeg,0,13,13,13,0,6,6,6,1527.2200150930003,None,1527.2200150930003,None,1,2.589024362998316,1527.2200150930003,None,1529.8427234400006,None,1529.8427234400006,None,1532.3517235109903,None,1532.3517235109903,None,0.7827990869991481,1534.1443350339978,None,1534.1443350339978,None,6,1,0.7843800950067816,1534.9188188559929,None,1534.9188188559929,None,1534.9188188559929,None,1535.719710461999,None,1,0.6013914690120146,1535.719710461999,None,150,1536.337602029991,None,145,A,1,2021_Jun_03_1452,GazeFlow,2020.1.2,59.76122307598574,
14,Block513.xls,A,13,8,14,14,11,congruent,Left,Left,Right,80,83,3,blue,2,6,/home/docky/apps/exp/images/80B.jpeg,/home/docky/apps/exp/images/83Bi.jpeg,0,13,13,13,0,7,7,7,1537.3393864300015,None,1537.3393864300015,None,1,4.2928168320067925,1537.3393864300015,None,1541.6657396459923,None,1541.6657396459923,None,1544.168923735997,None,1544.168923735997,None,0.716465467994567,1545.9739855160005,None,1545.9739855160005,None,6,1,0.8676259799976833,1546.6751039959927,None,1546.6751039959927,None,1546.6751039959927,None,1547.5592892269924,None,1,0.5682938050013036,1547.5592892269924,None,152,1548.144330651994,None,145,A,1,2021_Jun_03_1452,GazeFlow,2020.1.2,59.76122307598574,
14,Block513.xls,A,,,,,,,,,,,,,,,,,,0,13,13,13,,,,,,,,,,,,,,,,,,,,,,,,,,,,,,,,,,,,,,,,,,,,145,A,1,2021_Jun_03_1452,GazeFlow,2020.1.2,59.76122307598574,
15,Block514.xls,A,14,1,113,53,22,incongruent,Left,Right,Left,75,69,6,yellow,2,5,/home/docky/apps/exp/images/76Y.jpeg,/home/docky/apps/exp/images/69Yi.jpeg,0,14,14,14,0,0,0,0,1570.4725765350013,None,1570.4725765350013,None,1,4.26541582000209,1570.4725765350013,None,1574.7655714959983,None,1574.7655714959983,None,1577.2849822339922,None,1577.2849822339922,None,0.7487579729931895,1579.088671354999,None,1579.088671354999,None,5,1,0.7843902360036736,1579.8227304019965,None,1579.8227304019965,None,1579.8227304019965,None,1580.623534421,None,1,0.7349198209994938,1580.623534421,None,154,1581.374976645995,None,145,A,1,2021_Jun_03_1452,GazeFlow,2020.1.2,59.76122307598574,
15,Block514.xls,A,14,2,45,45,12,congruent,Right,Right,Left,39,38,1,blue,2,5,/home/docky/apps/exp/images/39B.jpeg,/home/docky/apps/exp/images/38Bi.jpeg,0,14,14,14,0,1,1,1,1582.3772657809895,None,1582.3772657809895,None,1,3.006593262005481,1582.3772657809895,None,1585.4172615019925,None,1585.4172615019925,None,1587.920831661002,None,1587.920831661002,None,0.8161739260103786,1589.7236120110028,None,1589.7236120110028,None,5,1,0.8011306999978842,1590.5266643459909,None,1590.5266643459909,None,1590.5266643459909,None,1591.3444125709939,None,1,0.6013234659912996,1591.3444125709939,None,156,1591.9623603809887,None,145,A,1,2021_Jun_03_1452,GazeFlow,2020.1.2,59.76122307598574,
15,Block514.xls,A,14,3,52,52,12,congruent,Right,Right,Left,75,69,6,yellow,2,5,/home/docky/apps/exp/images/76Y.jpeg,/home/docky/apps/exp/images/69Yi.jpeg,0,14,14,14,0,2,2,2,1592.964274108992,None,1592.964274108992,None,1,2.7398054500081344,1592.964274108992,None,1595.737518961003,None,1595.737518961003,None,1598.2403620669938,None,1598.2403620669938,None,0.7831291899929056,1600.0439600440004,None,1600.0439600440004,None,5,1,0.8013889199937694,1600.8134457129927,None,1600.8134457129927,None,1600.8134457129927,None,1601.6309134420007,None,1,0.7691329239896731,1601.6309134420007,None,158,1602.4165279559966,None,145,A,1,2021_Jun_03_1452,GazeFlow,2020.1.2,59.76122307598574,
15,Block514.xls,A,14,4,106,46,22,incongruent,Left,Right,Left,35,33,2,yellow,2,5,/home/docky/apps/exp/images/35Yi.jpeg,/home/docky/apps/exp/images/33Y.jpeg,0,14,14,14,0,3,3,3,1603.4180860139895,None,1603.4180860139895,None,1,3.0400088699971093,1603.4180860139895,None,1606.4917562789924,None,1606.4917562789924,None,1608.9950269849942,None,1608.9950269849942,None,0.7996796329971403,1610.7983147429914,None,1610.7983147429914,None,5,1,0.8514673309982754,1611.5842768930015,None,1611.5842768930015,None,1611.5842768930015,None,1612.451957657002,None,1,0.6517587379930774,1612.451957657002,None,160,1613.1200717780011,None,145,A,1,2021_Jun_03_1452,GazeFlow,2020.1.2,59.76122307598574,
15,Block514.xls,A,14,5,109,49,22,incongruent,Left,Right,Left,39,38,1,yellow,2,5,/home/docky/apps/exp/images/39Yi.jpeg,/home/docky/apps/exp/images/38Y.jpeg,0,14,14,14,0,4,4,4,1614.122320687995,None,1614.122320687995,None,1,2.7557814509927994,1614.122320687995,None,1616.9118184550025,None,1616.9118184550025,None,1619.4148677799967,None,1619.4148677799967,None,0.8332238349976251,1621.2134145669988,None,1621.2134145669988,None,5,1,0.8180598580074729,1622.0380091019906,None,1622.0380091019906,None,1622.0380091019906,None,1622.8725619799952,None,1,0.6177462939958787,1622.8725619799952,None,162,1623.5073307429993,None,145,A,1,2021_Jun_03_1452,GazeFlow,2020.1.2,59.76122307598574,
15,Block514.xls,A,14,6,89,29,21,incongruent,Right,Left,Right,79,82,3,yellow,2,6,/home/docky/apps/exp/images/79Yi.jpeg,/home/docky/apps/exp/images/80Y.jpeg,0,14,14,14,0,5,5,5,1624.508678993996,None,1624.508678993996,None,1,3.357399614993483,1624.508678993996,None,1627.9000391399895,None,1627.9000391399895,None,1630.4047100820026,None,1630.4047100820026,None,0.8332343859947287,1632.2010362489964,None,1632.2010362489964,None,6,1,0.7341925259970594,1633.0260166929947,None,1633.0260166929947,None,1633.0260166929947,None,1633.777042717993,None,1,0.5846867289947113,1633.777042717993,None,164,1634.378221758001,None,145,A,1,2021_Jun_03_1452,GazeFlow,2020.1.2,59.76122307598574,
15,Block514.xls,A,14,7,91,31,22,incongruent,Left,Right,Left,19,16,3,blue,2,5,/home/docky/apps/exp/images/19Bi.jpeg,/home/docky/apps/exp/images/16B.jpeg,0,14,14,14,0,6,6,6,1635.3799658369971,None,1635.3799658369971,None,1,2.7232429499999853,1635.3799658369971,None,1638.136437573994,None,1638.136437573994,None,1640.6410494360025,None,1640.6410494360025,None,0.7496301640057936,1642.4427884659963,None,1642.4427884659963,None,5,1,0.7842512200004421,1643.179099831992,None,1643.179099831992,None,1643.179099831992,None,1643.9802029249986,None,1,0.7013169369893149,1643.9802029249986,None,166,1644.6980440439947,None,145,A,1,2021_Jun_03_1452,GazeFlow,2020.1.2,59.76122307598574,
15,Block514.xls,A,14,8,79,19,21,incongruent,Right,Left,Right,62,65,3,yellow,2,6,/home/docky/apps/exp/images/38B.jpeg,/home/docky/apps/exp/images/35Bi.jpeg,0,14,14,14,0,7,7,7,1645.7001001829922,None,1645.7001001829922,None,1,3.357154374010861,1645.7001001829922,None,1649.0911404549988,None,1649.0911404549988,None,1651.5959311159968,None,1651.5959311159968,None,0.7165243229974294,1653.3978748629888,None,1653.3978748629888,None,6,1,0.7677697949984577,1654.1002750420012,None,1654.1002750420012,None,1654.1002750420012,None,1654.8844442659902,None,1,0.6181686799973249,1654.8844442659902,None,168,1655.5193016139965,None,145,A,1,2021_Jun_03_1452,GazeFlow,2020.1.2,59.76122307598574,
15,Block514.xls,A,,,,,,,,,,,,,,,,,,0,14,14,14,,,,,,,,,,,,,,,,,,,,,,,,,,,,,,,,,,,,,,,,,,,,145,A,1,2021_Jun_03_1452,GazeFlow,2020.1.2,59.76122307598574,
