Nblock,condsFile,grouping,Block,TrialBlock,N,trialN,trialCond,gazeCon,gazedirR,corrBinR,corrBinP,valLBY,valRBY,diff,colorCube,feedbacktext,corrAns,imageL,imageR,SelBlocks.thisRepN,SelBlocks.thisTrialN,SelBlocks.thisN,SelBlocks.thisIndex,Trials.thisRepN,Trials.thisTrialN,Trials.thisN,Trials.thisIndex,waitCube.started,waitCube.stopped,text_3.started,text_3.stopped,StartKeyPress.keys,StartKeyPress.rt,StartKeyPress.started,StartKeyPress.stopped,StimL.started,StimL.stopped,StimR.started,StimR.stopped,imageStim2L.started,imageStim2L.stopped,imageStim2R.started,imageStim2R.stopped,RTkeyRelease,imageStim3L.started,imageStim3L.stopped,imageStim3R.started,imageStim3R.stopped,dropResp.keys,dropResp.corr,dropResp.rt,dropResp.started,dropResp.stopped,imageStim5L.started,imageStim5L.stopped,imageStim5R.started,imageStim5R.stopped,text_2.started,text_2.stopped,ReturnSpace.keys,ReturnSpace.rt,ReturnSpace.started,ReturnSpace.stopped,totalpoints,textFeedback.started,textFeedback.stopped,participant,group,session,date,expName,psychopyVersion,frameRate,
1,Block809.xls,B,9,1,93,93,None,congruent,Right,Right,Left,80,79,1,yellow,2,5,/home/docky/apps/exp/images/80Y.jpeg,/home/docky/apps/exp/images/79Yi.jpeg,0,0,0,0,0,0,0,0,39.96872430100029,None,39.96872430100029,None,1,9.75696336799956,39.96872430100029,None,49.76023346300008,None,49.76023346300008,None,52.276233166000566,None,52.276233166000566,None,1.1826907780005058,54.07432419500037,None,54.07432419500037,None,5,1,0.9346790130002773,55.24560925100013,None,55.24560925100013,None,55.24560925100013,None,56.19656389500051,None,1,1.0185753300002034,56.19656389500051,None,2,57.23206680200019,None,146,B,1,2021_Jun_04_0919,GazeFlow,2020.1.2,59.913598838571446,
1,Block809.xls,B,9,2,15,15,None,congruent,Left,Left,Right,38,39,1,blue,2,6,/home/docky/apps/exp/images/38B.jpeg,/home/docky/apps/exp/images/39Bi.jpeg,0,0,0,0,0,1,1,1,58.23367085100017,None,58.23367085100017,None,1,6.263408597999842,58.23367085100017,None,64.53050595200057,None,64.53050595200057,None,67.03829698900063,None,67.03829698900063,None,1.4174467080001705,68.83676715300044,None,68.83676715300044,None,6,1,0.8345010010007172,70.24104508900018,None,70.24104508900018,None,70.24104508900018,None,71.09209419400031,None,1,0.6678330009999627,71.09209419400031,None,4,71.77670046000003,None,146,B,1,2021_Jun_04_0919,GazeFlow,2020.1.2,59.913598838571446,
1,Block809.xls,B,9,3,117,21,None,incongruent,Left,Right,Left,39,38,1,yellow,2,5,/home/docky/apps/exp/images/39Yi.jpeg,/home/docky/apps/exp/images/38Y.jpeg,0,0,0,0,0,2,2,2,72.77858795300017,None,72.77858795300017,None,1,6.129412158999912,72.77858795300017,None,78.94171347000065,None,78.94171347000065,None,81.4450357450005,None,81.4450357450005,None,0.9837809959999504,83.24752587300009,None,83.24752587300009,None,6,0,0.9178603150003255,84.21815648300071,None,84.21815648300071,None,84.21815648300071,None,85.15265657600048,None,1,0.9191201069997987,85.15265657600048,None,2,86.08822386000065,None,146,B,1,2021_Jun_04_0919,GazeFlow,2020.1.2,59.913598838571446,
1,Block809.xls,B,9,4,94,94,None,congruent,Right,Right,Left,80,79,1,yellow,2,5,/home/docky/apps/exp/images/80Y.jpeg,/home/docky/apps/exp/images/79Yi.jpeg,0,0,0,0,0,3,3,3,87.08991607999997,None,87.08991607999997,None,1,6.713583775000188,87.08991607999997,None,93.83733284400023,None,93.83733284400023,None,96.3401265070006,None,96.3401265070006,None,1.0169358929997543,98.13823097500062,None,98.13823097500062,None,5,1,0.8844902479995653,99.14709119100007,None,99.14709119100007,None,99.14709119100007,None,100.04798849600047,None,1,0.8526530310000453,100.04798849600047,None,4,100.91705157900014,None,146,B,1,2021_Jun_04_0919,GazeFlow,2020.1.2,59.913598838571446,
1,Block809.xls,B,9,5,41,41,None,congruent,Right,Right,Left,79,76,3,blue,2,5,/home/docky/apps/exp/images/79Bi.jpeg,/home/docky/apps/exp/images/76B.jpeg,0,0,0,0,0,4,4,4,101.91849059800006,None,101.91849059800006,None,1,6.614109748999908,101.91849059800006,None,108.57106729200041,None,108.57106729200041,None,111.07056569700035,None,111.07056569700035,None,1.4344737850005913,112.87244313800056,None,112.87244313800056,None,5,1,0.8852599060001012,114.2930465899999,None,114.2930465899999,None,114.2930465899999,None,115.19482981600049,None,1,0.9847974849999446,115.19482981600049,None,6,116.1960649270004,None,146,B,1,2021_Jun_04_0919,GazeFlow,2020.1.2,59.913598838571446,
1,Block809.xls,B,9,6,36,36,None,congruent,Right,Right,Left,79,73,6,blue,2,5,/home/docky/apps/exp/images/79Bi.jpeg,/home/docky/apps/exp/images/73B.jpeg,0,0,0,0,0,5,5,5,117.19912939599999,None,117.19912939599999,None,1,6.378887994000252,117.19912939599999,None,123.61182913100038,None,123.61182913100038,None,126.11529126599999,None,126.11529126599999,None,1.2841106320001927,127.9179760900006,None,127.9179760900006,None,5,1,0.9011336019993905,129.18885303200022,None,129.18885303200022,None,129.18885303200022,None,130.10675826900024,None,1,0.9685963450001509,130.10675826900024,None,8,131.0920058239999,None,146,B,1,2021_Jun_04_0919,GazeFlow,2020.1.2,59.913598838571446,
1,Block809.xls,B,9,7,78,78,None,congruent,Right,Right,Left,39,38,1,yellow,2,5,/home/docky/apps/exp/images/39Yi.jpeg,/home/docky/apps/exp/images/38Y.jpeg,0,0,0,0,0,6,6,6,132.09441219000018,None,132.09441219000018,None,1,7.013870400000087,132.09441219000018,None,139.1437966680005,None,139.1437966680005,None,141.64694962300018,None,141.64694962300018,None,1.300643153999772,143.4480581000007,None,143.4480581000007,None,5,1,0.917885658999694,144.73570897199988,None,144.73570897199988,None,144.73570897199988,None,145.67025718700006,None,1,0.785002177000024,145.67025718700006,None,10,146.4716843340002,None,146,B,1,2021_Jun_04_0919,GazeFlow,2020.1.2,59.913598838571446,
1,Block809.xls,B,9,8,29,29,None,congruent,Right,Right,Left,38,35,3,blue,2,5,/home/docky/apps/exp/images/38B.jpeg,/home/docky/apps/exp/images/35Bi.jpeg,0,0,0,0,0,7,7,7,147.4736722380003,None,147.4736722380003,None,1,6.430371918000674,147.4736722380003,None,153.93737429500015,None,153.93737429500015,None,156.44006109700058,None,156.44006109700058,None,1.2003967840000769,158.24343393300023,None,158.24343393300023,None,5,1,0.884723324999868,159.43109476100017,None,159.43109476100017,None,159.43109476100017,None,160.33223575800002,None,1,0.8355533609992563,160.33223575800002,None,12,161.1838983410007,None,146,B,1,2021_Jun_04_0919,GazeFlow,2020.1.2,59.913598838571446,
1,Block809.xls,B,,,,,,,,,,,,,,,,,,0,0,0,0,,,,,,,,,,,,,,,,,,,,,,,,,,,,,,,,,,,,,,,,,,,,146,B,1,2021_Jun_04_0919,GazeFlow,2020.1.2,59.913598838571446,
2,Block805.xls,B,5,1,16,16,None,congruent,Left,Left,Right,73,76,3,blue,2,6,/home/docky/apps/exp/images/73B.jpeg,/home/docky/apps/exp/images/76Bi.jpeg,0,1,1,1,0,0,0,0,182.3087254510001,None,182.3087254510001,None,1,6.800316189000114,182.3087254510001,None,189.14009352199992,None,189.14009352199992,None,191.6608128450007,None,191.6608128450007,None,1.2332595930001844,193.44757898600074,None,193.44757898600074,None,5,0,0.8007259360001626,194.66618970000036,None,194.66618970000036,None,194.66618970000036,None,195.48365442400063,None,1,0.8523099609992641,195.48365442400063,None,10,196.35247555600017,None,146,B,1,2021_Jun_04_0919,GazeFlow,2020.1.2,59.913598838571446,
2,Block805.xls,B,5,2,2,2,None,congruent,Left,Left,Right,16,19,3,blue,2,6,/home/docky/apps/exp/images/16B.jpeg,/home/docky/apps/exp/images/19Bi.jpeg,0,1,1,1,0,1,1,1,197.35377875199993,None,197.35377875199993,None,1,6.647601931999816,197.35377875199993,None,204.03467475800062,None,204.03467475800062,None,206.5377969400006,None,206.5377969400006,None,1.3007415199999741,208.34122631800074,None,208.34122631800074,None,6,1,0.8010962960006509,209.62837400700028,None,209.62837400700028,None,209.62837400700028,None,210.4462175260005,None,1,0.9017169029993966,210.4462175260005,None,12,211.36448542400012,None,146,B,1,2021_Jun_04_0919,GazeFlow,2020.1.2,59.913598838571446,
2,Block805.xls,B,5,3,64,64,None,congruent,Left,Left,Right,69,76,7,yellow,2,6,/home/docky/apps/exp/images/69Y.jpeg,/home/docky/apps/exp/images/76Yi.jpeg,0,1,1,1,0,2,2,2,212.3666003470007,None,212.3666003470007,None,1,5.210963470999559,212.3666003470007,None,217.61107647600056,None,217.61107647600056,None,220.11592114700034,None,220.11592114700034,None,1.1169299319999482,221.91970472400044,None,221.91970472400044,None,6,1,0.9178159940001933,223.02107194700056,None,223.02107194700056,None,223.02107194700056,None,223.95541759000025,None,1,1.085781347000193,223.95541759000025,None,14,225.0579725560001,None,146,B,1,2021_Jun_04_0919,GazeFlow,2020.1.2,59.913598838571446,
2,Block805.xls,B,5,4,61,61,None,congruent,Left,Left,Right,38,39,1,yellow,2,6,/home/docky/apps/exp/images/38Yi.jpeg,/home/docky/apps/exp/images/39Y.jpeg,0,1,1,1,0,3,3,3,226.0594354519999,None,226.0594354519999,None,1,6.263591868000731,226.0594354519999,None,232.35635408500002,None,232.35635408500002,None,234.86123363600018,None,234.86123363600018,None,1.1171846030001689,236.66427548000047,None,236.66427548000047,None,6,1,0.851141080999696,237.7663918040007,None,237.7663918040007,None,237.7663918040007,None,238.6342481520005,None,1,0.6181854870001189,238.6342481520005,None,16,239.269093848,None,146,B,1,2021_Jun_04_0919,GazeFlow,2020.1.2,59.913598838571446,
2,Block805.xls,B,5,5,23,23,None,congruent,Left,Left,Right,80,83,3,blue,2,6,/home/docky/apps/exp/images/80B.jpeg,/home/docky/apps/exp/images/83Bi.jpeg,0,1,1,1,0,4,4,4,240.27070678000018,None,240.27070678000018,None,1,6.212734843999897,240.27070678000018,None,246.51709224100068,None,246.51709224100068,None,249.02013123600045,None,249.02013123600045,None,1.2004184659999737,250.82370017300036,None,250.82370017300036,None,6,1,0.834241683000073,252.01077032500052,None,252.01077032500052,None,252.01077032500052,None,252.86174120800024,None,1,0.7188515119996737,252.86174120800024,None,18,253.59695698999985,None,146,B,1,2021_Jun_04_0919,GazeFlow,2020.1.2,59.913598838571446,
2,Block805.xls,B,5,6,87,87,None,congruent,Right,Right,Left,76,69,7,yellow,2,5,/home/docky/apps/exp/images/76Yi.jpeg,/home/docky/apps/exp/images/69Y.jpeg,0,1,1,1,0,5,5,5,254.5985140370003,None,254.5985140370003,None,1,6.36291639799947,254.5985140370003,None,260.99545542300075,None,260.99545542300075,None,263.4983653670006,None,263.4983653670006,None,1.2840295679998235,265.30235452800025,None,265.30235452800025,None,5,1,0.7677747600000657,266.57215671799986,None,266.57215671799986,None,266.57215671799986,None,267.35682270300003,None,1,0.8356810470004348,267.35682270300003,None,20,268.20877751100033,None,146,B,1,2021_Jun_04_0919,GazeFlow,2020.1.2,59.913598838571446,
2,Block805.xls,B,5,7,4,4,None,congruent,Left,Left,Right,35,38,3,blue,2,6,/home/docky/apps/exp/images/35B.jpeg,/home/docky/apps/exp/images/38Bi.jpeg,0,1,1,1,0,6,6,6,269.2102563690005,None,269.2102563690005,None,1,6.329611209999712,269.2102563690005,None,275.5737237050007,None,275.5737237050007,None,278.07694632400035,None,278.07694632400035,None,1.067032160999588,279.88019229400015,None,279.88019229400015,None,6,1,0.8844343029995798,280.93349957400005,None,280.93349957400005,None,280.93349957400005,None,281.83469897800023,None,1,0.7519477229998301,281.83469897800023,None,22,282.602805302,None,146,B,1,2021_Jun_04_0919,GazeFlow,2020.1.2,59.913598838571446,
2,Block805.xls,B,5,8,114,18,None,incongruent,Right,Left,Right,79,82,3,yellow,2,6,/home/docky/apps/exp/images/79Y.jpeg,/home/docky/apps/exp/images/80Yi.jpeg,0,1,1,1,0,7,7,7,283.6049034260004,None,283.6049034260004,None,1,5.427591968999877,283.6049034260004,None,289.06644235800013,None,289.06644235800013,None,291.56968286100073,None,291.56968286100073,None,1.2337366539995855,293.37280939599987,None,293.37280939599987,None,5,0,0.9846233380003468,294.59354182100014,None,294.59354182100014,None,294.59354182100014,None,295.5944881310006,None,1,0.9020679089999248,295.5944881310006,None,20,296.51322890700067,None,146,B,1,2021_Jun_04_0919,GazeFlow,2020.1.2,59.913598838571446,
2,Block805.xls,B,,,,,,,,,,,,,,,,,,0,1,1,1,,,,,,,,,,,,,,,,,,,,,,,,,,,,,,,,,,,,,,,,,,,,146,B,1,2021_Jun_04_0919,GazeFlow,2020.1.2,59.913598838571446,
3,Block804.xls,B,4,1,95,95,None,congruent,Right,Right,Left,80,79,1,yellow,2,5,/home/docky/apps/exp/images/80Yi.jpeg,/home/docky/apps/exp/images/79Y.jpeg,0,2,2,2,0,0,0,0,315.58378830699985,None,315.58378830699985,None,1,5.5150956790002965,315.58378830699985,None,321.1263255210006,None,321.1263255210006,None,323.65172908600016,None,323.65172908600016,None,1.183275655000216,325.4371785660005,None,325.4371785660005,None,5,1,0.8343176409998705,326.6055248210005,None,326.6055248210005,None,326.6055248210005,None,327.4567995560001,None,1,0.6015728319998743,327.4567995560001,None,22,328.07462679700075,None,146,B,1,2021_Jun_04_0919,GazeFlow,2020.1.2,59.913598838571446,
3,Block804.xls,B,4,2,107,11,None,incongruent,Left,Right,Left,83,80,3,blue,2,5,/home/docky/apps/exp/images/83Bi.jpeg,/home/docky/apps/exp/images/80B.jpeg,0,2,2,2,0,1,1,1,329.0765756710007,None,329.0765756710007,None,1,5.477942900000016,329.0765756710007,None,334.58816157,None,334.58816157,None,337.09141037000063,None,337.09141037000063,None,1.3340324169994346,338.8963317380003,None,338.8963317380003,None,5,1,0.767687620000288,340.2151330710003,None,340.2151330710003,None,340.2151330710003,None,340.9995224210006,None,1,1.5030984770000941,340.9995224210006,None,24,342.5192890920007,None,146,B,1,2021_Jun_04_0919,GazeFlow,2020.1.2,59.913598838571446,
3,Block804.xls,B,4,3,27,27,None,congruent,Right,Right,Left,19,16,3,blue,2,5,/home/docky/apps/exp/images/19Bi.jpeg,/home/docky/apps/exp/images/16B.jpeg,0,2,2,2,0,2,2,2,343.5214190480001,None,343.5214190480001,None,1,5.762056923999808,343.5214190480001,None,349.31673252700057,None,349.31673252700057,None,351.82010660300057,None,351.82010660300057,None,1.1171925759999795,353.6229367420001,None,353.6229367420001,None,5,1,0.8678127820003283,354.72687960000076,None,354.72687960000076,None,354.72687960000076,None,355.6113381490004,None,1,0.6685829090001789,355.6113381490004,None,26,356.296328337,None,146,B,1,2021_Jun_04_0919,GazeFlow,2020.1.2,59.913598838571446,
3,Block804.xls,B,4,4,101,5,None,incongruent,Right,Left,Right,76,79,3,blue,2,6,/home/docky/apps/exp/images/76B.jpeg,/home/docky/apps/exp/images/79Bi.jpeg,0,2,2,2,0,3,3,3,357.2978207750002,None,357.2978207750002,None,1,5.928931299000396,357.2978207750002,None,363.26057489899995,None,363.26057489899995,None,365.7635572580002,None,365.7635572580002,None,1.1669685340002616,367.56739552399995,None,367.56739552399995,None,5,0,0.834218750999753,368.7208441880002,None,368.7208441880002,None,368.7208441880002,None,369.5716445040007,None,1,0.5512283320003917,369.5716445040007,None,24,370.1393907450001,None,146,B,1,2021_Jun_04_0919,GazeFlow,2020.1.2,59.913598838571446,
3,Block804.xls,B,4,5,47,47,None,congruent,Right,Right,Left,39,38,1,blue,2,5,/home/docky/apps/exp/images/39Bi.jpeg,/home/docky/apps/exp/images/38B.jpeg,0,2,2,2,0,4,4,4,371.1413442110006,None,371.1413442110006,None,1,6.146166740999433,371.1413442110006,None,377.3214977110001,None,377.3214977110001,None,379.8244750820004,None,379.8244750820004,None,1.217300733999764,381.6275031989999,None,381.6275031989999,None,5,1,0.8177406599997994,382.8313803150004,None,382.8313803150004,None,382.8313803150004,None,383.66594514900044,None,1,0.8015576839998175,383.66594514900044,None,26,384.484112481,None,146,B,1,2021_Jun_04_0919,GazeFlow,2020.1.2,59.913598838571446,
3,Block804.xls,B,4,6,90,90,None,congruent,Right,Right,Left,77,72,5,yellow,2,5,/home/docky/apps/exp/images/77Yi.jpeg,/home/docky/apps/exp/images/72Y.jpeg,0,2,2,2,0,5,5,5,385.48605034499997,None,385.48605034499997,None,1,5.377641705999849,385.48605034499997,None,390.8973902410007,None,390.8973902410007,None,393.4009851640003,None,393.4009851640003,None,1.6177702909999425,395.2040732210007,None,395.2040732210007,None,5,1,0.8689351789998909,396.80828742500034,None,396.80828742500034,None,396.80828742500034,None,397.69295219300056,None,1,0.7851662060002127,397.69295219300056,None,28,398.4946775950002,None,146,B,1,2021_Jun_04_0919,GazeFlow,2020.1.2,59.913598838571446,
3,Block804.xls,B,4,7,12,12,None,congruent,Left,Left,Right,38,39,1,blue,2,6,/home/docky/apps/exp/images/38B.jpeg,/home/docky/apps/exp/images/39Bi.jpeg,0,2,2,2,0,6,6,6,399.4967826920001,None,399.4967826920001,None,1,6.279290272999788,399.4967826920001,None,405.81028355299986,None,405.81028355299986,None,408.3129331420005,None,408.3129331420005,None,1.234129579999717,410.11109975599993,None,410.11109975599993,None,6,1,0.9179175009994651,411.33680174000074,None,411.33680174000074,None,411.33680174000074,None,412.27125639800033,None,1,0.9018563899999208,412.27125639800033,None,30,413.1896759179999,None,146,B,1,2021_Jun_04_0919,GazeFlow,2020.1.2,59.913598838571446,
3,Block804.xls,B,4,8,20,20,None,congruent,Left,Left,Right,76,79,3,blue,2,6,/home/docky/apps/exp/images/76Bi.jpeg,/home/docky/apps/exp/images/79B.jpeg,0,2,2,2,0,7,7,7,414.1924003970007,None,414.1924003970007,None,1,5.511131896999359,414.1924003970007,None,419.73696298600044,None,419.73696298600044,None,422.24141813200004,None,422.24141813200004,None,1.7183628900002077,424.03776032600035,None,424.03776032600035,None,6,1,0.9015824090001843,425.7483752150001,None,425.7483752150001,None,425.7483752150001,None,426.66645085300024,None,1,0.8346864660006759,426.66645085300024,None,32,427.51750810500016,None,146,B,1,2021_Jun_04_0919,GazeFlow,2020.1.2,59.913598838571446,
3,Block804.xls,B,,,,,,,,,,,,,,,,,,0,2,2,2,,,,,,,,,,,,,,,,,,,,,,,,,,,,,,,,,,,,,,,,,,,,146,B,1,2021_Jun_04_0919,GazeFlow,2020.1.2,59.913598838571446,
4,Block814.xls,B,14,1,99,3,None,incongruent,Right,Left,Right,65,66,1,blue,2,6,/home/docky/apps/exp/images/35Yi.jpeg,/home/docky/apps/exp/images/66B.jpeg,0,3,3,3,0,0,0,0,444.81842328699986,None,444.81842328699986,None,1,6.251958568999726,444.81842328699986,None,451.0962923350007,None,451.0962923350007,None,453.6194337320003,None,453.6194337320003,None,1.1998840770002062,455.4214113300004,None,455.4214113300004,None,5,0,0.7514778520007894,456.6079661600006,None,456.6079661600006,None,456.6079661600006,None,457.37575728499996,None,1,0.5349527590005891,457.37575728499996,None,30,457.927052172,None,146,B,1,2021_Jun_04_0919,GazeFlow,2020.1.2,59.913598838571446,
4,Block814.xls,B,14,2,34,34,None,congruent,Right,Right,Left,66,65,1,blue,2,5,/home/docky/apps/exp/images/66B.jpeg,/home/docky/apps/exp/images/35Yi.jpeg,0,3,3,3,0,1,1,1,458.92878455700065,None,458.92878455700065,None,1,6.797081185000025,458.92878455700065,None,465.76095800300027,None,465.76095800300027,None,468.2627616030004,None,468.2627616030004,None,1.067050869999548,470.06145476800066,None,470.06145476800066,None,5,1,0.7846297750002122,471.1195791800001,None,471.1195791800001,None,471.1195791800001,None,471.92062821200034,None,1,0.6685702510003466,471.92062821200034,None,32,472.6055420920002,None,146,B,1,2021_Jun_04_0919,GazeFlow,2020.1.2,59.913598838571446,
4,Block814.xls,B,14,3,91,91,None,congruent,Right,Right,Left,77,72,5,yellow,2,5,/home/docky/apps/exp/images/77Yi.jpeg,/home/docky/apps/exp/images/72Y.jpeg,0,3,3,3,0,2,2,2,473.60695631100043,None,473.60695631100043,None,1,5.261598297000091,473.60695631100043,None,478.90205950400014,None,478.90205950400014,None,481.40652719800073,None,481.40652719800073,None,1.3842509530004463,483.2100232520006,None,483.2100232520006,None,5,1,0.8009883489994536,484.579029472,None,484.579029472,None,484.579029472,None,485.3966600110007,None,1,0.6523014360000161,485.3966600110007,None,34,486.06501480299994,None,146,B,1,2021_Jun_04_0919,GazeFlow,2020.1.2,59.913598838571446,
4,Block814.xls,B,14,4,68,68,None,congruent,Left,Left,Right,72,77,5,yellow,2,6,/home/docky/apps/exp/images/72Yi.jpeg,/home/docky/apps/exp/images/77Y.jpeg,0,3,3,3,0,3,3,3,487.0665890099999,None,487.0665890099999,None,1,5.261309458999676,487.0665890099999,None,492.3614539710006,None,492.3614539710006,None,494.8659542100004,None,494.8659542100004,None,1.2838366539999697,496.6697295590002,None,496.6697295590002,None,6,1,0.867929823999475,497.93831472000056,None,497.93831472000056,None,497.93831472000056,None,498.82271033600045,None,1,0.7359360540003763,498.82271033600045,None,36,499.57473684400065,None,146,B,1,2021_Jun_04_0919,GazeFlow,2020.1.2,59.913598838571446,
4,Block814.xls,B,14,5,66,66,None,congruent,Left,Left,Right,69,76,7,yellow,2,6,/home/docky/apps/exp/images/69Yi.jpeg,/home/docky/apps/exp/images/76Y.jpeg,0,3,3,3,0,4,4,4,500.5765167740001,None,500.5765167740001,None,1,5.177069061000111,500.5765167740001,None,505.78719367300073,None,505.78719367300073,None,508.29036162300054,None,508.29036162300054,None,1.1172148460000244,510.0888134350007,None,510.0888134350007,None,6,1,0.8844349020000664,511.19745463100026,None,511.19745463100026,None,511.19745463100026,None,512.0984471400006,None,1,0.5686667079999097,512.0984471400006,None,38,512.6834887570003,None,146,B,1,2021_Jun_04_0919,GazeFlow,2020.1.2,59.913598838571446,
4,Block814.xls,B,14,6,115,19,None,incongruent,Left,Right,Left,80,79,1,yellow,2,5,/home/docky/apps/exp/images/80Yi.jpeg,/home/docky/apps/exp/images/79Y.jpeg,0,3,3,3,0,5,5,5,513.6851482680004,None,513.6851482680004,None,1,5.026791255999342,513.6851482680004,None,518.7459715410005,None,518.7459715410005,None,521.2507075190006,None,521.2507075190006,None,1.3671837600004437,523.0477894120004,None,523.0477894120004,None,5,1,1.0350713330008148,524.4065124220006,None,524.4065124220006,None,524.4065124220006,None,525.4582959910003,None,1,0.8009188859996357,525.4582959910003,None,40,526.2761932350004,None,146,B,1,2021_Jun_04_0919,GazeFlow,2020.1.2,59.913598838571446,
4,Block814.xls,B,14,7,9,9,None,congruent,Left,Left,Right,65,66,1,blue,2,6,/home/docky/apps/exp/images/35Yi.jpeg,/home/docky/apps/exp/images/66B.jpeg,0,3,3,3,0,6,6,6,527.2780311500001,None,527.2780311500001,None,1,5.5787928930003545,527.2780311500001,None,532.8909628330002,None,532.8909628330002,None,535.3930854420005,None,535.3930854420005,None,1.2673820709997017,537.1949073579999,None,537.1949073579999,None,6,1,0.8345520909997504,538.4503288870001,None,538.4503288870001,None,538.4503288870001,None,539.3012656179999,None,1,0.46848708699963026,539.3012656179999,None,42,539.7861060340001,None,146,B,1,2021_Jun_04_0919,GazeFlow,2020.1.2,59.913598838571446,
4,Block814.xls,B,14,8,14,14,None,congruent,Left,Left,Right,38,39,1,blue,2,6,/home/docky/apps/exp/images/38Bi.jpeg,/home/docky/apps/exp/images/39B.jpeg,0,3,3,3,0,7,7,7,540.7876034390001,None,540.7876034390001,None,1,6.714178203999836,540.7876034390001,None,547.5385483590007,None,547.5385483590007,None,550.038468232,None,550.038468232,None,1.133854729999257,551.8417884010005,None,551.8417884010005,None,6,1,0.7512596309998116,552.9619195080004,None,552.9619195080004,None,552.9619195080004,None,553.7295513859999,None,1,0.585315924000497,553.7295513859999,None,44,554.3308567250006,None,146,B,1,2021_Jun_04_0919,GazeFlow,2020.1.2,59.913598838571446,
4,Block814.xls,B,,,,,,,,,,,,,,,,,,0,3,3,3,,,,,,,,,,,,,,,,,,,,,,,,,,,,,,,,,,,,,,,,,,,,146,B,1,2021_Jun_04_0919,GazeFlow,2020.1.2,59.913598838571446,
5,Block812.xls,B,12,1,18,18,None,congruent,Left,Left,Right,73,76,3,blue,2,6,/home/docky/apps/exp/images/73B.jpeg,/home/docky/apps/exp/images/76Bi.jpeg,0,4,4,4,0,0,0,0,577.4436939800007,None,577.4436939800007,None,1,6.150146472000415,577.4436939800007,None,583.6252855560006,None,583.6252855560006,None,586.1418181930003,None,586.1418181930003,None,1.2163666910000757,587.9466045700001,None,587.9466045700001,None,5,0,0.7842983730006381,589.1488910480002,None,589.1488910480002,None,589.1488910480002,None,589.9498733010005,None,1,0.8522793510001065,589.9498733010005,None,42,590.8186928069999,None,146,B,1,2021_Jun_04_0919,GazeFlow,2020.1.2,59.913598838571446,
5,Block812.xls,B,12,2,3,3,None,congruent,Left,Left,Right,16,19,3,blue,2,6,/home/docky/apps/exp/images/16Bi.jpeg,/home/docky/apps/exp/images/19B.jpeg,0,4,4,4,0,1,1,1,591.8201331690007,None,591.8201331690007,None,1,5.428150326999457,591.8201331690007,None,597.2817161880002,None,597.2817161880002,None,599.7851350020001,None,599.7851350020001,None,1.150270831000853,601.5870238370007,None,601.5870238370007,None,6,1,0.7344278330001544,602.7253367370004,None,602.7253367370004,None,602.7253367370004,None,603.4759722180006,None,1,0.5685358420005286,603.4759722180006,None,44,604.0609776830006,None,146,B,1,2021_Jun_04_0919,GazeFlow,2020.1.2,59.913598838571446,
5,Block812.xls,B,12,3,56,56,None,congruent,Left,Left,Right,62,65,3,yellow,2,6,/home/docky/apps/exp/images/38Bi.jpeg,/home/docky/apps/exp/images/35B.jpeg,0,4,4,4,0,2,2,2,605.0627163010004,None,605.0627163010004,None,1,9.351984453000114,605.0627163010004,None,614.4484775569999,None,614.4484775569999,None,616.9533325880002,None,616.9533325880002,None,1.1171695009998075,618.7550142320006,None,618.7550142320006,None,6,1,0.8680246449994229,619.8582940740007,None,619.8582940740007,None,619.8582940740007,None,620.7429053340002,None,1,0.6018321390001802,620.7429053340002,None,46,621.3611749290003,None,146,B,1,2021_Jun_04_0919,GazeFlow,2020.1.2,59.913598838571446,
5,Block812.xls,B,12,4,11,11,None,congruent,Left,Left,Right,38,39,1,blue,2,6,/home/docky/apps/exp/images/38B.jpeg,/home/docky/apps/exp/images/39Bi.jpeg,0,4,4,4,0,3,3,3,622.3627669650004,None,622.3627669650004,None,1,5.712335256000188,622.3627669650004,None,628.1078412330007,None,628.1078412330007,None,630.611575459,None,630.611575459,None,1.1839860300005967,632.4167056410006,None,632.4167056410006,None,6,1,0.8175615520003703,633.5851681180002,None,633.5851681180002,None,633.5851681180002,None,634.4194256800001,None,1,0.6018608459999086,634.4194256800001,None,48,635.037757172,None,146,B,1,2021_Jun_04_0919,GazeFlow,2020.1.2,59.913598838571446,
5,Block812.xls,B,12,5,116,20,None,incongruent,Left,Right,Left,35,33,2,yellow,2,5,/home/docky/apps/exp/images/35Yi.jpeg,/home/docky/apps/exp/images/33Y.jpeg,0,4,4,4,0,4,4,4,636.0397470500002,None,636.0397470500002,None,1,4.742851836999762,636.0397470500002,None,640.8160660829999,None,640.8160660829999,None,643.3207891790007,None,643.3207891790007,None,1.3175709369998003,645.1173775050001,None,645.1173775050001,None,5,1,0.8678517650005233,646.4267126459999,None,646.4267126459999,None,646.4267126459999,None,647.3111082510004,None,1,0.7021023190000051,647.3111082510004,None,50,648.0297291699999,None,146,B,1,2021_Jun_04_0919,GazeFlow,2020.1.2,59.913598838571446,
5,Block812.xls,B,12,6,40,40,None,congruent,Right,Right,Left,79,76,3,blue,2,5,/home/docky/apps/exp/images/79Bi.jpeg,/home/docky/apps/exp/images/76B.jpeg,0,4,4,4,0,5,5,5,649.0311881490006,None,649.0311881490006,None,1,6.029104981999808,649.0311881490006,None,655.0941107250001,None,655.0941107250001,None,657.5972297090002,None,657.5972297090002,None,1.2345305150001877,659.4001387500002,None,659.4001387500002,None,5,1,0.8013504669997928,660.6208401660006,None,660.6208401660006,None,660.6208401660006,None,661.4385637490004,None,1,0.7521509640000659,661.4385637490004,None,52,662.207174397,None,146,B,1,2021_Jun_04_0919,GazeFlow,2020.1.2,59.913598838571446,
5,Block812.xls,B,12,7,76,76,None,congruent,Right,Right,Left,39,38,1,yellow,2,5,/home/docky/apps/exp/images/39Yi.jpeg,/home/docky/apps/exp/images/38Y.jpeg,0,4,4,4,0,6,6,6,663.2086492730004,None,663.2086492730004,None,1,6.898038203999931,663.2086492730004,None,670.1400003680001,None,670.1400003680001,None,672.6424762480001,None,672.6424762480001,None,1.2505251249995126,674.4459420630001,None,674.4459420630001,None,5,1,0.8176935299998149,675.6835448100001,None,675.6835448100001,None,675.6835448100001,None,676.517873498,None,1,0.7357884500006548,676.517873498,None,54,677.2698281379999,None,146,B,1,2021_Jun_04_0919,GazeFlow,2020.1.2,59.913598838571446,
5,Block812.xls,B,12,8,77,77,None,congruent,Right,Right,Left,39,38,1,yellow,2,5,/home/docky/apps/exp/images/39Y.jpeg,/home/docky/apps/exp/images/38Yi.jpeg,0,4,4,4,0,7,7,7,678.2715911780006,None,678.2715911780006,None,1,4.993951717000527,678.2715911780006,None,683.2988535370005,None,683.2988535370005,None,685.8038220730004,None,685.8038220730004,None,1.1337652259999231,687.6071543770004,None,687.6071543770004,None,6,0,0.7344915749999927,688.7254476000007,None,688.7254476000007,None,688.7254476000007,None,689.4762088380003,None,1,0.7025969569995141,689.4762088380003,None,52,690.1947761600004,None,146,B,1,2021_Jun_04_0919,GazeFlow,2020.1.2,59.913598838571446,
5,Block812.xls,B,,,,,,,,,,,,,,,,,,0,4,4,4,,,,,,,,,,,,,,,,,,,,,,,,,,,,,,,,,,,,,,,,,,,,146,B,1,2021_Jun_04_0919,GazeFlow,2020.1.2,59.913598838571446,
6,Block803.xls,B,3,1,84,84,None,congruent,Right,Right,Left,75,69,6,yellow,2,5,/home/docky/apps/exp/images/76Yi.jpeg,/home/docky/apps/exp/images/69Y.jpeg,0,5,5,5,0,0,0,0,712.8723430260006,None,712.8723430260006,None,1,5.28417010099929,712.8723430260006,None,718.1865590960006,None,718.1865590960006,None,720.7078095090001,None,720.7078095090001,None,1.1829084330001933,722.5082563510005,None,722.5082563510005,None,5,1,0.8678806279995115,723.6768372870001,None,723.6768372870001,None,723.6768372870001,None,724.5613702300006,None,1,0.5849645490006878,724.5613702300006,None,54,725.1628587740006,None,146,B,1,2021_Jun_04_0919,GazeFlow,2020.1.2,59.913598838571446,
6,Block803.xls,B,3,2,82,82,None,congruent,Right,Right,Left,66,65,1,yellow,2,5,/home/docky/apps/exp/images/66Y.jpeg,/home/docky/apps/exp/images/35Bi.jpeg,0,5,5,5,0,1,1,1,726.1643740400004,None,726.1643740400004,None,1,6.046250704000158,726.1643740400004,None,732.2439347939999,None,732.2439347939999,None,734.7465988459999,None,734.7465988459999,None,1.2172036940000908,736.5504095599999,None,736.5504095599999,None,5,1,0.7675888630001282,737.7541402750003,None,737.7541402750003,None,737.7541402750003,None,738.5383288829998,None,1,0.5016998270002659,738.5383288829998,None,56,739.0564655880007,None,146,B,1,2021_Jun_04_0919,GazeFlow,2020.1.2,59.913598838571446,
6,Block803.xls,B,3,3,80,80,None,congruent,Right,Right,Left,66,65,1,yellow,2,5,/home/docky/apps/exp/images/66Yi.jpeg,/home/docky/apps/exp/images/35B.jpeg,0,5,5,5,0,2,2,2,740.0580302409999,None,740.0580302409999,None,1,5.461162272000365,740.0580302409999,None,745.5513302140007,None,745.5513302140007,None,748.0581287260002,None,748.0581287260002,None,1.166850467000586,749.8592830980006,None,749.8592830980006,None,5,1,0.7176168790001611,751.0130980720005,None,751.0130980720005,None,751.0130980720005,None,751.7474129450002,None,1,0.6017182450004839,751.7474129450002,None,58,752.365619141,None,146,B,1,2021_Jun_04_0919,GazeFlow,2020.1.2,59.913598838571446,
6,Block803.xls,B,3,4,79,79,None,congruent,Right,Right,Left,66,65,1,yellow,2,5,/home/docky/apps/exp/images/66Y.jpeg,/home/docky/apps/exp/images/35Bi.jpeg,0,5,5,5,0,3,3,3,753.3670811460006,None,753.3670811460006,None,1,5.111225866000495,753.3670811460006,None,758.5114566430002,None,758.5114566430002,None,761.0161544299999,None,761.0161544299999,None,1.3341588319999573,762.8182743590005,None,762.8182743590005,None,5,1,0.8011264790002315,764.1386601610002,None,764.1386601610002,None,764.1386601610002,None,764.9561611720001,None,1,0.5852028440003778,764.9561611720001,None,60,765.5579975609999,None,146,B,1,2021_Jun_04_0919,GazeFlow,2020.1.2,59.913598838571446,
6,Block803.xls,B,3,5,92,92,None,congruent,Right,Right,Left,77,72,5,yellow,2,5,/home/docky/apps/exp/images/77Y.jpeg,/home/docky/apps/exp/images/72Yi.jpeg,0,5,5,5,0,4,4,4,766.5594502110007,None,766.5594502110007,None,1,5.929410159999861,766.5594502110007,None,772.5232680899999,None,772.5232680899999,None,775.0251752020004,None,775.0251752020004,None,1.2338964739992662,776.8291153529999,None,776.8291153529999,None,5,1,0.8007094779995896,778.0493455860005,None,778.0493455860005,None,778.0493455860005,None,778.866432709,None,1,0.6182734059993891,778.866432709,None,62,779.5013124350007,None,146,B,1,2021_Jun_04_0919,GazeFlow,2020.1.2,59.913598838571446,
6,Block803.xls,B,3,6,106,10,None,incongruent,Left,Right,Left,79,76,3,blue,2,5,/home/docky/apps/exp/images/79Bi.jpeg,/home/docky/apps/exp/images/76B.jpeg,0,5,5,5,0,5,5,5,780.5033265130005,None,780.5033265130005,None,1,5.66165059099967,780.5033265130005,None,786.1993979300005,None,786.1993979300005,None,788.7035849140002,None,788.7035849140002,None,1.1842084979998617,790.5055191640004,None,790.5055191640004,None,5,1,0.8014368209996974,791.6754784860004,None,791.6754784860004,None,791.6754784860004,None,792.4931295590004,None,1,0.7518832570003724,792.4931295590004,None,64,793.2616895210003,None,146,B,1,2021_Jun_04_0919,GazeFlow,2020.1.2,59.913598838571446,
6,Block803.xls,B,3,7,25,25,None,congruent,Right,Right,Left,19,16,3,blue,2,5,/home/docky/apps/exp/images/19Bi.jpeg,/home/docky/apps/exp/images/16B.jpeg,0,5,5,5,0,6,6,6,794.2633165940006,None,794.2633165940006,None,1,5.2441938770007255,794.2633165940006,None,799.541369351,None,799.541369351,None,802.0445324150005,None,802.0445324150005,None,1.25094222000007,803.847409901,None,803.847409901,None,5,1,0.8347688200001357,805.0849172650005,None,805.0849172650005,None,805.0849172650005,None,805.9359058240007,None,1,0.8015351060003013,805.9359058240007,None,66,806.7542570410005,None,146,B,1,2021_Jun_04_0919,GazeFlow,2020.1.2,59.913598838571446,
6,Block803.xls,B,3,8,46,46,None,congruent,Right,Right,Left,39,38,1,blue,2,5,/home/docky/apps/exp/images/39B.jpeg,/home/docky/apps/exp/images/38Bi.jpeg,0,5,5,5,0,7,7,7,807.7566122300004,None,807.7566122300004,None,1,5.427625000999797,807.7566122300004,None,813.2160489030002,None,813.2160489030002,None,815.7227143050004,None,815.7227143050004,None,1.1503821730002528,817.5244435740005,None,817.5244435740005,None,5,1,3.122331917000338,818.6613758009998,None,818.6613758009998,None,818.6613758009998,None,821.7998779570007,None,1,0.8357983879996027,821.7998779570007,None,68,822.6521551010001,None,146,B,1,2021_Jun_04_0919,GazeFlow,2020.1.2,59.913598838571446,
6,Block803.xls,B,,,,,,,,,,,,,,,,,,0,5,5,5,,,,,,,,,,,,,,,,,,,,,,,,,,,,,,,,,,,,,,,,,,,,146,B,1,2021_Jun_04_0919,GazeFlow,2020.1.2,59.913598838571446,
7,Block810.xls,B,10,1,119,23,None,incongruent,Left,Right,Left,76,69,7,yellow,2,5,/home/docky/apps/exp/images/76Yi.jpeg,/home/docky/apps/exp/images/69Y.jpeg,0,6,6,6,0,0,0,0,843.4106139140004,None,843.4106139140004,None,1,5.22993348,843.4106139140004,None,848.6652372580002,None,848.6652372580002,None,851.1901428270003,None,851.1901428270003,None,1.1832233650002308,852.9713709810003,None,852.9713709810003,None,5,1,0.7511685410008795,854.1469535670003,None,854.1469535670003,None,854.1469535670003,None,854.9142972630007,None,1,0.8188948150000215,854.9142972630007,None,70,855.749731549,None,146,B,1,2021_Jun_04_0919,GazeFlow,2020.1.2,59.913598838571446,
7,Block810.xls,B,10,2,43,43,None,congruent,Right,Right,Left,83,80,3,blue,2,5,/home/docky/apps/exp/images/83B.jpeg,/home/docky/apps/exp/images/80Bi.jpeg,0,6,6,6,0,1,1,1,856.7513025839999,None,856.7513025839999,None,1,5.361342154999875,856.7513025839999,None,862.1462075420004,None,862.1462075420004,None,864.6493420209999,None,864.6493420209999,None,1.534735563999675,866.4530365090004,None,866.4530365090004,None,5,1,0.8016481860004205,867.973665216,None,867.973665216,None,867.973665216,None,868.7917637930004,None,1,0.7677358680002726,868.7917637930004,None,72,869.576420636,None,146,B,1,2021_Jun_04_0919,GazeFlow,2020.1.2,59.913598838571446,
7,Block810.xls,B,10,3,53,53,None,congruent,Left,Left,Right,65,66,1,yellow,2,6,/home/docky/apps/exp/images/35Bi.jpeg,/home/docky/apps/exp/images/66Y.jpeg,0,6,6,6,0,2,2,2,870.578101778,None,870.578101778,None,1,5.478564901999562,870.578101778,None,876.0899210320003,None,876.0899210320003,None,878.5948053130005,None,878.5948053130005,None,1.033258016000218,880.3964251610005,None,880.3964251610005,None,6,1,0.8509594819997801,881.4163777419999,None,881.4163777419999,None,881.4163777419999,None,882.2841102390003,None,1,0.48442562600030215,882.2841102390003,None,74,882.7852112810006,None,146,B,1,2021_Jun_04_0919,GazeFlow,2020.1.2,59.913598838571446,
7,Block810.xls,B,10,4,74,74,None,congruent,Right,Right,Left,35,33,2,yellow,2,5,/home/docky/apps/exp/images/35Y.jpeg,/home/docky/apps/exp/images/33Yi.jpeg,0,6,6,6,0,3,3,3,883.787267529,None,883.787267529,None,1,4.5928456510000615,883.787267529,None,888.413937751,None,888.413937751,None,890.9186520600006,None,890.9186520600006,None,1.200747574000161,892.7201176300005,None,892.7201176300005,None,6,0,0.7506674209998891,893.9076870060007,None,893.9076870060007,None,893.9076870060007,None,894.6748672410004,None,1,0.7021579030006251,894.6748672410004,None,72,895.3933192710001,None,146,B,1,2021_Jun_04_0919,GazeFlow,2020.1.2,59.913598838571446,
7,Block810.xls,B,10,5,21,21,None,congruent,Left,Left,Right,76,79,3,blue,2,6,/home/docky/apps/exp/images/76B.jpeg,/home/docky/apps/exp/images/79Bi.jpeg,0,6,6,6,0,4,4,4,896.3949045380004,None,896.3949045380004,None,1,4.810085895999691,896.3949045380004,None,901.2388517489999,None,901.2388517489999,None,903.743671227,None,903.743671227,None,1.2844217370002298,905.5449603790003,None,905.5449603790003,None,5,0,0.734423811999477,906.8158906950002,None,906.8158906950002,None,906.8158906950002,None,907.5664729099999,None,1,0.7360329229995841,907.5664729099999,None,70,908.318544277,None,146,B,1,2021_Jun_04_0919,GazeFlow,2020.1.2,59.913598838571446,
7,Block810.xls,B,10,6,85,85,None,congruent,Right,Right,Left,75,69,6,yellow,2,5,/home/docky/apps/exp/images/76Y.jpeg,/home/docky/apps/exp/images/69Yi.jpeg,0,6,6,6,0,5,5,5,909.3198937739999,None,909.3198937739999,None,1,5.077938809000443,909.3198937739999,None,914.4323543609999,None,914.4323543609999,None,916.9358202040003,None,916.9358202040003,None,1.0171921150003982,918.7376029430006,None,918.7376029430006,None,5,1,0.8008212919994548,919.7410127800003,None,919.7410127800003,None,919.7410127800003,None,920.5586860180001,None,1,0.5849577860008139,920.5586860180001,None,72,921.1601569920003,None,146,B,1,2021_Jun_04_0919,GazeFlow,2020.1.2,59.913598838571446,
7,Block810.xls,B,10,7,49,49,None,congruent,Left,Left,Right,33,35,2,yellow,2,6,/home/docky/apps/exp/images/33Yi.jpeg,/home/docky/apps/exp/images/35Y.jpeg,0,6,6,6,0,6,6,6,922.161874939,None,922.161874939,None,1,4.609876903999975,922.161874939,None,926.80507124,None,926.80507124,None,929.3098664610006,None,929.3098664610006,None,1.1172760320005182,931.107056627,None,931.107056627,None,6,1,0.8011537399997906,932.2151030190007,None,932.2151030190007,None,932.2151030190007,None,933.0328422620005,None,1,0.5350057929999821,933.0328422620005,None,74,933.5843842920003,None,146,B,1,2021_Jun_04_0919,GazeFlow,2020.1.2,59.913598838571446,
7,Block810.xls,B,10,8,63,63,None,congruent,Left,Left,Right,38,39,1,yellow,2,6,/home/docky/apps/exp/images/38Y.jpeg,/home/docky/apps/exp/images/39Yi.jpeg,0,6,6,6,0,7,7,7,934.5857482060001,None,934.5857482060001,None,1,4.726671737999823,934.5857482060001,None,939.345879554,None,939.345879554,None,941.8510595430007,None,941.8510595430007,None,1.234069427000577,943.6524887620008,None,943.6524887620008,None,6,1,0.7675986269996429,944.8731840280007,None,944.8731840280007,None,944.8731840280007,None,945.6573709029999,None,1,0.5181219930000225,945.6573709029999,None,76,946.1921107380003,None,146,B,1,2021_Jun_04_0919,GazeFlow,2020.1.2,59.913598838571446,
7,Block810.xls,B,,,,,,,,,,,,,,,,,,0,6,6,6,,,,,,,,,,,,,,,,,,,,,,,,,,,,,,,,,,,,,,,,,,,,146,B,1,2021_Jun_04_0919,GazeFlow,2020.1.2,59.913598838571446,
8,Block801.xls,B,1,1,1,1,None,congruent,Left,Left,Right,16,19,3,blue,2,6,/home/docky/apps/exp/images/16Bi.jpeg,/home/docky/apps/exp/images/19B.jpeg,0,7,7,7,0,0,0,0,966.9991794390007,None,966.9991794390007,None,1,5.0343192619993715,966.9991794390007,None,972.0629817560002,None,972.0629817560002,None,974.5812649680001,None,974.5812649680001,None,1.1162024590003057,976.385027071,None,976.385027071,None,6,1,0.8678438990000359,977.4864148050001,None,977.4864148050001,None,977.4864148050001,None,978.3708732300001,None,1,0.6846958020005331,978.3708732300001,None,78,979.072232124,None,146,B,1,2021_Jun_04_0919,GazeFlow,2020.1.2,59.913598838571446,
8,Block801.xls,B,1,2,105,9,None,incongruent,Left,Right,Left,79,73,6,blue,2,5,/home/docky/apps/exp/images/79B.jpeg,/home/docky/apps/exp/images/73Bi.jpeg,0,7,7,7,0,1,1,1,980.0748375640005,None,980.0748375640005,None,1,4.742978258999756,980.0748375640005,None,984.8514011110001,None,984.8514011110001,None,987.3558234960001,None,987.3558234960001,None,1.251100956999835,989.1527155260001,None,989.1527155260001,None,5,1,0.767881320000015,990.3949394780002,None,990.3949394780002,None,990.3949394780002,None,991.1790216039999,None,1,0.9853064839999206,991.1790216039999,None,80,992.1812011530001,None,146,B,1,2021_Jun_04_0919,GazeFlow,2020.1.2,59.913598838571446,
8,Block801.xls,B,1,3,62,62,None,congruent,Left,Left,Right,38,39,1,yellow,2,6,/home/docky/apps/exp/images/38Y.jpeg,/home/docky/apps/exp/images/39Yi.jpeg,0,7,7,7,0,2,2,2,993.1830619709999,None,993.1830619709999,None,1,5.093824315000347,993.1830619709999,None,998.3107554329999,None,998.3107554329999,None,1000.8134402760006,None,1000.8134402760006,None,1.1341667629994845,1002.6176826010005,None,1002.6176826010005,None,6,1,0.700507092999942,1003.73768948,None,1003.73768948,None,1003.73768948,None,1004.4549522870002,None,1,0.5682615560008344,1004.4549522870002,None,82,1005.0398284769999,None,146,B,1,2021_Jun_04_0919,GazeFlow,2020.1.2,59.913598838571446,
8,Block801.xls,B,1,4,38,38,None,congruent,Right,Right,Left,79,73,6,blue,2,5,/home/docky/apps/exp/images/79B.jpeg,/home/docky/apps/exp/images/73Bi.jpeg,0,7,7,7,0,3,3,3,1006.0411130530001,None,1006.0411130530001,None,1,4.543579565999607,1006.0411130530001,None,1010.6177785010004,None,1010.6177785010004,None,1013.1253381639999,None,1013.1253381639999,None,1.1673124489998372,1014.9240808459999,None,1014.9240808459999,None,5,1,0.8512037370001053,1016.0780389720003,None,1016.0780389720003,None,1016.0780389720003,None,1016.9458398690003,None,1,0.5342792949995783,1016.9458398690003,None,84,1017.4967011630006,None,146,B,1,2021_Jun_04_0919,GazeFlow,2020.1.2,59.913598838571446,
8,Block801.xls,B,1,5,6,6,None,congruent,Left,Left,Right,35,38,3,blue,2,6,/home/docky/apps/exp/images/35Bi.jpeg,/home/docky/apps/exp/images/38B.jpeg,0,7,7,7,0,4,4,4,1018.4990380240006,None,1018.4990380240006,None,1,5.828540855000028,1018.4990380240006,None,1024.3610404580004,None,1024.3610404580004,None,1026.8664523490006,None,1026.8664523490006,None,1.1171643859997857,1028.668062228,None,1028.668062228,None,6,1,0.8178052789999128,1029.7711010060002,None,1029.7711010060002,None,1029.7711010060002,None,1030.605639466,None,1,0.5183587989995431,1030.605639466,None,86,1031.14052129,None,146,B,1,2021_Jun_04_0919,GazeFlow,2020.1.2,59.913598838571446,
8,Block801.xls,B,1,6,51,51,None,congruent,Left,Left,Right,33,35,2,yellow,2,6,/home/docky/apps/exp/images/33Yi.jpeg,/home/docky/apps/exp/images/35Y.jpeg,0,7,7,7,0,5,5,5,1032.1419776700004,None,1032.1419776700004,None,1,5.361095049999676,1032.1419776700004,None,1037.5368088170007,None,1037.5368088170007,None,1040.0399969600003,None,1040.0399969600003,None,1.3340378009997949,1041.8429485330007,None,1041.8429485330007,None,6,1,0.8007854309998947,1043.1640755040007,None,1043.1640755040007,None,1043.1640755040007,None,1043.981606753,None,1,0.46790814500036504,1043.981606753,None,88,1044.4657598640006,None,146,B,1,2021_Jun_04_0919,GazeFlow,2020.1.2,59.913598838571446,
8,Block801.xls,B,1,7,73,73,None,congruent,Right,Right,Left,35,33,2,yellow,2,5,/home/docky/apps/exp/images/35Yi.jpeg,/home/docky/apps/exp/images/33Y.jpeg,0,7,7,7,0,6,6,6,1045.4681935900007,None,1045.4681935900007,None,1,4.7098058680003305,1045.4681935900007,None,1050.213355031,None,1050.213355031,None,1052.7147455290005,None,1052.7147455290005,None,1.217635865000375,1054.518373244,None,1054.518373244,None,5,1,0.8175604480002221,1055.721661011,None,1055.721661011,None,1055.721661011,None,1056.5559362920003,None,1,0.6349307919999774,1056.5559362920003,None,90,1057.2075596740005,None,146,B,1,2021_Jun_04_0919,GazeFlow,2020.1.2,59.913598838571446,
8,Block801.xls,B,1,8,96,96,None,congruent,Right,Right,Left,80,79,1,yellow,2,5,/home/docky/apps/exp/images/80Yi.jpeg,/home/docky/apps/exp/images/79Y.jpeg,0,7,7,7,0,7,7,7,1058.209745178,None,1058.209745178,None,1,5.511207270999876,1058.209745178,None,1063.7546303950003,None,1063.7546303950003,None,1066.257820893,None,1066.257820893,None,1.1339330020000489,1068.0557093470006,None,1068.0557093470006,None,5,1,0.7845394649993978,1069.1811079210001,None,1069.1811079210001,None,1069.1811079210001,None,1069.9822649340003,None,1,0.6016557279999688,1069.9822649340003,None,92,1070.6004742350005,None,146,B,1,2021_Jun_04_0919,GazeFlow,2020.1.2,59.913598838571446,
8,Block801.xls,B,,,,,,,,,,,,,,,,,,0,7,7,7,,,,,,,,,,,,,,,,,,,,,,,,,,,,,,,,,,,,,,,,,,,,146,B,1,2021_Jun_04_0919,GazeFlow,2020.1.2,59.913598838571446,
9,Block802.xls,B,2,1,30,30,None,congruent,Right,Right,Left,38,35,3,blue,2,5,/home/docky/apps/exp/images/38B.jpeg,/home/docky/apps/exp/images/35Bi.jpeg,0,8,8,8,0,0,0,0,1090.4388773930004,None,1090.4388773930004,None,1,5.500749335000364,1090.4388773930004,None,1095.9643231560003,None,1095.9643231560003,None,1098.4883668370003,None,1098.4883668370003,None,1.0989165719993252,1100.2922676360004,None,1100.2922676360004,None,5,1,0.7676721970001381,1101.377254258,None,1101.377254258,None,1101.377254258,None,1102.1613232540003,None,1,0.5517224229997737,1102.1613232540003,None,94,1102.729451563,None,146,B,1,2021_Jun_04_0919,GazeFlow,2020.1.2,59.913598838571446,
9,Block802.xls,B,2,2,5,5,None,congruent,Left,Left,Right,35,38,3,blue,2,6,/home/docky/apps/exp/images/35B.jpeg,/home/docky/apps/exp/images/38Bi.jpeg,0,8,8,8,0,1,1,1,1103.7311101640007,None,1103.7311101640007,None,1,5.745153752999613,1103.7311101640007,None,1109.509724912,None,1109.509724912,None,1112.0128722380005,None,1112.0128722380005,None,1.0670196179999039,1113.8159394470003,None,1113.8159394470003,None,6,1,0.7007556890002888,1114.8699613200006,None,1114.8699613200006,None,1114.8699613200006,None,1115.5876698310003,None,1,0.6343042709995643,1115.5876698310003,None,96,1116.2388014150001,None,146,B,1,2021_Jun_04_0919,GazeFlow,2020.1.2,59.913598838571446,
9,Block802.xls,B,2,3,103,7,None,incongruent,Left,Right,Left,19,16,3,blue,2,5,/home/docky/apps/exp/images/19Bi.jpeg,/home/docky/apps/exp/images/16B.jpeg,0,8,8,8,0,2,2,2,1117.240989154,None,1117.240989154,None,1,4.459593109000707,1117.240989154,None,1121.7336270280002,None,1121.7336270280002,None,1124.236509546,None,1124.236509546,None,1.100316651999492,1126.034522731,None,1126.034522731,None,5,1,0.7840334080001412,1127.1271154100004,None,1127.1271154100004,None,1127.1271154100004,None,1127.9278282690002,None,1,0.5852721159999419,1127.9278282690002,None,98,1128.5296485970002,None,146,B,1,2021_Jun_04_0919,GazeFlow,2020.1.2,59.913598838571446,
9,Block802.xls,B,2,4,35,35,None,congruent,Right,Right,Left,66,65,1,blue,2,5,/home/docky/apps/exp/images/66B.jpeg,/home/docky/apps/exp/images/35Yi.jpeg,0,8,8,8,0,3,3,3,1129.5311304860006,None,1129.5311304860006,None,1,4.676994182999806,1129.5311304860006,None,1134.2415104780002,None,1134.2415104780002,None,1136.7460958000001,None,1136.7460958000001,None,1.0503454429999692,1138.54753161,None,1138.54753161,None,5,1,0.7676167449999411,1139.5847048470005,None,1139.5847048470005,None,1139.5847048470005,None,1140.3688095810003,None,1,0.6687526989999242,1140.3688095810003,None,100,1141.0539027350005,None,146,B,1,2021_Jun_04_0919,GazeFlow,2020.1.2,59.913598838571446,
9,Block802.xls,B,2,5,42,42,None,congruent,Right,Right,Left,83,80,3,blue,2,5,/home/docky/apps/exp/images/83Bi.jpeg,/home/docky/apps/exp/images/80B.jpeg,0,8,8,8,0,4,4,4,1142.0551604920001,None,1142.0551604920001,None,1,4.910474891000376,1142.0551604920001,None,1147.0030320280002,None,1147.0030320280002,None,1149.503864667,None,1149.503864667,None,1.18380813100066,1151.305252192,None,1151.305252192,None,5,1,0.8508710599999176,1152.4765454980006,None,1152.4765454980006,None,1152.4765454980006,None,1153.3440123250002,None,1,0.7526692860001276,1153.3440123250002,None,102,1154.1126296900002,None,146,B,1,2021_Jun_04_0919,GazeFlow,2020.1.2,59.913598838571446,
9,Block802.xls,B,2,6,104,8,None,incongruent,Left,Right,Left,38,35,3,blue,2,5,/home/docky/apps/exp/images/38B.jpeg,/home/docky/apps/exp/images/35Bi.jpeg,0,8,8,8,0,5,5,5,1155.1143294470003,None,1155.1143294470003,None,1,5.043682669000191,1155.1143294470003,None,1160.192237444,None,1160.192237444,None,1162.6966659910004,None,1162.6966659910004,None,1.2002829230004863,1164.4982635630004,None,1164.4982635630004,None,5,1,0.7174109190000308,1165.6852654430004,None,1165.6852654430004,None,1165.6852654430004,None,1166.4192561070004,None,1,0.6024001539999517,1166.4192561070004,None,104,1167.037779915,None,146,B,1,2021_Jun_04_0919,GazeFlow,2020.1.2,59.913598838571446,
9,Block802.xls,B,2,7,22,22,None,congruent,Left,Left,Right,80,83,3,blue,2,6,/home/docky/apps/exp/images/80Bi.jpeg,/home/docky/apps/exp/images/83B.jpeg,0,8,8,8,0,6,6,6,1168.0393503080004,None,1168.0393503080004,None,1,5.14396740400025,1168.0393503080004,None,1173.2170998520005,None,1173.2170998520005,None,1175.720580051,None,1175.720580051,None,1.1335915199997544,1177.52400149,None,1177.52400149,None,6,1,0.7843894249999721,1178.6438077020002,None,1178.6438077020002,None,1178.6438077020002,None,1179.444807506,None,1,0.5858565170001384,1179.444807506,None,106,1180.0464024990006,None,146,B,1,2021_Jun_04_0919,GazeFlow,2020.1.2,59.913598838571446,
9,Block802.xls,B,2,8,54,54,None,congruent,Left,Left,Right,65,66,1,yellow,2,6,/home/docky/apps/exp/images/35Bi.jpeg,/home/docky/apps/exp/images/66Y.jpeg,0,8,8,8,0,7,7,7,1181.0478745580003,None,1181.0478745580003,None,1,4.359226833999855,1181.0478745580003,None,1185.4408149330002,None,1185.4408149330002,None,1187.9473805100006,None,1187.9473805100006,None,1.1006187490002048,1189.7476974130004,None,1189.7476974130004,None,6,1,0.8511716920002073,1190.8341338569999,None,1190.8341338569999,None,1190.8341338569999,None,1191.701915234,None,1,0.501818116999857,1191.701915234,None,108,1192.219997393,None,146,B,1,2021_Jun_04_0919,GazeFlow,2020.1.2,59.913598838571446,
9,Block802.xls,B,,,,,,,,,,,,,,,,,,0,8,8,8,,,,,,,,,,,,,,,,,,,,,,,,,,,,,,,,,,,,,,,,,,,,146,B,1,2021_Jun_04_0919,GazeFlow,2020.1.2,59.913598838571446,
10,Block813.xls,B,13,1,70,70,None,congruent,Left,Left,Right,79,82,3,yellow,2,6,/home/docky/apps/exp/images/79Yi.jpeg,/home/docky/apps/exp/images/80Y.jpeg,0,9,9,9,0,0,0,0,1215.499928739,None,1215.499928739,None,1,5.518133535999368,1215.499928739,None,1221.046753183,None,1221.046753183,None,1223.5703761660006,None,1223.5703761660006,None,1.1328698100005568,1225.368411071,None,1225.368411071,None,6,1,0.7844337389997236,1226.4868460000007,None,1226.4868460000007,None,1226.4868460000007,None,1227.2876812000004,None,1,0.5189825890001885,1227.2876812000004,None,110,1227.8224872210003,None,146,B,1,2021_Jun_04_0919,GazeFlow,2020.1.2,59.913598838571446,
10,Block813.xls,B,13,2,60,60,None,congruent,Left,Left,Right,38,39,1,yellow,2,6,/home/docky/apps/exp/images/38Yi.jpeg,/home/docky/apps/exp/images/39Y.jpeg,0,9,9,9,0,1,1,1,1228.8238309400003,None,1228.8238309400003,None,1,4.24294344000009,1228.8238309400003,None,1233.1002353050008,None,1233.1002353050008,None,1235.6067074500006,None,1235.6067074500006,None,1.1837500109995744,1237.4069880180004,None,1237.4069880180004,None,6,1,0.7508800720006548,1238.5770772020005,None,1238.5770772020005,None,1238.5770772020005,None,1239.3445627560004,None,1,0.651412688000164,1239.3445627560004,None,112,1240.0124690430002,None,146,B,1,2021_Jun_04_0919,GazeFlow,2020.1.2,59.913598838571446,
10,Block813.xls,B,13,3,81,81,None,congruent,Right,Right,Left,66,65,1,yellow,2,5,/home/docky/apps/exp/images/66Y.jpeg,/home/docky/apps/exp/images/35Bi.jpeg,0,9,9,9,0,2,2,2,1241.0142483850004,None,1241.0142483850004,None,1,4.693792536999354,1241.0142483850004,None,1245.7414034070007,None,1245.7414034070007,None,1248.2462367240005,None,1248.2462367240005,None,1.1003551860003427,1250.0429121080006,None,1250.0429121080006,None,5,1,0.7846457690002353,1251.1345668660006,None,1251.1345668660006,None,1251.1345668660006,None,1251.935426895,None,1,0.5521484220007551,1251.935426895,None,114,1252.5035318710006,None,146,B,1,2021_Jun_04_0919,GazeFlow,2020.1.2,59.913598838571446,
10,Block813.xls,B,13,4,110,14,None,incongruent,Right,Left,Right,65,66,1,yellow,2,6,/home/docky/apps/exp/images/35B.jpeg,/home/docky/apps/exp/images/66Yi.jpeg,0,9,9,9,0,3,3,3,1253.5053553080006,None,1253.5053553080006,None,1,5.277591690000008,1253.5053553080006,None,1258.8146200410001,None,1258.8146200410001,None,1261.3192437540001,None,1261.3192437540001,None,1.133850280999468,1263.1172881230004,None,1263.1172881230004,None,5,0,0.8008977139998024,1264.243436009,None,1264.243436009,None,1264.243436009,None,1265.061087958,None,1,0.6014770989995668,1265.061087958,None,112,1265.6785894470004,None,146,B,1,2021_Jun_04_0919,GazeFlow,2020.1.2,59.913598838571446,
10,Block813.xls,B,13,5,17,17,None,congruent,Left,Left,Right,73,76,3,blue,2,6,/home/docky/apps/exp/images/73Bi.jpeg,/home/docky/apps/exp/images/76B.jpeg,0,9,9,9,0,4,4,4,1266.680941441,None,1266.680941441,None,1,6.8473188589996425,1266.680941441,None,1273.5619703860002,None,1273.5619703860002,None,1276.0649976330005,None,1276.0649976330005,None,1.3678716259992143,1277.8689199200007,None,1277.8689199200007,None,6,1,0.8844500180002797,1279.2225356030003,None,1279.2225356030003,None,1279.2225356030003,None,1280.123739226,None,1,0.5684039930001745,1280.123739226,None,114,1280.7085880580007,None,146,B,1,2021_Jun_04_0919,GazeFlow,2020.1.2,59.913598838571446,
10,Block813.xls,B,13,6,111,15,None,incongruent,Right,Left,Right,62,65,3,yellow,2,6,/home/docky/apps/exp/images/38B.jpeg,/home/docky/apps/exp/images/35Bi.jpeg,0,9,9,9,0,5,5,5,1281.7100748430003,None,1281.7100748430003,None,1,4.676416944999801,1281.7100748430003,None,1286.420126821,None,1286.420126821,None,1288.9231957090005,None,1288.9231957090005,None,1.1334978069999124,1290.7271223090002,None,1290.7271223090002,None,6,1,0.7174898080002095,1291.8469947570002,None,1291.8469947570002,None,1291.8469947570002,None,1292.581077791,None,1,0.5352059370006828,1292.581077791,None,116,1293.132612556,None,146,B,1,2021_Jun_04_0919,GazeFlow,2020.1.2,59.913598838571446,
10,Block813.xls,B,13,7,55,55,None,congruent,Left,Left,Right,65,66,1,yellow,2,6,/home/docky/apps/exp/images/35B.jpeg,/home/docky/apps/exp/images/66Yi.jpeg,0,9,9,9,0,6,6,6,1294.1342614100004,None,1294.1342614100004,None,1,4.709737866000069,1294.1342614100004,None,1298.8777987520007,None,1298.8777987520007,None,1301.3809233050006,None,1301.3809233050006,None,1.1169661339999948,1303.1828815320005,None,1303.1828815320005,None,5,0,0.750928206000026,1304.2876900970004,None,1304.2876900970004,None,1304.2876900970004,None,1305.0554137360004,None,1,0.5853399150000769,1305.0554137360004,None,114,1305.6570599020006,None,146,B,1,2021_Jun_04_0919,GazeFlow,2020.1.2,59.913598838571446,
10,Block813.xls,B,13,8,26,26,None,congruent,Right,Right,Left,19,16,3,blue,2,5,/home/docky/apps/exp/images/19B.jpeg,/home/docky/apps/exp/images/16Bi.jpeg,0,9,9,9,0,7,7,7,1306.6584882880006,None,1306.6584882880006,None,1,5.127412633999484,1306.6584882880006,None,1311.822314696,None,1311.822314696,None,1314.3229184350002,None,1314.3229184350002,None,1.1505622919994494,1316.1207993570006,None,1316.1207993570006,None,5,1,0.7174147229998198,1317.2632684440005,None,1317.2632684440005,None,1317.2632684440005,None,1317.997165412,None,1,0.5017042440003934,1317.997165412,None,116,1318.515028752,None,146,B,1,2021_Jun_04_0919,GazeFlow,2020.1.2,59.913598838571446,
10,Block813.xls,B,,,,,,,,,,,,,,,,,,0,9,9,9,,,,,,,,,,,,,,,,,,,,,,,,,,,,,,,,,,,,,,,,,,,,146,B,1,2021_Jun_04_0919,GazeFlow,2020.1.2,59.913598838571446,
11,Block806.xls,B,6,1,10,10,None,congruent,Left,Left,Right,65,66,1,blue,2,6,/home/docky/apps/exp/images/35Y.jpeg,/home/docky/apps/exp/images/66Bi.jpeg,0,10,10,10,0,0,0,0,1339.956854395,None,1339.956854395,None,1,4.783058652999898,1339.956854395,None,1344.7668580300005,None,1344.7668580300005,None,1347.294531425,None,1347.294531425,None,1.099708496999483,1349.0852102460003,None,1349.0852102460003,None,5,0,0.7508914800000639,1350.176983362,None,1350.176983362,None,1350.176983362,None,1350.9445464520004,None,1,0.568392915000004,1350.9445464520004,None,114,1351.5308817270006,None,146,B,1,2021_Jun_04_0919,GazeFlow,2020.1.2,59.913598838571446,
11,Block806.xls,B,6,2,89,89,None,congruent,Right,Right,Left,76,69,7,yellow,2,5,/home/docky/apps/exp/images/76Yi.jpeg,/home/docky/apps/exp/images/69Y.jpeg,0,10,10,10,0,1,1,1,1352.5309815420005,None,1352.5309815420005,None,1,5.010377915999925,1352.5309815420005,None,1357.5753588830003,None,1357.5753588830003,None,1360.078149299,None,1360.078149299,None,1.0668991590000587,1361.881163778,None,1361.881163778,None,5,1,0.9013656630004334,1362.9351727510002,None,1362.9351727510002,None,1362.9351727510002,None,1363.8528693839999,None,1,0.65168551700026,1363.8528693839999,None,116,1364.5212838779998,None,146,B,1,2021_Jun_04_0919,GazeFlow,2020.1.2,59.913598838571446,
11,Block806.xls,B,6,3,88,88,None,congruent,Right,Right,Left,76,69,7,yellow,2,5,/home/docky/apps/exp/images/76Y.jpeg,/home/docky/apps/exp/images/69Yi.jpeg,0,10,10,10,0,2,2,2,1365.5226677070004,None,1365.5226677070004,None,1,5.16092147100062,1365.5226677070004,None,1370.7173620780004,None,1370.7173620780004,None,1373.22073859,None,1373.22073859,None,1.0671023470004002,1375.0178535650002,None,1375.0178535650002,None,5,1,0.7843432129993744,1376.0772776590002,None,1376.0772776590002,None,1376.0772776590002,None,1376.8781680010006,None,1,0.4851674029996502,1376.8781680010006,None,118,1377.3796324690002,None,146,B,1,2021_Jun_04_0919,GazeFlow,2020.1.2,59.913598838571446,
11,Block806.xls,B,6,4,109,13,None,incongruent,Right,Left,Right,33,35,2,yellow,2,6,/home/docky/apps/exp/images/33Yi.jpeg,/home/docky/apps/exp/images/35Y.jpeg,0,10,10,10,0,3,3,3,1378.3812246120006,None,1378.3812246120006,None,1,4.5598913119993085,1378.3812246120006,None,1382.9745929370001,None,1382.9745929370001,None,1385.4775604380002,None,1385.4775604380002,None,1.2172864359999949,1387.2815060760004,None,1387.2815060760004,None,5,0,0.7842482680007379,1388.4846811570005,None,1388.4846811570005,None,1388.4846811570005,None,1389.2855919180001,None,1,0.5677921729993614,1389.2855919180001,None,116,1389.870378298,None,146,B,1,2021_Jun_04_0919,GazeFlow,2020.1.2,59.913598838571446,
11,Block806.xls,B,6,5,37,37,None,congruent,Right,Right,Left,79,73,6,blue,2,5,/home/docky/apps/exp/images/79Bi.jpeg,/home/docky/apps/exp/images/73B.jpeg,0,10,10,10,0,4,4,4,1390.8721190710003,None,1390.8721190710003,None,1,5.076972158999524,1390.8721190710003,None,1395.9831395360006,None,1395.9831395360006,None,1398.4857832260004,None,1398.4857832260004,None,1.2172874900006718,1400.2892774210004,None,1400.2892774210004,None,5,1,0.7176603870002509,1401.493233219,None,1401.493233219,None,1401.493233219,None,1402.2272665480004,None,1,0.48543485600021086,1402.2272665480004,None,118,1402.728862518,None,146,B,1,2021_Jun_04_0919,GazeFlow,2020.1.2,59.913598838571446,
11,Block806.xls,B,6,6,108,12,None,incongruent,Left,Right,Left,39,38,1,blue,2,5,/home/docky/apps/exp/images/39Bi.jpeg,/home/docky/apps/exp/images/38B.jpeg,0,10,10,10,0,5,5,5,1403.7305102310002,None,1403.7305102310002,None,1,4.442534447000071,1403.7305102310002,None,1408.207055754,None,1408.207055754,None,1410.7116329770006,None,1410.7116329770006,None,1.10007450699959,1412.515132509,None,1412.515132509,None,6,0,0.7674010689997885,1413.6000580710006,None,1413.6000580710006,None,1413.6000580710006,None,1414.3842353680002,None,1,0.4012595379999766,1414.3842353680002,None,116,1414.8019151610006,None,146,B,1,2021_Jun_04_0919,GazeFlow,2020.1.2,59.913598838571446,
11,Block806.xls,B,6,7,52,52,None,congruent,Left,Left,Right,65,66,1,yellow,2,6,/home/docky/apps/exp/images/35B.jpeg,/home/docky/apps/exp/images/66Yi.jpeg,0,10,10,10,0,6,6,6,1415.8036596860002,None,1415.8036596860002,None,1,4.343125117000454,1415.8036596860002,None,1420.1801290740004,None,1420.1801290740004,None,1422.6849001240007,None,1422.6849001240007,None,1.2005013799998778,1424.487068386,None,1424.487068386,None,5,0,0.7341387719998238,1425.673651391,None,1425.673651391,None,1425.673651391,None,1426.4246458830003,None,1,0.5680972869995458,1426.4246458830003,None,114,1427.009369755,None,146,B,1,2021_Jun_04_0919,GazeFlow,2020.1.2,59.913598838571446,
11,Block806.xls,B,6,8,75,75,None,congruent,Right,Right,Left,35,33,2,yellow,2,5,/home/docky/apps/exp/images/35Yi.jpeg,/home/docky/apps/exp/images/33Y.jpeg,0,10,10,10,0,7,7,7,1428.0110493090006,None,1428.0110493090006,None,1,4.642947536000065,1428.0110493090006,None,1432.6879402560007,None,1432.6879402560007,None,1435.1922738130006,None,1435.1922738130006,None,1.1339437080005155,1436.9897531340002,None,1436.9897531340002,None,5,1,0.7343130979998023,1438.114327839,None,1438.114327839,None,1438.114327839,None,1438.8654088230005,None,1,0.48482043700005306,1438.8654088230005,None,116,1439.3667511419999,None,146,B,1,2021_Jun_04_0919,GazeFlow,2020.1.2,59.913598838571446,
11,Block806.xls,B,,,,,,,,,,,,,,,,,,0,10,10,10,,,,,,,,,,,,,,,,,,,,,,,,,,,,,,,,,,,,,,,,,,,,146,B,1,2021_Jun_04_0919,GazeFlow,2020.1.2,59.913598838571446,
12,Block811.xls,B,11,1,86,86,None,congruent,Right,Right,Left,75,69,6,yellow,2,5,/home/docky/apps/exp/images/76Y.jpeg,/home/docky/apps/exp/images/69Yi.jpeg,0,11,11,11,0,0,0,0,1460.9086929530004,None,1460.9086929530004,None,1,4.780297691000669,1460.9086929530004,None,1465.7221449560002,None,1465.7221449560002,None,1468.2403026880002,None,1468.2403026880002,None,1.1331171649999305,1470.0204695030006,None,1470.0204695030006,None,5,1,0.8172831930005486,1471.1454476449999,None,1471.1454476449999,None,1471.1454476449999,None,1471.979310318,None,1,0.6519504549996782,1471.979310318,None,118,1472.6480804960001,None,146,B,1,2021_Jun_04_0919,GazeFlow,2020.1.2,59.913598838571446,
12,Block811.xls,B,11,2,83,83,None,congruent,Right,Right,Left,75,69,6,yellow,2,5,/home/docky/apps/exp/images/76Yi.jpeg,/home/docky/apps/exp/images/69Y.jpeg,0,11,11,11,0,1,1,1,1473.6498031740002,None,1473.6498031740002,None,1,5.277303464999932,1473.6498031740002,None,1478.9609563760005,None,1478.9609563760005,None,1481.4656162070005,None,1481.4656162070005,None,1.1169825580000179,1483.2675899660007,None,1483.2675899660007,None,5,1,0.7173991959998602,1484.3709842180006,None,1484.3709842180006,None,1484.3709842180006,None,1485.1050365210003,None,1,0.5188499449996016,1485.1050365210003,None,120,1485.6398983630006,None,146,B,1,2021_Jun_04_0919,GazeFlow,2020.1.2,59.913598838571446,
12,Block811.xls,B,11,3,28,28,None,congruent,Right,Right,Left,38,35,3,blue,2,5,/home/docky/apps/exp/images/38Bi.jpeg,/home/docky/apps/exp/images/35B.jpeg,0,11,11,11,0,2,2,2,1486.6415290350005,None,1486.6415290350005,None,1,4.409572794000269,1486.6415290350005,None,1491.0872414599999,None,1491.0872414599999,None,1493.5882171840003,None,1493.5882171840003,None,1.1338219159997607,1495.3909860940003,None,1495.3909860940003,None,5,1,0.7008611290002591,1496.511192084,None,1496.511192084,None,1496.511192084,None,1497.228697697,None,1,0.501636010000766,1497.228697697,None,122,1497.7467468240002,None,146,B,1,2021_Jun_04_0919,GazeFlow,2020.1.2,59.913598838571446,
12,Block811.xls,B,11,4,58,58,None,congruent,Left,Left,Right,62,65,3,yellow,2,6,/home/docky/apps/exp/images/38B.jpeg,/home/docky/apps/exp/images/35Bi.jpeg,0,11,11,11,0,3,3,3,1498.7482133740004,None,1498.7482133740004,None,1,5.12781787699987,1498.7482133740004,None,1503.909583738,None,1503.909583738,None,1506.4122350510006,None,1506.4122350510006,None,0.9668137720000232,1508.214542062,None,1508.214542062,None,6,1,0.7676578569999037,1509.1690658080006,None,1509.1690658080006,None,1509.1690658080006,None,1509.9535601730004,None,1,0.501166990999991,1509.9535601730004,None,124,1510.4710631650005,None,146,B,1,2021_Jun_04_0919,GazeFlow,2020.1.2,59.913598838571446,
12,Block811.xls,B,11,5,32,32,None,congruent,Right,Right,Left,66,65,1,blue,2,5,/home/docky/apps/exp/images/66Bi.jpeg,/home/docky/apps/exp/images/35Y.jpeg,0,11,11,11,0,4,4,4,1511.472852154,None,1511.472852154,None,1,4.426123720999385,1511.472852154,None,1515.9350813010005,None,1515.9350813010005,None,1518.4374195750006,None,1518.4374195750006,None,1.1502908980000939,1520.2411359440002,None,1520.2411359440002,None,5,1,0.7674071620003815,1521.3760900460002,None,1521.3760900460002,None,1521.3760900460002,None,1522.160353585,None,1,0.5519873040002494,1522.160353585,None,126,1522.7286570350007,None,146,B,1,2021_Jun_04_0919,GazeFlow,2020.1.2,59.913598838571446,
12,Block811.xls,B,11,6,67,67,None,congruent,Left,Left,Right,72,77,5,yellow,2,6,/home/docky/apps/exp/images/72Y.jpeg,/home/docky/apps/exp/images/77Yi.jpeg,0,11,11,11,0,5,5,5,1523.7304111890007,None,1523.7304111890007,None,1,4.843170789000396,1523.7304111890007,None,1528.6047343090004,None,1528.6047343090004,None,1531.1101489430002,None,1531.1101489430002,None,1.2506456549999712,1532.9142211890003,None,1532.9142211890003,None,6,1,0.8514334550000058,1534.1509079300004,None,1534.1509079300004,None,1534.1509079300004,None,1535.0185881860007,None,1,0.5519044880002184,1535.0185881860007,None,128,1535.587017238,None,146,B,1,2021_Jun_04_0919,GazeFlow,2020.1.2,59.913598838571446,
12,Block811.xls,B,11,7,120,24,None,incongruent,Left,Right,Left,77,72,5,yellow,2,5,/home/docky/apps/exp/images/77Y.jpeg,/home/docky/apps/exp/images/72Yi.jpeg,0,11,11,11,0,6,6,6,1536.58846464,None,1536.58846464,None,1,4.74376422900059,1536.58846464,None,1541.3655093120005,None,1541.3655093120005,None,1543.86827447,None,1543.86827447,None,1.1673993730000802,1545.671665856,None,1545.671665856,None,5,1,0.7673792450004839,1546.8256676560004,None,1546.8256676560004,None,1546.8256676560004,None,1547.6097917760007,None,1,0.5181559269994978,1547.6097917760007,None,130,1548.1446244300005,None,146,B,1,2021_Jun_04_0919,GazeFlow,2020.1.2,59.913598838571446,
12,Block811.xls,B,11,8,57,57,None,congruent,Left,Left,Right,62,65,3,yellow,2,6,/home/docky/apps/exp/images/38Bi.jpeg,/home/docky/apps/exp/images/35B.jpeg,0,11,11,11,0,7,7,7,1549.146176792,None,1549.146176792,None,1,4.843378494999342,1549.146176792,None,1554.0208102630004,None,1554.0208102630004,None,1556.5266326130004,None,1556.5266326130004,None,1.1170904090004115,1558.3295718250001,None,1558.3295718250001,None,6,1,0.8513873439997042,1559.433526416,None,1559.433526416,None,1559.433526416,None,1560.3010599870004,None,1,0.6347831879993464,1560.3010599870004,None,132,1560.952580053,None,146,B,1,2021_Jun_04_0919,GazeFlow,2020.1.2,59.913598838571446,
12,Block811.xls,B,,,,,,,,,,,,,,,,,,0,11,11,11,,,,,,,,,,,,,,,,,,,,,,,,,,,,,,,,,,,,,,,,,,,,146,B,1,2021_Jun_04_0919,GazeFlow,2020.1.2,59.913598838571446,
13,Block808.xls,B,8,1,118,22,None,incongruent,Left,Right,Left,75,69,6,yellow,2,5,/home/docky/apps/exp/images/76Y.jpeg,/home/docky/apps/exp/images/69Yi.jpeg,0,12,12,12,0,0,0,0,1586.741968151,None,1586.741968151,None,1,4.441653710000537,1586.741968151,None,1591.210789656,None,1591.210789656,None,1593.733658563,None,1593.733658563,None,1.1331794130001072,1595.5377364510005,None,1595.5377364510005,None,5,1,0.7344967190001626,1596.6558496160005,None,1596.6558496160005,None,1596.6558496160005,None,1597.406564727,None,1,0.5851215449993106,1597.406564727,None,134,1598.0082114080005,None,146,B,1,2021_Jun_04_0919,GazeFlow,2020.1.2,59.913598838571446,
13,Block808.xls,B,8,2,7,7,None,congruent,Left,Left,Right,65,66,1,blue,2,6,/home/docky/apps/exp/images/35Yi.jpeg,/home/docky/apps/exp/images/66B.jpeg,0,12,12,12,0,1,1,1,1599.0099331300007,None,1599.0099331300007,None,1,4.9433380670006954,1599.0099331300007,None,1603.9870459910007,None,1603.9870459910007,None,1606.4902355580007,None,1606.4902355580007,None,1.1336269280000124,1608.293774926,None,1608.293774926,None,5,0,0.7175384190004479,1609.413794125,None,1609.413794125,None,1609.413794125,None,1610.148005938,None,1,0.5012103440003557,1610.148005938,None,132,1610.6660823350003,None,146,B,1,2021_Jun_04_0919,GazeFlow,2020.1.2,59.913598838571446,
13,Block808.xls,B,8,3,112,16,None,incongruent,Right,Left,Right,69,76,7,yellow,2,6,/home/docky/apps/exp/images/69Yi.jpeg,/home/docky/apps/exp/images/76Y.jpeg,0,12,12,12,0,2,2,2,1611.6676876710007,None,1611.6676876710007,None,1,5.244194365999647,1611.6676876710007,None,1616.9456649980002,None,1616.9456649980002,None,1619.4500665840005,None,1619.4500665840005,None,1.0674110339996332,1621.2516545630006,None,1621.2516545630006,None,6,1,0.7508206480006265,1622.3056836790001,None,1622.3056836790001,None,1622.3056836790001,None,1623.073099153,None,1,0.4847066150005048,1623.073099153,None,134,1623.5745288460002,None,146,B,1,2021_Jun_04_0919,GazeFlow,2020.1.2,59.913598838571446,
13,Block808.xls,B,8,4,97,1,None,incongruent,Right,Left,Right,16,19,3,blue,2,6,/home/docky/apps/exp/images/16Bi.jpeg,/home/docky/apps/exp/images/19B.jpeg,0,12,12,12,0,3,3,3,1624.5760684800007,None,1624.5760684800007,None,1,4.426333513000827,1624.5760684800007,None,1629.035921023,None,1629.035921023,None,1631.538629701,None,1631.538629701,None,1.083826277999833,1633.3418191190003,None,1633.3418191190003,None,6,1,0.8009447949998503,1634.4124121960003,None,1634.4124121960003,None,1634.4124121960003,None,1635.2300263719999,None,1,0.5188533799992001,1635.2300263719999,None,136,1635.7648163029999,None,146,B,1,2021_Jun_04_0919,GazeFlow,2020.1.2,59.913598838571446,
13,Block808.xls,B,8,5,24,24,None,congruent,Left,Left,Right,80,83,3,blue,2,6,/home/docky/apps/exp/images/80Bi.jpeg,/home/docky/apps/exp/images/83B.jpeg,0,12,12,12,0,4,4,4,1636.7663277050005,None,1636.7663277050005,None,1,4.34296172699942,1636.7663277050005,None,1641.1425100249999,None,1641.1425100249999,None,1643.6460048520003,None,1643.6460048520003,None,1.1006126330003099,1645.4485027629999,None,1645.4485027629999,None,6,1,0.7843856959998448,1646.5359016520006,None,1646.5359016520006,None,1646.5359016520006,None,1647.33699549,None,1,0.6518092769993018,1647.33699549,None,138,1648.0052243210002,None,146,B,1,2021_Jun_04_0919,GazeFlow,2020.1.2,59.913598838571446,
13,Block808.xls,B,8,6,13,13,None,congruent,Left,Left,Right,38,39,1,blue,2,6,/home/docky/apps/exp/images/38Bi.jpeg,/home/docky/apps/exp/images/39B.jpeg,0,12,12,12,0,5,5,5,1649.0067565790005,None,1649.0067565790005,None,1,4.409925418999592,1649.0067565790005,None,1653.4498806440006,None,1653.4498806440006,None,1655.9532348990006,None,1655.9532348990006,None,1.0502160440000807,1657.7562121480005,None,1657.7562121480005,None,6,1,0.6840916529999959,1658.7930713650003,None,1658.7930713650003,None,1658.7930713650003,None,1659.4939985070005,None,1,0.4842767139998614,1659.4939985070005,None,140,1659.9948575360004,None,146,B,1,2021_Jun_04_0919,GazeFlow,2020.1.2,59.913598838571446,
13,Block808.xls,B,8,7,8,8,None,congruent,Left,Left,Right,65,66,1,blue,2,6,/home/docky/apps/exp/images/35Y.jpeg,/home/docky/apps/exp/images/66Bi.jpeg,0,12,12,12,0,6,6,6,1660.9968413850002,None,1660.9968413850002,None,1,4.191910624999764,1660.9968413850002,None,1665.2224834560002,None,1665.2224834560002,None,1667.7256515039999,None,1667.7256515039999,None,1.2174186849997568,1669.5293896590001,None,1669.5293896590001,None,5,0,0.7006660030001512,1670.7331780680006,None,1670.7331780680006,None,1670.7331780680006,None,1671.4505093690004,None,1,0.5350428239999019,1671.4505093690004,None,138,1672.0020030080004,None,146,B,1,2021_Jun_04_0919,GazeFlow,2020.1.2,59.913598838571446,
13,Block808.xls,B,8,8,31,31,None,congruent,Right,Right,Left,66,65,1,blue,2,5,/home/docky/apps/exp/images/66B.jpeg,/home/docky/apps/exp/images/35Yi.jpeg,0,12,12,12,0,7,7,7,1673.0045459830008,None,1673.0045459830008,None,1,4.4916807100007645,1673.0045459830008,None,1677.5331203300002,None,1677.5331203300002,None,1680.0326854660007,None,1680.0326854660007,None,1.1003922909994799,1681.8360427730004,None,1681.8360427730004,None,5,1,0.8009525350007607,1682.9232647940007,None,1682.9232647940007,None,1682.9232647940007,None,1683.7411305060004,None,1,0.5181988470003489,1683.7411305060004,None,140,1684.2757899790004,None,146,B,1,2021_Jun_04_0919,GazeFlow,2020.1.2,59.913598838571446,
13,Block808.xls,B,,,,,,,,,,,,,,,,,,0,12,12,12,,,,,,,,,,,,,,,,,,,,,,,,,,,,,,,,,,,,,,,,,,,,146,B,1,2021_Jun_04_0919,GazeFlow,2020.1.2,59.913598838571446,
14,Block815.xls,B,15,1,65,65,None,congruent,Left,Left,Right,69,76,7,yellow,2,6,/home/docky/apps/exp/images/69Yi.jpeg,/home/docky/apps/exp/images/76Y.jpeg,0,13,13,13,0,0,0,0,1705.0492295570002,None,1705.0492295570002,None,1,4.785180568999749,1705.0492295570002,None,1709.8728019870005,None,1709.8728019870005,None,1712.379408965,None,1712.379408965,None,1.0328322490004211,1714.1809006230005,None,1714.1809006230005,None,6,1,1.2019795549995251,1715.2025906469999,None,1715.2025906469999,None,1715.2025906469999,None,1716.4208983110002,None,1,0.6187285510004585,1716.4208983110002,None,142,1717.05610247,None,146,B,1,2021_Jun_04_0919,GazeFlow,2020.1.2,59.913598838571446,
14,Block815.xls,B,15,2,102,6,None,incongruent,Right,Left,Right,80,83,3,blue,2,6,/home/docky/apps/exp/images/80B.jpeg,/home/docky/apps/exp/images/83Bi.jpeg,0,13,13,13,0,1,1,1,1718.0576396430006,None,1718.0576396430006,None,1,4.6263313939998625,1718.0576396430006,None,1722.7177973020007,None,1722.7177973020007,None,1725.2223900620002,None,1725.2223900620002,None,1.083511171000282,1727.0198248760007,None,1727.0198248760007,None,6,1,0.7510868219997064,1728.0942739800003,None,1728.0942739800003,None,1728.0942739800003,None,1728.861821337,None,1,0.4854945300003237,1728.861821337,None,144,1729.363284039,None,146,B,1,2021_Jun_04_0919,GazeFlow,2020.1.2,59.913598838571446,
14,Block815.xls,B,15,3,33,33,None,congruent,Right,Right,Left,66,65,1,blue,2,5,/home/docky/apps/exp/images/66Bi.jpeg,/home/docky/apps/exp/images/35Y.jpeg,0,13,13,13,0,2,2,2,1730.3651152810007,None,1730.3651152810007,None,1,4.325500050999835,1730.3651152810007,None,1734.7224636070005,None,1734.7224636070005,None,1737.2268611540003,None,1737.2268611540003,None,1.1171157230000972,1739.0252572640002,None,1739.0252572640002,None,5,1,0.7513279400000101,1740.1343321980003,None,1740.1343321980003,None,1740.1343321980003,None,1740.9019996330007,None,1,0.5353967790006209,1740.9019996330007,None,146,1741.453518149,None,146,B,1,2021_Jun_04_0919,GazeFlow,2020.1.2,59.913598838571446,
14,Block815.xls,B,15,4,72,72,None,congruent,Left,Left,Right,79,82,3,yellow,2,6,/home/docky/apps/exp/images/79Yi.jpeg,/home/docky/apps/exp/images/80Y.jpeg,0,13,13,13,0,3,3,3,1742.4549076130006,None,1742.4549076130006,None,1,4.710297986000114,1742.4549076130006,None,1747.1985370860002,None,1747.1985370860002,None,1749.701625017,None,1749.701625017,None,1.2004907670007015,1751.5052896160005,None,1751.5052896160005,None,6,1,0.734329500000058,1752.69196526,None,1752.69196526,None,1752.69196526,None,1753.4431101150003,None,1,0.5185793860000558,1753.4431101150003,None,148,1753.9777691590007,None,146,B,1,2021_Jun_04_0919,GazeFlow,2020.1.2,59.913598838571446,
14,Block815.xls,B,15,5,100,4,None,incongruent,Right,Left,Right,73,76,3,blue,2,6,/home/docky/apps/exp/images/73B.jpeg,/home/docky/apps/exp/images/76Bi.jpeg,0,13,13,13,0,4,4,4,1754.9793570700003,None,1754.9793570700003,None,1,4.359794927000621,1754.9793570700003,None,1759.372251977,None,1759.372251977,None,1761.875037443,None,1761.875037443,None,1.216689817999395,1763.680617721,None,1763.680617721,None,5,0,0.8846186909995595,1764.8824665250004,None,1764.8824665250004,None,1764.8824665250004,None,1765.7836644130002,None,1,0.5177751880000869,1765.7836644130002,None,146,1766.318009134,None,146,B,1,2021_Jun_04_0919,GazeFlow,2020.1.2,59.913598838571446,
14,Block815.xls,B,15,6,45,45,None,congruent,Right,Right,Left,39,38,1,blue,2,5,/home/docky/apps/exp/images/39B.jpeg,/home/docky/apps/exp/images/38Bi.jpeg,0,13,13,13,0,5,5,5,1767.3200352570002,None,1767.3200352570002,None,1,5.177399703000447,1767.3200352570002,None,1772.5311586000007,None,1772.5311586000007,None,1775.036392438,None,1775.036392438,None,1.1337057490000007,1776.8377168800007,None,1776.8377168800007,None,5,1,0.7344404800005577,1777.9579434530006,None,1777.9579434530006,None,1777.9579434530006,None,1778.7085918130006,None,1,0.5522583419997318,1778.7085918130006,None,148,1779.276853382,None,146,B,1,2021_Jun_04_0919,GazeFlow,2020.1.2,59.913598838571446,
14,Block815.xls,B,15,7,98,2,None,incongruent,Right,Left,Right,35,38,3,blue,2,6,/home/docky/apps/exp/images/35Bi.jpeg,/home/docky/apps/exp/images/38B.jpeg,0,13,13,13,0,6,6,6,1780.2786028260007,None,1780.2786028260007,None,1,4.392958854999961,1780.2786028260007,None,1784.704886171,None,1784.704886171,None,1787.2099003720004,None,1787.2099003720004,None,1.2003886749998856,1789.0067191930002,None,1789.0067191930002,None,6,1,0.6841604629998983,1790.198334396,None,1790.198334396,None,1790.198334396,None,1790.8990637260003,None,1,0.6353696189999027,1790.8990637260003,None,150,1791.5507233020007,None,146,B,1,2021_Jun_04_0919,GazeFlow,2020.1.2,59.913598838571446,
14,Block815.xls,B,15,8,59,59,None,congruent,Left,Left,Right,38,39,1,yellow,2,6,/home/docky/apps/exp/images/38Yi.jpeg,/home/docky/apps/exp/images/39Y.jpeg,0,13,13,13,0,7,7,7,1792.5522756159999,None,1792.5522756159999,None,1,3.9251745580004354,1792.5522756159999,None,1796.5111254530002,None,1796.5111254530002,None,1799.0135286880004,None,1799.0135286880004,None,1.0502603899994938,1800.8173418900005,None,1800.8173418900005,None,6,1,0.7346571779999067,1801.8541938120006,None,1801.8541938120006,None,1801.8541938120006,None,1802.60522743,None,1,0.5848694649994286,1802.60522743,None,152,1803.2068700380005,None,146,B,1,2021_Jun_04_0919,GazeFlow,2020.1.2,59.913598838571446,
14,Block815.xls,B,,,,,,,,,,,,,,,,,,0,13,13,13,,,,,,,,,,,,,,,,,,,,,,,,,,,,,,,,,,,,,,,,,,,,146,B,1,2021_Jun_04_0919,GazeFlow,2020.1.2,59.913598838571446,
15,Block807.xls,B,7,1,71,71,None,congruent,Left,Left,Right,79,82,3,yellow,2,6,/home/docky/apps/exp/images/79Y.jpeg,/home/docky/apps/exp/images/80Yi.jpeg,0,14,14,14,0,0,0,0,1827.521788225,None,1827.521788225,None,1,5.097119619000296,1827.521788225,None,1832.645642894,None,1832.645642894,None,1835.1695253930002,None,1835.1695253930002,None,1.1665256099995531,1836.967158507,None,1836.967158507,None,5,0,0.6842433589999928,1838.1248903550004,None,1838.1248903550004,None,1838.1248903550004,None,1838.8255119570003,None,1,0.5852118049997443,1838.8255119570003,None,150,1839.4270732989999,None,146,B,1,2021_Jun_04_0919,GazeFlow,2020.1.2,59.913598838571446,
15,Block807.xls,B,7,2,44,44,None,congruent,Right,Right,Left,83,80,3,blue,2,5,/home/docky/apps/exp/images/83Bi.jpeg,/home/docky/apps/exp/images/80B.jpeg,0,14,14,14,0,1,1,1,1840.428807919,None,1840.428807919,None,1,4.275533921000715,1840.428807919,None,1844.7378257320006,None,1844.7378257320006,None,1847.241188594,None,1847.241188594,None,0.9335934169994289,1849.0399146170002,None,1849.0399146170002,None,5,1,0.801027893000537,1849.9644265350007,None,1849.9644265350007,None,1849.9644265350007,None,1850.782072348,None,1,0.4676175169997805,1850.782072348,None,152,1851.2661207460005,None,146,B,1,2021_Jun_04_0919,GazeFlow,2020.1.2,59.913598838571446,
15,Block807.xls,B,7,3,48,48,None,congruent,Right,Right,Left,39,38,1,blue,2,5,/home/docky/apps/exp/images/39Bi.jpeg,/home/docky/apps/exp/images/38B.jpeg,0,14,14,14,0,2,2,2,1852.2680381630007,None,1852.2680381630007,None,1,4.476644970000052,1852.2680381630007,None,1856.7779450360003,None,1856.7779450360003,None,1859.280902675,None,1859.280902675,None,1.2507862779993957,1861.079188275,None,1861.079188275,None,5,1,0.850947523999821,1862.3218788210006,None,1862.3218788210006,None,1862.3218788210006,None,1863.1897921260006,None,1,0.5681037860003926,1863.1897921260006,None,154,1863.774474246,None,146,B,1,2021_Jun_04_0919,GazeFlow,2020.1.2,59.913598838571446,
15,Block807.xls,B,7,4,113,17,None,incongruent,Right,Left,Right,72,77,5,yellow,2,6,/home/docky/apps/exp/images/72Yi.jpeg,/home/docky/apps/exp/images/77Y.jpeg,0,14,14,14,0,3,3,3,1864.7760284140004,None,1864.7760284140004,None,1,4.392914533999829,1864.7760284140004,None,1869.2022184960006,None,1869.2022184960006,None,1871.705354959,None,1871.705354959,None,1.1000252349995208,1873.5104773480007,None,1873.5104773480007,None,6,1,0.7338791370002582,1874.595889231,None,1874.595889231,None,1874.595889231,None,1875.3464414170003,None,1,0.5684683179997592,1875.3464414170003,None,156,1875.9314102409999,None,146,B,1,2021_Jun_04_0919,GazeFlow,2020.1.2,59.913598838571446,
15,Block807.xls,B,7,5,69,69,None,congruent,Left,Left,Right,72,77,5,yellow,2,6,/home/docky/apps/exp/images/72Y.jpeg,/home/docky/apps/exp/images/77Yi.jpeg,0,14,14,14,0,4,4,4,1876.932904702,None,1876.932904702,None,1,4.359328411000206,1876.932904702,None,1881.3257221600006,None,1881.3257221600006,None,1883.8284032430001,None,1883.8284032430001,None,1.1003829339997537,1885.6336874480003,None,1885.6336874480003,None,6,1,0.7512429930002327,1886.7190213490003,None,1886.7190213490003,None,1886.7190213490003,None,1887.4865678920005,None,1,0.45103004300017346,1887.4865678920005,None,158,1887.9545368940007,None,146,B,1,2021_Jun_04_0919,GazeFlow,2020.1.2,59.913598838571446,
15,Block807.xls,B,7,6,39,39,None,congruent,Right,Right,Left,79,76,3,blue,2,5,/home/docky/apps/exp/images/79B.jpeg,/home/docky/apps/exp/images/76Bi.jpeg,0,14,14,14,0,5,5,5,1888.956467862,None,1888.956467862,None,1,5.194453367000278,1888.956467862,None,1894.1842188150003,None,1894.1842188150003,None,1896.6865082650002,None,1896.6865082650002,None,1.1506290170000284,1898.4902170640007,None,1898.4902170640007,None,5,1,0.7343273359992963,1899.6274057520004,None,1899.6274057520004,None,1899.6274057520004,None,1900.3785663990002,None,1,0.48463175100005174,1900.3785663990002,None,160,1900.879829859,None,146,B,1,2021_Jun_04_0919,GazeFlow,2020.1.2,59.913598838571446,
15,Block807.xls,B,7,7,50,50,None,congruent,Left,Left,Right,33,35,2,yellow,2,6,/home/docky/apps/exp/images/33Y.jpeg,/home/docky/apps/exp/images/35Yi.jpeg,0,14,14,14,0,6,6,6,1901.8813050200006,None,1901.8813050200006,None,1,4.876904691000163,1901.8813050200006,None,1906.7904074040007,None,1906.7904074040007,None,1909.2947824910007,None,1909.2947824910007,None,1.0168368590002501,1911.0927698750002,None,1911.0927698750002,None,6,1,0.7006114810001236,1912.101870462,None,1912.101870462,None,1912.101870462,None,1912.8194051780001,None,1,0.5175182419998237,1912.8194051780001,None,162,1913.35353441,None,146,B,1,2021_Jun_04_0919,GazeFlow,2020.1.2,59.913598838571446,
15,Block807.xls,B,7,8,19,19,None,congruent,Left,Left,Right,76,79,3,blue,2,6,/home/docky/apps/exp/images/76B.jpeg,/home/docky/apps/exp/images/79Bi.jpeg,0,14,14,14,0,7,7,7,1914.3558846290007,None,1914.3558846290007,None,1,4.509247590999621,1914.3558846290007,None,1918.9000715749999,None,1918.9000715749999,None,1921.4010464070006,None,1921.4010464070006,None,1.0838035470005707,1923.2051713270002,None,1923.2051713270002,None,5,0,0.683940462999999,1924.2754798680007,None,1924.2754798680007,None,1924.2754798680007,None,1924.9759586230002,None,1,0.5347007450000092,1924.9759586230002,None,160,1925.5272558300003,None,146,B,1,2021_Jun_04_0919,GazeFlow,2020.1.2,59.913598838571446,
15,Block807.xls,B,,,,,,,,,,,,,,,,,,0,14,14,14,,,,,,,,,,,,,,,,,,,,,,,,,,,,,,,,,,,,,,,,,,,,146,B,1,2021_Jun_04_0919,GazeFlow,2020.1.2,59.913598838571446,
