Nblock,condsFile,grouping,Block,TrialBlock,N,trialN,trialCond,gazeCon,gazedirR,corrBinR,corrBinP,valLBY,valRBY,diff,colorCube,feedbacktext,corrAns,imageL,imageR,SelBlocks.thisRepN,SelBlocks.thisTrialN,SelBlocks.thisN,SelBlocks.thisIndex,Trials.thisRepN,Trials.thisTrialN,Trials.thisN,Trials.thisIndex,waitCube.started,waitCube.stopped,text_3.started,text_3.stopped,StartKeyPress.keys,StartKeyPress.rt,StartKeyPress.started,StartKeyPress.stopped,StimL.started,StimL.stopped,StimR.started,StimR.stopped,imageStim2L.started,imageStim2L.stopped,imageStim2R.started,imageStim2R.stopped,RTkeyRelease,imageStim3L.started,imageStim3L.stopped,imageStim3R.started,imageStim3R.stopped,dropResp.keys,dropResp.corr,dropResp.rt,dropResp.started,dropResp.stopped,imageStim5L.started,imageStim5L.stopped,imageStim5R.started,imageStim5R.stopped,text_2.started,text_2.stopped,ReturnSpace.keys,ReturnSpace.rt,ReturnSpace.started,ReturnSpace.stopped,totalpoints,textFeedback.started,textFeedback.stopped,participant,group,session,date,expName,psychopyVersion,frameRate,
1,Block502.xls,A,2,1,93,33,22,incongruent,Left,Right,Left,38,35,3,blue,2,5,/home/docky/apps/exp/images/38B.jpeg,/home/docky/apps/exp/images/35Bi.jpeg,0,0,0,0,0,0,0,0,35.81425908900019,None,35.81425908900019,None,1,5.197328350001044,35.81425908900019,None,41.04706335499941,None,41.04706335499941,None,43.56234586000028,None,43.56234586000028,None,1.1998439549988689,45.36303444999976,None,45.36303444999976,None,5,1,0.7341281839999283,46.54973541099935,None,46.54973541099935,None,46.54973541099935,None,47.30061092699907,None,1,0.7687413189996732,47.30061092699907,None,2,48.08579505099988,None,147,A,1,2021_Jun_04_1055,GazeFlow,2020.1.2,59.895052248445765,
1,Block502.xls,A,2,2,42,42,12,congruent,Right,Right,Left,83,80,3,blue,2,5,/home/docky/apps/exp/images/83Bi.jpeg,/home/docky/apps/exp/images/80B.jpeg,0,0,0,0,0,1,1,1,49.08731021699896,None,49.08731021699896,None,1,4.709870820001015,49.08731021699896,None,53.8309477419989,None,53.8309477419989,None,56.33441317500001,None,56.33441317500001,None,1.0835585829991032,58.137925689999975,None,58.137925689999975,None,5,1,0.8341971840000042,59.20758662899971,None,59.20758662899971,None,59.20758662899971,None,60.058864970000286,None,1,0.7523443910013157,60.058864970000286,None,4,60.827239509999345,None,147,A,1,2021_Jun_04_1055,GazeFlow,2020.1.2,59.895052248445765,
1,Block502.xls,A,2,3,9,9,11,congruent,Left,Left,Right,38,39,1,blue,2,6,/home/docky/apps/exp/images/38Bi.jpeg,/home/docky/apps/exp/images/39B.jpeg,0,0,0,0,0,2,2,2,61.82893815399984,None,61.82893815399984,None,1,3.941545966999911,61.82893815399984,None,65.80432478799958,None,65.80432478799958,None,68.30742581699997,None,68.30742581699997,None,1.183838511000431,70.11081516999911,None,70.11081516999911,None,6,1,0.7677301050007372,71.28091180899901,None,71.28091180899901,None,71.28091180899901,None,72.06510769799934,None,1,0.7523268450004252,72.06510769799934,None,6,72.83387767299973,None,147,A,1,2021_Jun_04_1055,GazeFlow,2020.1.2,59.895052248445765,
1,Block502.xls,A,2,4,23,23,11,congruent,Left,Left,Right,38,39,1,yellow,2,6,/home/docky/apps/exp/images/38Yi.jpeg,/home/docky/apps/exp/images/39Y.jpeg,0,0,0,0,0,3,3,3,73.83556900999974,None,73.83556900999974,None,1,4.626240049001353,73.83556900999974,None,78.49553935899894,None,78.49553935899894,None,80.99848570599897,None,80.99848570599897,None,1.1671575360014685,82.80354520299989,None,82.80354520299989,None,5,0,0.834860638000464,83.95567141399988,None,83.95567141399988,None,83.95567141399988,None,84.80663378799909,None,1,0.784905186999822,84.80663378799909,None,4,85.60823845899904,None,147,A,1,2021_Jun_04_1055,GazeFlow,2020.1.2,59.895052248445765,
1,Block502.xls,A,2,5,57,57,12,congruent,Right,Right,Left,77,72,5,yellow,2,5,/home/docky/apps/exp/images/77Y.jpeg,/home/docky/apps/exp/images/72Yi.jpeg,0,0,0,0,0,4,4,4,86.61060624499987,None,86.61060624499987,None,1,4.709618456001408,86.61060624499987,None,91.35401187699972,None,91.35401187699972,None,93.85725136600013,None,93.85725136600013,None,1.3004385129988805,95.66023657900041,None,95.66023657900041,None,5,1,0.7675882570001704,96.94766023000011,None,96.94766023000011,None,96.94766023000011,None,97.73206500000015,None,1,0.817892054999902,97.73206500000015,None,6,98.56671144400025,None,147,A,1,2021_Jun_04_1055,GazeFlow,2020.1.2,59.895052248445765,
1,Block502.xls,A,2,6,118,58,22,incongruent,Left,Right,Left,80,79,1,yellow,2,5,/home/docky/apps/exp/images/80Yi.jpeg,/home/docky/apps/exp/images/79Y.jpeg,0,0,0,0,0,5,5,5,99.56890259600004,None,99.56890259600004,None,1,4.15865488199961,99.56890259600004,None,103.76119897100034,None,103.76119897100034,None,106.26620765900043,None,106.26620765900043,None,1.2338862209999206,108.06984044099954,None,108.06984044099954,None,5,1,0.8681587589999253,109.28821750699899,None,109.28821750699899,None,109.28821750699899,None,110.17259965999983,None,1,0.8027077179995104,110.17259965999983,None,8,110.99113113500061,None,147,A,1,2021_Jun_04_1055,GazeFlow,2020.1.2,59.895052248445765,
1,Block502.xls,A,2,7,101,41,22,incongruent,Left,Right,Left,83,80,3,blue,2,5,/home/docky/apps/exp/images/83Bi.jpeg,/home/docky/apps/exp/images/80B.jpeg,0,0,0,0,0,6,6,6,111.9931631569998,None,111.9931631569998,None,1,4.225311457999851,111.9931631569998,None,116.25243378800042,None,116.25243378800042,None,118.75722124499953,None,118.75722124499953,None,1.3841002090011898,120.56073700600064,None,120.56073700600064,None,5,1,0.8177093760004936,121.9295265969995,None,121.9295265969995,None,121.9295265969995,None,122.76383548400008,None,1,0.8519237090004026,122.76383548400008,None,10,123.63222429400048,None,147,A,1,2021_Jun_04_1055,GazeFlow,2020.1.2,59.895052248445765,
1,Block502.xls,A,2,8,69,9,21,incongruent,Right,Left,Right,73,76,3,blue,2,6,/home/docky/apps/exp/images/73B.jpeg,/home/docky/apps/exp/images/76Bi.jpeg,0,0,0,0,0,7,7,7,124.63437773899932,None,124.63437773899932,None,1,4.225258599999506,124.63437773899932,None,128.89344135899955,None,128.89344135899955,None,131.39642026100046,None,131.39642026100046,None,1.3008990440011985,133.19959576099973,None,133.19959576099973,None,6,1,0.8679205070002354,134.48706384199977,None,134.48706384199977,None,134.48706384199977,None,135.37169579799956,None,1,0.718666607999694,135.37169579799956,None,12,136.10645717999978,None,147,A,1,2021_Jun_04_1055,GazeFlow,2020.1.2,59.895052248445765,
1,Block502.xls,A,,,,,,,,,,,,,,,,,,0,0,0,0,,,,,,,,,,,,,,,,,,,,,,,,,,,,,,,,,,,,,,,,,,,,147,A,1,2021_Jun_04_1055,GazeFlow,2020.1.2,59.895052248445765,
2,Block506.xls,A,6,1,120,60,22,incongruent,Left,Right,Left,80,79,1,yellow,2,5,/home/docky/apps/exp/images/80Yi.jpeg,/home/docky/apps/exp/images/79Y.jpeg,0,1,1,1,0,0,0,0,153.60356416099967,None,153.60356416099967,None,1,5.687151824000466,153.60356416099967,None,159.31540465499893,None,159.31540465499893,None,161.84092326000064,None,161.84092326000064,None,1.2000031400002626,163.6444624169999,None,163.6444624169999,None,6,0,0.9011163319992193,164.82946289199936,None,164.82946289199936,None,164.82946289199936,None,165.74723085799997,None,1,0.7524401840000792,165.74723085799997,None,10,166.51600274699922,None,147,A,1,2021_Jun_04_1055,GazeFlow,2020.1.2,59.895052248445765,
2,Block506.xls,A,6,2,51,51,12,congruent,Right,Right,Left,66,65,1,yellow,2,5,/home/docky/apps/exp/images/66Y.jpeg,/home/docky/apps/exp/images/35Bi.jpeg,0,1,1,1,0,1,1,1,167.51736550900023,None,167.51736550900023,None,1,3.8920956580004713,167.51736550900023,None,171.4425860279989,None,171.4425860279989,None,173.94771976399898,None,173.94771976399898,None,1.2003598519986554,175.74978605899923,None,175.74978605899923,None,5,1,0.8679023240001698,176.93628714700026,None,176.93628714700026,None,176.93628714700026,None,177.82088601800024,None,1,0.7524226139994425,177.82088601800024,None,12,178.58933715400053,None,147,A,1,2021_Jun_04_1055,GazeFlow,2020.1.2,59.895052248445765,
2,Block506.xls,A,6,3,119,59,22,incongruent,Left,Right,Left,80,79,1,yellow,2,5,/home/docky/apps/exp/images/80Y.jpeg,/home/docky/apps/exp/images/79Yi.jpeg,0,1,1,1,0,2,2,2,179.591066433999,None,179.591066433999,None,1,4.292058470999109,179.591066433999,None,183.91680630100018,None,183.91680630100018,None,186.42175971399956,None,186.42175971399956,None,1.2007671669998672,188.21848670200052,None,188.21848670200052,None,5,1,0.9011792500004958,189.41060626800027,None,189.41060626800027,None,189.41060626800027,None,190.32840300600037,None,1,0.8184156110000913,190.32840300600037,None,14,191.1634535480007,None,147,A,1,2021_Jun_04_1055,GazeFlow,2020.1.2,59.895052248445765,
2,Block506.xls,A,6,4,28,28,11,congruent,Left,Left,Right,72,77,5,yellow,2,6,/home/docky/apps/exp/images/72Y.jpeg,/home/docky/apps/exp/images/77Yi.jpeg,0,1,1,1,0,3,3,3,192.16557612299948,None,192.16557612299948,None,1,4.8264268999992055,192.16557612299948,None,197.02565882099952,None,197.02565882099952,None,199.5290550690006,None,199.5290550690006,None,1.1503618420010753,201.3276999589998,None,201.3276999589998,None,6,1,0.9681959490008012,202.469180443999,None,202.469180443999,None,202.469180443999,None,203.45355619899965,None,1,0.6859349539990944,203.45355619899965,None,16,204.1556171430002,None,147,A,1,2021_Jun_04_1055,GazeFlow,2020.1.2,59.895052248445765,
2,Block506.xls,A,6,5,85,25,21,incongruent,Right,Left,Right,69,75,6,yellow,2,6,/home/docky/apps/exp/images/69Y.jpeg,/home/docky/apps/exp/images/76Yi.jpeg,0,1,1,1,0,4,4,4,205.15734121499918,None,205.15734121499918,None,1,4.392571926000528,205.15734121499918,None,209.58358466900063,None,209.58358466900063,None,212.08853323199946,None,212.08853323199946,None,1.3842525449999812,213.8919253740005,None,213.8919253740005,None,6,1,0.9184150149994821,215.2607230630001,None,215.2607230630001,None,215.2607230630001,None,216.1958156469991,None,1,0.7843035429996235,216.1958156469991,None,18,216.99667389500064,None,147,A,1,2021_Jun_04_1055,GazeFlow,2020.1.2,59.895052248445765,
2,Block506.xls,A,6,6,71,11,21,incongruent,Right,Left,Right,76,79,3,blue,2,6,/home/docky/apps/exp/images/76B.jpeg,/home/docky/apps/exp/images/79Bi.jpeg,0,1,1,1,0,5,5,5,217.9987593909991,None,217.9987593909991,None,1,4.225711413999306,217.9987593909991,None,222.25812774299993,None,222.25812774299993,None,224.76118942599896,None,224.76118942599896,None,1.23400049600059,226.5649365879999,None,226.5649365879999,None,6,1,0.8516288920000079,227.78482450699994,None,227.78482450699994,None,227.78482450699994,None,228.65259225599948,None,1,0.8184678010002244,228.65259225599948,None,20,229.48764224600018,None,147,A,1,2021_Jun_04_1055,GazeFlow,2020.1.2,59.895052248445765,
2,Block506.xls,A,6,7,56,56,12,congruent,Right,Right,Left,76,69,7,yellow,2,5,/home/docky/apps/exp/images/76Yi.jpeg,/home/docky/apps/exp/images/69Y.jpeg,0,1,1,1,0,6,6,6,230.48953452800015,None,230.48953452800015,None,1,4.092216740000367,230.48953452800015,None,234.615305284,None,234.615305284,None,237.1202827849993,None,237.1202827849993,None,1.2004111659989576,238.92238666400044,None,238.92238666400044,None,5,1,0.8508137480002915,240.10933375999957,None,240.10933375999957,None,240.10933375999957,None,240.9764979720003,None,1,0.7856394539994653,240.9764979720003,None,22,241.77870908399927,None,147,A,1,2021_Jun_04_1055,GazeFlow,2020.1.2,59.895052248445765,
2,Block506.xls,A,6,8,33,33,12,congruent,Right,Right,Left,38,35,3,blue,2,5,/home/docky/apps/exp/images/38B.jpeg,/home/docky/apps/exp/images/35Bi.jpeg,0,1,1,1,0,7,7,7,242.7803253889997,None,242.7803253889997,None,1,4.27557249200072,242.7803253889997,None,247.08978229899913,None,247.08978229899913,None,249.59432022200053,None,249.59432022200053,None,1.2170655360005185,251.39175340600013,None,251.39175340600013,None,6,0,0.9850157089986169,252.59987163799997,None,252.59987163799997,None,252.59987163799997,None,253.60154215900002,None,1,0.7347325709997676,253.60154215900002,None,20,254.3526358250001,None,147,A,1,2021_Jun_04_1055,GazeFlow,2020.1.2,59.895052248445765,
2,Block506.xls,A,,,,,,,,,,,,,,,,,,0,1,1,1,,,,,,,,,,,,,,,,,,,,,,,,,,,,,,,,,,,,,,,,,,,,147,A,1,2021_Jun_04_1055,GazeFlow,2020.1.2,59.895052248445765,
3,Block505.xls,A,5,1,1,1,11,congruent,Left,Left,Right,16,19,3,blue,2,6,/home/docky/apps/exp/images/16Bi.jpeg,/home/docky/apps/exp/images/19B.jpeg,0,2,2,2,0,0,0,0,273.0060626300001,None,273.0060626300001,None,1,4.969902729000751,273.0060626300001,None,277.99739695899916,None,277.99739695899916,None,280.5212329499991,None,280.5212329499991,None,1.1331224420009676,282.3199278739994,None,282.3199278739994,None,6,1,0.8677864839992253,283.44333530699987,None,283.44333530699987,None,283.44333530699987,None,284.32745731400064,None,1,0.6682851179994032,284.32745731400064,None,22,285.0127498410002,None,147,A,1,2021_Jun_04_1055,GazeFlow,2020.1.2,59.895052248445765,
3,Block505.xls,A,5,2,10,10,11,congruent,Left,Left,Right,73,76,3,blue,2,6,/home/docky/apps/exp/images/73B.jpeg,/home/docky/apps/exp/images/76Bi.jpeg,0,2,2,2,0,1,1,1,286.0141831429992,None,286.0141831429992,None,1,3.6415445969996654,286.0141831429992,None,289.68936913700054,None,289.68936913700054,None,292.1939899600002,None,292.1939899600002,None,1.0835492719998001,293.9959308769994,None,293.9959308769994,None,6,1,0.9345036739996431,295.06575232400064,None,295.06575232400064,None,295.06575232400064,None,296.01720717699936,None,1,0.918321883000317,296.01720717699936,None,24,296.95207511599983,None,147,A,1,2021_Jun_04_1055,GazeFlow,2020.1.2,59.895052248445765,
3,Block505.xls,A,5,3,95,35,22,incongruent,Left,Right,Left,66,65,1,blue,2,5,/home/docky/apps/exp/images/66B.jpeg,/home/docky/apps/exp/images/35Yi.jpeg,0,2,2,2,0,2,2,2,297.9539604269994,None,297.9539604269994,None,1,5.12726789899898,297.9539604269994,None,303.12036369700036,None,303.12036369700036,None,305.62003028599975,None,305.62003028599975,None,1.1500001999993401,307.41971350600033,None,307.41971350600033,None,5,1,0.967781098001069,308.5586438909995,None,308.5586438909995,None,308.5586438909995,None,309.5432677610006,None,1,0.7022813280000264,309.5432677610006,None,26,310.2615216609993,None,147,A,1,2021_Jun_04_1055,GazeFlow,2020.1.2,59.895052248445765,
3,Block505.xls,A,5,4,46,46,12,congruent,Right,Right,Left,35,33,2,yellow,2,5,/home/docky/apps/exp/images/35Yi.jpeg,/home/docky/apps/exp/images/33Y.jpeg,0,2,2,2,0,3,3,3,311.26327617899915,None,311.26327617899915,None,1,4.476457857999776,311.26327617899915,None,315.77321046199904,None,315.77321046199904,None,318.2780954810005,None,318.2780954810005,None,1.2341434699992533,320.079146914999,None,320.079146914999,None,5,1,0.9511608130014793,321.30028526599926,None,321.30028526599926,None,321.30028526599926,None,322.2680407259995,None,1,0.7515110000003915,322.2680407259995,None,28,323.0360283049995,None,147,A,1,2021_Jun_04_1055,GazeFlow,2020.1.2,59.895052248445765,
3,Block505.xls,A,5,5,78,18,21,incongruent,Right,Left,Right,65,66,1,yellow,2,6,/home/docky/apps/exp/images/35Bi.jpeg,/home/docky/apps/exp/images/66Y.jpeg,0,2,2,2,0,4,4,4,324.03799848500057,None,324.03799848500057,None,1,3.7747117990002153,324.03799848500057,None,327.84682929799965,None,327.84682929799965,None,330.34989620600027,None,330.34989620600027,None,1.4676889679994929,332.1547860699993,None,332.1547860699993,None,6,1,1.0357653640003264,333.60724705699977,None,333.60724705699977,None,333.60724705699977,None,334.65922217499974,None,1,0.7176161959996534,334.65922217499974,None,30,335.39338844099984,None,147,A,1,2021_Jun_04_1055,GazeFlow,2020.1.2,59.895052248445765,
3,Block505.xls,A,5,6,43,43,12,congruent,Right,Right,Left,83,80,3,blue,2,5,/home/docky/apps/exp/images/83B.jpeg,/home/docky/apps/exp/images/80Bi.jpeg,0,2,2,2,0,5,5,5,336.39536294999925,None,336.39536294999925,None,1,3.858120593999047,336.39536294999925,None,340.28749823,None,340.28749823,None,342.7908646390006,None,342.7908646390006,None,1.1672589629997674,344.5942293469998,None,344.5942293469998,None,5,1,0.8846018350013765,345.747564366,None,345.747564366,None,345.747564366,None,346.64871588999995,None,1,0.9185233000007429,346.64871588999995,None,32,347.58404113399956,None,147,A,1,2021_Jun_04_1055,GazeFlow,2020.1.2,59.895052248445765,
3,Block505.xls,A,5,7,44,44,12,congruent,Right,Right,Left,39,38,1,blue,2,5,/home/docky/apps/exp/images/39Bi.jpeg,/home/docky/apps/exp/images/38B.jpeg,0,2,2,2,0,6,6,6,348.5862764930007,None,348.5862764930007,None,1,3.8742181840007106,348.5862764930007,None,352.4942807850002,None,352.4942807850002,None,354.9994262679993,None,354.9994262679993,None,1.4343459840001742,356.8013178069996,None,356.8013178069996,None,6,0,0.9355431700005283,358.2216936900004,None,358.2216936900004,None,358.2216936900004,None,359.17341097499957,None,1,0.6678433619999851,359.17341097499957,None,30,359.8577227019996,None,147,A,1,2021_Jun_04_1055,GazeFlow,2020.1.2,59.895052248445765,
3,Block505.xls,A,5,8,116,56,22,incongruent,Left,Right,Left,77,72,5,yellow,2,5,/home/docky/apps/exp/images/77Y.jpeg,/home/docky/apps/exp/images/72Y.jpeg,0,2,2,2,0,7,7,7,360.85950661099923,None,360.85950661099923,None,1,4.526217421998808,360.85950661099923,None,365.41945121000026,None,365.41945121000026,None,367.92483408800035,None,367.92483408800035,None,1.2506407260007109,369.72777148500063,None,369.72777148500063,None,5,1,0.9012084450005204,370.9632251620005,None,370.9632251620005,None,370.9632251620005,None,371.8809320469991,None,1,0.7189872979997745,371.8809320469991,None,32,372.6162092220002,None,147,A,1,2021_Jun_04_1055,GazeFlow,2020.1.2,59.895052248445765,
3,Block505.xls,A,,,,,,,,,,,,,,,,,,0,2,2,2,,,,,,,,,,,,,,,,,,,,,,,,,,,,,,,,,,,,,,,,,,,,147,A,1,2021_Jun_04_1055,GazeFlow,2020.1.2,59.895052248445765,
4,Block509.xls,A,9,1,34,34,12,congruent,Right,Right,Left,38,35,3,blue,2,5,/home/docky/apps/exp/images/38Bi.jpeg,/home/docky/apps/exp/images/35B.jpeg,0,3,3,3,0,0,0,0,392.6895187199989,None,392.6895187199989,None,1,5.3011520319996634,392.6895187199989,None,398.0123251869991,None,398.0123251869991,None,400.5377483880002,None,400.5377483880002,None,1.1834984610013635,402.33594241100036,None,402.33594241100036,None,5,1,0.8347093030006363,403.50962669599903,None,403.50962669599903,None,403.50962669599903,None,404.36098055299954,None,1,0.7017848340001365,404.36098055299954,None,34,405.07919513699926,None,147,A,1,2021_Jun_04_1055,GazeFlow,2020.1.2,59.895052248445765,
4,Block509.xls,A,9,2,7,7,11,congruent,Left,Left,Right,65,66,1,blue,2,6,/home/docky/apps/exp/images/35Yi.jpeg,/home/docky/apps/exp/images/66B.jpeg,0,3,3,3,0,1,1,1,406.0806401339996,None,406.0806401339996,None,1,4.142220914998688,406.0806401339996,None,410.2564342200003,None,410.2564342200003,None,412.75975312599985,None,412.75975312599985,None,1.167304091000915,414.5633507429993,None,414.5633507429993,None,6,1,0.9848640769996564,415.7167035759994,None,415.7167035759994,None,415.7167035759994,None,416.71806985500007,None,1,0.7689199510004983,416.71806985500007,None,36,417.5027974170007,None,147,A,1,2021_Jun_04_1055,GazeFlow,2020.1.2,59.895052248445765,
4,Block509.xls,A,9,3,74,14,21,incongruent,Right,Left,Right,80,83,3,blue,2,6,/home/docky/apps/exp/images/80B.jpeg,/home/docky/apps/exp/images/83Bi.jpeg,0,3,3,3,0,2,2,2,418.5049520880002,None,418.5049520880002,None,1,4.1421394489989325,418.5049520880002,None,422.68051385000035,None,422.68051385000035,None,425.18547529699936,None,425.18547529699936,None,1.0502090040008625,426.9878164790007,None,426.9878164790007,None,6,1,0.9845877659990947,428.0239915250004,None,428.0239915250004,None,428.0239915250004,None,429.02553709399945,None,1,0.8683817000001,429.02553709399945,None,38,429.91018558699943,None,147,A,1,2021_Jun_04_1055,GazeFlow,2020.1.2,59.895052248445765,
4,Block509.xls,A,9,4,19,19,11,congruent,Left,Left,Right,65,66,1,yellow,2,6,/home/docky/apps/exp/images/35Bi.jpeg,/home/docky/apps/exp/images/66Y.jpeg,0,3,3,3,0,3,3,3,430.91229952699905,None,430.91229952699905,None,1,4.493239757999618,430.91229952699905,None,435.4388725030003,None,435.4388725030003,None,437.9421110839994,None,437.9421110839994,None,1.1170659010003874,439.74550072499915,None,439.74550072499915,None,6,1,1.0516465439995955,440.84883228299987,None,440.84883228299987,None,440.84883228299987,None,441.916682694,None,1,0.8520936099994287,441.916682694,None,40,442.7855026489997,None,147,A,1,2021_Jun_04_1055,GazeFlow,2020.1.2,59.895052248445765,
4,Block509.xls,A,9,5,60,60,12,congruent,Right,Right,Left,80,79,1,yellow,2,5,/home/docky/apps/exp/images/80Yi.jpeg,/home/docky/apps/exp/images/79Y.jpeg,0,3,3,3,0,4,4,4,443.78726278700015,None,443.78726278700015,None,1,4.025309687000117,443.78726278700015,None,447.84593257800043,None,447.84593257800043,None,450.3512639879991,None,450.3512639879991,None,1.0669197759998497,452.1532397869996,None,452.1532397869996,None,5,1,0.9177943329996197,453.2063522570006,None,453.2063522570006,None,453.2063522570006,None,454.140796914,None,1,0.5846220219991665,454.140796914,None,42,454.7420066100003,None,147,A,1,2021_Jun_04_1055,GazeFlow,2020.1.2,59.895052248445765,
4,Block509.xls,A,9,6,83,23,21,incongruent,Right,Left,Right,38,39,1,yellow,2,6,/home/docky/apps/exp/images/38Yi.jpeg,/home/docky/apps/exp/images/39Y.jpeg,0,3,3,3,0,5,5,5,455.74412109200057,None,455.74412109200057,None,1,5.076899891000721,455.74412109200057,None,460.85485410399997,None,460.85485410399997,None,463.3580701890005,None,463.3580701890005,None,1.5010450429999764,465.1619658740001,None,465.1619658740001,None,6,1,0.8683119720008108,466.648980345999,None,466.648980345999,None,466.648980345999,None,467.53364320199944,None,1,0.6683266090003599,467.53364320199944,None,44,468.21794161400067,None,147,A,1,2021_Jun_04_1055,GazeFlow,2020.1.2,59.895052248445765,
4,Block509.xls,A,9,7,4,4,11,congruent,Left,Left,Right,35,38,3,blue,2,6,/home/docky/apps/exp/images/35B.jpeg,/home/docky/apps/exp/images/38Bi.jpeg,0,3,3,3,0,6,6,6,469.22043080299954,None,469.22043080299954,None,1,4.041305345999717,469.22043080299954,None,473.29558448199896,None,473.29558448199896,None,475.8047901379996,None,475.8047901379996,None,1.183786551000594,477.6021327469989,None,477.6021327469989,None,6,1,0.984663121000267,478.772361850999,None,478.772361850999,None,478.772361850999,None,479.77398106799956,None,1,0.5343567260006239,479.77398106799956,None,46,480.324829969999,None,147,A,1,2021_Jun_04_1055,GazeFlow,2020.1.2,59.895052248445765,
4,Block509.xls,A,9,8,24,24,11,congruent,Left,Left,Right,38,39,1,yellow,2,6,/home/docky/apps/exp/images/38Y.jpeg,/home/docky/apps/exp/images/39Yi.jpeg,0,3,3,3,0,7,7,7,481.32722913199905,None,481.32722913199905,None,1,3.5239085530010925,481.32722913199905,None,484.88490480700057,None,484.88490480700057,None,487.387408098999,None,487.387408098999,None,1.2174266259989963,489.19079529900046,None,489.19079529900046,None,6,1,0.9677935309991881,490.39517312299904,None,490.39517312299904,None,490.39517312299904,None,491.37973402900025,None,1,0.6852885619991866,491.37973402900025,None,48,492.0815614940002,None,147,A,1,2021_Jun_04_1055,GazeFlow,2020.1.2,59.895052248445765,
4,Block509.xls,A,,,,,,,,,,,,,,,,,,0,3,3,3,,,,,,,,,,,,,,,,,,,,,,,,,,,,,,,,,,,,,,,,,,,,147,A,1,2021_Jun_04_1055,GazeFlow,2020.1.2,59.895052248445765,
5,Block504.xls,A,4,1,11,11,11,congruent,Left,Left,Right,73,76,3,blue,2,6,/home/docky/apps/exp/images/73Bi.jpeg,/home/docky/apps/exp/images/76B.jpeg,0,4,4,4,0,0,0,0,512.2386226300005,None,512.2386226300005,None,1,5.648206289000882,512.2386226300005,None,517.9216705010003,None,517.9216705010003,None,520.4351741089995,None,520.4351741089995,None,1.2499257110011968,522.2351614799991,None,522.2351614799991,None,6,1,0.9007173579993832,523.4762689889994,None,523.4762689889994,None,523.4762689889994,None,524.3935651009997,None,1,0.7026590980003675,524.3935651009997,None,50,525.1123938620003,None,147,A,1,2021_Jun_04_1055,GazeFlow,2020.1.2,59.895052248445765,
5,Block504.xls,A,4,2,87,27,21,incongruent,Right,Left,Right,72,77,5,yellow,2,6,/home/docky/apps/exp/images/72Y.jpeg,/home/docky/apps/exp/images/77Yi.jpeg,0,4,4,4,0,1,1,1,526.1140789679994,None,526.1140789679994,None,1,3.6241267530003825,526.1140789679994,None,529.7702021000005,None,529.7702021000005,None,532.2751802349994,None,532.2751802349994,None,1.150472853998508,534.0786097250002,None,534.0786097250002,None,6,1,0.8513464889983879,535.2154433590003,None,535.2154433590003,None,535.2154433590003,None,536.0833031549992,None,1,0.502038098000412,536.0833031549992,None,52,536.6015026229998,None,147,A,1,2021_Jun_04_1055,GazeFlow,2020.1.2,59.895052248445765,
5,Block504.xls,A,4,3,48,48,12,congruent,Right,Right,Left,39,38,1,yellow,2,5,/home/docky/apps/exp/images/39Yi.jpeg,/home/docky/apps/exp/images/38Y.jpeg,0,4,4,4,0,2,2,2,537.6028670249998,None,537.6028670249998,None,1,4.142563340999914,537.6028670249998,None,541.778927239,None,541.778927239,None,544.2813316039992,None,544.2813316039992,None,1.1336803550002514,546.0842030429994,None,546.0842030429994,None,5,1,0.8347096760007844,547.2052332860003,None,547.2052332860003,None,547.2052332860003,None,548.0565638839998,None,1,0.6857327069992607,548.0565638839998,None,54,548.7581455580003,None,147,A,1,2021_Jun_04_1055,GazeFlow,2020.1.2,59.895052248445765,
5,Block504.xls,A,4,4,38,38,12,congruent,Right,Right,Left,79,73,6,blue,2,5,/home/docky/apps/exp/images/79B.jpeg,/home/docky/apps/exp/images/73Bi.jpeg,0,4,4,4,0,3,3,3,549.7599773399998,None,549.7599773399998,None,1,3.591303106999476,549.7599773399998,None,553.3844484689998,None,553.3844484689998,None,555.887878395999,None,555.887878395999,None,1.050023579999106,557.6915215659992,None,557.6915215659992,None,5,1,1.0179427869989013,558.7279028449993,None,558.7279028449993,None,558.7279028449993,None,559.7624655580003,None,1,0.9186925770009111,559.7624655580003,None,56,560.6973947549996,None,147,A,1,2021_Jun_04_1055,GazeFlow,2020.1.2,59.895052248445765,
5,Block504.xls,A,4,5,2,2,11,congruent,Left,Left,Right,16,19,3,blue,2,6,/home/docky/apps/exp/images/16B.jpeg,/home/docky/apps/exp/images/19Bi.jpeg,0,4,4,4,0,4,4,4,561.6998206320004,None,561.6998206320004,None,1,4.375658557999486,561.6998206320004,None,566.1091445639995,None,566.1091445639995,None,568.6122940839996,None,568.6122940839996,None,1.0836148760008655,570.4129509129998,None,570.4129509129998,None,6,1,0.9343966640008148,571.486085384,None,571.486085384,None,571.486085384,None,572.4370214249993,None,1,0.601382217999344,572.4370214249993,None,58,573.0552594319997,None,147,A,1,2021_Jun_04_1055,GazeFlow,2020.1.2,59.895052248445765,
5,Block504.xls,A,4,6,73,13,21,incongruent,Right,Left,Right,80,83,3,blue,2,6,/home/docky/apps/exp/images/80Bi.jpeg,/home/docky/apps/exp/images/83B.jpeg,0,4,4,4,0,5,5,5,574.0570258919997,None,574.0570258919997,None,1,3.89161023700035,574.0570258919997,None,577.9829572870003,None,577.9829572870003,None,580.487409293999,None,580.487409293999,None,1.1171010699999897,582.284973595999,None,582.284973595999,None,6,1,1.0181647729987162,583.3923649970002,None,583.3923649970002,None,583.3923649970002,None,584.4270801669991,None,1,0.6189426129985804,584.4270801669991,None,60,585.0621562159995,None,147,A,1,2021_Jun_04_1055,GazeFlow,2020.1.2,59.895052248445765,
5,Block504.xls,A,4,7,63,3,21,incongruent,Right,Left,Right,35,38,3,blue,2,6,/home/docky/apps/exp/images/35B.jpeg,/home/docky/apps/exp/images/38Bi.jpeg,0,4,4,4,0,6,6,6,586.0636044460007,None,586.0636044460007,None,1,3.8415900809995946,586.0636044460007,None,589.9388741419989,None,589.9388741419989,None,592.4439317790002,None,592.4439317790002,None,1.0670958270002302,594.2403175489999,None,594.2403175489999,None,5,0,0.8344910350006103,595.2988703589999,None,595.2988703589999,None,595.2988703589999,None,596.1501958320005,None,1,0.5348957709993556,596.1501958320005,None,58,596.7008638379993,None,147,A,1,2021_Jun_04_1055,GazeFlow,2020.1.2,59.895052248445765,
5,Block504.xls,A,4,8,86,26,21,incongruent,Right,Left,Right,72,77,5,yellow,2,6,/home/docky/apps/exp/images/72Yi.jpeg,/home/docky/apps/exp/images/77Y.jpeg,0,4,4,4,0,7,7,7,597.7030114979989,None,597.7030114979989,None,1,4.075327049999032,597.7030114979989,None,601.8120592350006,None,601.8120592350006,None,604.3151487539999,None,604.3151487539999,None,1.1168261919992801,606.1182449610005,None,606.1182449610005,None,6,1,0.817916318999778,607.2218254679992,None,607.2218254679992,None,607.2218254679992,None,608.0563341489997,None,1,0.4855051419999654,608.0563341489997,None,60,608.5578045420007,None,147,A,1,2021_Jun_04_1055,GazeFlow,2020.1.2,59.895052248445765,
5,Block504.xls,A,,,,,,,,,,,,,,,,,,0,4,4,4,,,,,,,,,,,,,,,,,,,,,,,,,,,,,,,,,,,,,,,,,,,,147,A,1,2021_Jun_04_1055,GazeFlow,2020.1.2,59.895052248445765,
6,Block511.xls,A,11,1,15,15,11,congruent,Left,Left,Right,80,83,3,blue,2,6,/home/docky/apps/exp/images/80Bi.jpeg,/home/docky/apps/exp/images/83B.jpeg,0,5,5,5,0,0,0,0,630.8862549589994,None,630.8862549589994,None,1,6.249662528000044,630.8862549589994,None,637.1672199519999,None,637.1672199519999,None,639.6856552270001,None,639.6856552270001,None,1.032664663000105,641.4902585309992,None,641.4902585309992,None,6,1,1.0681579699994472,642.5072807119996,None,642.5072807119996,None,642.5072807119996,None,643.5921198310007,None,1,0.6852920669989544,643.5921198310007,None,62,644.2938854179993,None,147,A,1,2021_Jun_04_1055,GazeFlow,2020.1.2,59.895052248445765,
6,Block511.xls,A,11,2,105,45,22,incongruent,Left,Right,Left,39,38,1,blue,2,5,/home/docky/apps/exp/images/39Bi.jpeg,/home/docky/apps/exp/images/38B.jpeg,0,5,5,5,0,1,1,1,645.2954203640002,None,645.2954203640002,None,1,3.340522950000377,645.2954203640002,None,648.6698338869992,None,648.6698338869992,None,651.1730056899996,None,651.1730056899996,None,0.9334063490005065,652.9765343050003,None,652.9765343050003,None,6,0,0.8676861510011804,653.8961768030003,None,653.8961768030003,None,653.8961768030003,None,654.7804793569994,None,1,0.40078559599896835,654.7804793569994,None,60,655.1981844639995,None,147,A,1,2021_Jun_04_1055,GazeFlow,2020.1.2,59.895052248445765,
6,Block511.xls,A,11,3,68,8,21,incongruent,Right,Left,Right,38,39,1,blue,2,6,/home/docky/apps/exp/images/38B.jpeg,/home/docky/apps/exp/images/39Bi.jpeg,0,5,5,5,0,2,2,2,656.1997520759996,None,656.1997520759996,None,1,3.624628544999723,656.1997520759996,None,659.8581921219993,None,659.8581921219993,None,662.3610952870004,None,662.3610952870004,None,1.117158050999933,664.1644144349993,None,664.1644144349993,None,6,1,0.8008875279992935,665.2681448809999,None,665.2681448809999,None,665.2681448809999,None,666.0859067889996,None,1,0.5009033650003403,666.0859067889996,None,62,666.6033688320003,None,147,A,1,2021_Jun_04_1055,GazeFlow,2020.1.2,59.895052248445765,
6,Block511.xls,A,11,4,80,20,21,incongruent,Right,Left,Right,62,65,3,yellow,2,6,/home/docky/apps/exp/images/38Bi.jpeg,/home/docky/apps/exp/images/35B.jpeg,0,5,5,5,0,3,3,3,667.6053287609993,None,667.6053287609993,None,1,3.9088582940003107,667.6053287609993,None,671.5474493490001,None,671.5474493490001,None,674.0504532039995,None,674.0504532039995,None,1.1504668039997341,675.853565636,None,675.853565636,None,6,1,0.9012487959989812,676.9910287080002,None,676.9910287080002,None,676.9910287080002,None,677.9088288410003,None,1,0.51803254799961,677.9088288410003,None,64,678.4436443499999,None,147,A,1,2021_Jun_04_1055,GazeFlow,2020.1.2,59.895052248445765,
6,Block511.xls,A,11,5,5,5,11,congruent,Left,Left,Right,65,66,1,blue,2,6,/home/docky/apps/exp/images/35Yi.jpeg,/home/docky/apps/exp/images/66B.jpeg,0,5,5,5,0,4,4,4,679.4451246770004,None,679.4451246770004,None,1,3.8247318040012033,679.4451246770004,None,683.3035648459991,None,683.3035648459991,None,685.8069656819989,None,685.8069656819989,None,0.9668098419988382,687.6102254500001,None,687.6102254500001,None,6,1,0.7841363250008726,688.5635790029992,None,688.5635790029992,None,688.5635790029992,None,689.3643958649991,None,1,0.5344338739996601,689.3643958649991,None,66,689.915368119,None,147,A,1,2021_Jun_04_1055,GazeFlow,2020.1.2,59.895052248445765,
6,Block511.xls,A,11,6,18,18,11,congruent,Left,Left,Right,65,66,1,yellow,2,6,/home/docky/apps/exp/images/35B.jpeg,/home/docky/apps/exp/images/66Yi.jpeg,0,5,5,5,0,5,5,5,690.9171618519995,None,690.9171618519995,None,1,3.4414190130009956,690.9171618519995,None,694.3917390179995,None,694.3917390179995,None,696.8948218559999,None,696.8948218559999,None,1.0004129160006414,698.6977523349997,None,698.6977523349997,None,6,1,0.8344440509990818,699.6849745279997,None,699.6849745279997,None,699.6849745279997,None,700.5361024060003,None,1,0.45093487499980256,700.5361024060003,None,68,701.0037226080003,None,147,A,1,2021_Jun_04_1055,GazeFlow,2020.1.2,59.895052248445765,
6,Block511.xls,A,11,7,25,25,11,congruent,Left,Left,Right,69,75,6,yellow,2,6,/home/docky/apps/exp/images/69Yi.jpeg,/home/docky/apps/exp/images/76Y.jpeg,0,5,5,5,0,6,6,6,702.0053224210005,None,702.0053224210005,None,1,3.5077707079999527,702.0053224210005,None,705.5469015580002,None,705.5469015580002,None,708.0501231180006,None,708.0501231180006,None,0.9508981439994386,709.853332011,None,709.853332011,None,6,1,0.800988019000215,710.7899058229996,None,710.7899058229996,None,710.7899058229996,None,711.6074513719996,None,1,0.4177920879992598,711.6074513719996,None,70,712.0414110870006,None,147,A,1,2021_Jun_04_1055,GazeFlow,2020.1.2,59.895052248445765,
6,Block511.xls,A,11,8,3,3,11,congruent,Left,Left,Right,35,38,3,blue,2,6,/home/docky/apps/exp/images/35Bi.jpeg,/home/docky/apps/exp/images/38B.jpeg,0,5,5,5,0,7,7,7,713.0439225869995,None,713.0439225869995,None,1,3.80773713400049,713.0439225869995,None,716.885729263,None,716.885729263,None,719.3945559099993,None,719.3945559099993,None,0.9504618600003596,721.1918149190005,None,721.1918149190005,None,6,1,0.8513542210002925,722.1284202080005,None,722.1284202080005,None,722.1284202080005,None,722.9962268149993,None,1,0.5346485609989031,722.9962268149993,None,72,723.5474174640003,None,147,A,1,2021_Jun_04_1055,GazeFlow,2020.1.2,59.895052248445765,
6,Block511.xls,A,,,,,,,,,,,,,,,,,,0,5,5,5,,,,,,,,,,,,,,,,,,,,,,,,,,,,,,,,,,,,,,,,,,,,147,A,1,2021_Jun_04_1055,GazeFlow,2020.1.2,59.895052248445765,
7,Block508.xls,A,8,1,13,13,11,congruent,Left,Left,Right,76,79,3,blue,2,6,/home/docky/apps/exp/images/76Bi.jpeg,/home/docky/apps/exp/images/79B.jpeg,0,6,6,6,0,0,0,0,744.387910255,None,744.387910255,None,1,5.335999311000705,744.387910255,None,749.7518425369999,None,749.7518425369999,None,752.2709819339998,None,752.2709819339998,None,1.0997196509997593,754.0730041579991,None,754.0730041579991,None,6,1,0.767871013000331,755.1592606069989,None,755.1592606069989,None,755.1592606069989,None,755.9436377580005,None,1,0.5851509999993141,755.9436377580005,None,74,756.5452172309997,None,147,A,1,2021_Jun_04_1055,GazeFlow,2020.1.2,59.895052248445765,
7,Block508.xls,A,8,2,21,21,11,congruent,Left,Left,Right,62,65,3,yellow,2,6,/home/docky/apps/exp/images/38B.jpeg,/home/docky/apps/exp/images/35Bi.jpeg,0,6,6,6,0,1,1,1,757.5468077659989,None,757.5468077659989,None,1,3.49106680299883,757.5468077659989,None,761.0714126700004,None,761.0714126700004,None,763.5740817980004,None,763.5740817980004,None,1.1003162050001265,765.3726666359998,None,765.3726666359998,None,6,1,0.7510997240005963,766.4645957659995,None,766.4645957659995,None,766.4645957659995,None,767.2322600610005,None,1,0.5014632500005973,767.2322600610005,None,76,767.750262313999,None,147,A,1,2021_Jun_04_1055,GazeFlow,2020.1.2,59.895052248445765,
7,Block508.xls,A,8,3,99,39,22,incongruent,Left,Right,Left,79,76,3,blue,2,5,/home/docky/apps/exp/images/79Bi.jpeg,/home/docky/apps/exp/images/76B.jpeg,0,6,6,6,0,2,2,2,768.7518900439991,None,768.7518900439991,None,1,3.3575985949992173,768.7518900439991,None,772.1433538250003,None,772.1433538250003,None,774.6475185109994,None,774.6475185109994,None,1.066827655000452,776.4514203889994,None,776.4514203889994,None,5,1,0.8010249649996695,777.502997661999,None,777.502997661999,None,777.502997661999,None,778.3206461919999,None,1,0.6514314359992568,778.3206461919999,None,78,778.9888068109994,None,147,A,1,2021_Jun_04_1055,GazeFlow,2020.1.2,59.895052248445765,
7,Block508.xls,A,8,4,37,37,12,congruent,Right,Right,Left,66,65,1,blue,2,5,/home/docky/apps/exp/images/66Bi.jpeg,/home/docky/apps/exp/images/35Y.jpeg,0,6,6,6,0,3,3,3,779.9905045129999,None,779.9905045129999,None,1,3.8751451650005038,779.9905045129999,None,783.8990555429991,None,783.8990555429991,None,786.4024510460004,None,786.4024510460004,None,1.0502404199996818,788.2059089859995,None,788.2059089859995,None,6,0,0.9012383079989377,789.2423746299992,None,789.2423746299992,None,789.2423746299992,None,790.1599485459992,None,1,0.5518453629993019,790.1599485459992,None,76,790.7283698989995,None,147,A,1,2021_Jun_04_1055,GazeFlow,2020.1.2,59.895052248445765,
7,Block508.xls,A,8,5,82,22,21,incongruent,Right,Left,Right,38,39,1,yellow,2,6,/home/docky/apps/exp/images/38Y.jpeg,/home/docky/apps/exp/images/39Yi.jpeg,0,6,6,6,0,4,4,4,791.7298371060006,None,791.7298371060006,None,1,3.7083524680001574,791.7298371060006,None,795.4717078159993,None,795.4717078159993,None,797.973763861999,None,797.973763861999,None,1.0170131630002288,799.7777333829999,None,799.7777333829999,None,5,0,0.8175534910005808,800.781276792999,None,800.781276792999,None,800.781276792999,None,801.6156615079999,None,1,0.6018815549996361,801.6156615079999,None,74,802.2338618929989,None,147,A,1,2021_Jun_04_1055,GazeFlow,2020.1.2,59.895052248445765,
7,Block508.xls,A,8,6,104,44,22,incongruent,Left,Right,Left,39,38,1,blue,2,5,/home/docky/apps/exp/images/39B.jpeg,/home/docky/apps/exp/images/38Bi.jpeg,0,6,6,6,0,5,5,5,803.2354216069998,None,803.2354216069998,None,1,3.859234331999687,803.2354216069998,None,807.1274065189991,None,807.1274065189991,None,809.6305581289998,None,809.6305581289998,None,1.050232995999977,811.4323400070007,None,811.4323400070007,None,5,1,0.9015200489993731,812.4707324089995,None,812.4707324089995,None,812.4707324089995,None,813.3886445829994,None,1,0.6515962820012646,813.3886445829994,None,76,814.0565150799994,None,147,A,1,2021_Jun_04_1055,GazeFlow,2020.1.2,59.895052248445765,
7,Block508.xls,A,8,7,39,39,12,congruent,Right,Right,Left,79,73,6,blue,2,5,/home/docky/apps/exp/images/79B.jpeg,/home/docky/apps/exp/images/73Bi.jpeg,0,6,6,6,0,6,6,6,815.0586330740007,None,815.0586330740007,None,1,4.175342204000117,815.0586330740007,None,819.2678980969995,None,819.2678980969995,None,821.773780599,None,821.773780599,None,1.033578626000235,823.5739308060001,None,823.5739308060001,None,5,1,0.8680969529996219,824.5942132229993,None,824.5942132229993,None,824.5942132229993,None,825.4788455300004,None,1,0.5348925090002012,825.4788455300004,None,78,826.0302159940002,None,147,A,1,2021_Jun_04_1055,GazeFlow,2020.1.2,59.895052248445765,
7,Block508.xls,A,8,8,36,36,12,congruent,Right,Right,Left,66,65,1,blue,2,5,/home/docky/apps/exp/images/66B.jpeg,/home/docky/apps/exp/images/35Yi.jpeg,0,6,6,6,0,7,7,7,827.0317190179994,None,827.0317190179994,None,1,3.2069153280008322,827.0317190179994,None,830.2724465739993,None,830.2724465739993,None,832.774994378,None,832.774994378,None,0.9836491499991098,834.5787138809992,None,834.5787138809992,None,5,1,0.884575288000633,835.548896201999,None,835.548896201999,None,835.548896201999,None,836.4498824820002,None,1,0.6190275970002403,836.4498824820002,None,80,837.0849839519997,None,147,A,1,2021_Jun_04_1055,GazeFlow,2020.1.2,59.895052248445765,
7,Block508.xls,A,,,,,,,,,,,,,,,,,,0,6,6,6,,,,,,,,,,,,,,,,,,,,,,,,,,,,,,,,,,,,,,,,,,,,147,A,1,2021_Jun_04_1055,GazeFlow,2020.1.2,59.895052248445765,
8,Block510.xls,A,10,1,102,42,22,incongruent,Left,Right,Left,83,80,3,blue,2,5,/home/docky/apps/exp/images/83B.jpeg,/home/docky/apps/exp/images/80Bi.jpeg,0,7,7,7,0,0,0,0,863.7532711949989,None,863.7532711949989,None,1,5.350987656000143,863.7532711949989,None,869.1340799019999,None,869.1340799019999,None,871.6526598479995,None,871.6526598479995,None,0.9328447339994455,873.4563757710002,None,873.4563757710002,None,5,1,0.8348910840013559,874.3740790829997,None,874.3740790829997,None,874.3740790829997,None,875.2252991639998,None,1,0.5688045639999473,875.2252991639998,None,82,875.810261356999,None,147,A,1,2021_Jun_04_1055,GazeFlow,2020.1.2,59.895052248445765,
8,Block510.xls,A,10,2,114,54,22,incongruent,Left,Right,Left,76,69,7,yellow,2,5,/home/docky/apps/exp/images/76Yi.jpeg,/home/docky/apps/exp/images/69Y.jpeg,0,7,7,7,0,1,1,1,876.8119634129998,None,876.8119634129998,None,1,3.75833874700038,876.8119634129998,None,880.6038187209997,None,880.6038187209997,None,883.1070346880006,None,883.1070346880006,None,1.1002310730000318,884.9119492569989,None,884.9119492569989,None,5,1,0.9346654820001277,885.996891404,None,885.996891404,None,885.996891404,None,886.9479629540001,None,1,0.5188857369994366,886.9479629540001,None,84,887.4828392599993,None,147,A,1,2021_Jun_04_1055,GazeFlow,2020.1.2,59.895052248445765,
8,Block510.xls,A,10,3,72,12,21,incongruent,Right,Left,Right,76,79,3,blue,2,6,/home/docky/apps/exp/images/76Bi.jpeg,/home/docky/apps/exp/images/79B.jpeg,0,7,7,7,0,2,2,2,888.484332828999,None,888.484332828999,None,1,3.7581514489993424,888.484332828999,None,892.2762827549996,None,892.2762827549996,None,894.7797700279989,None,894.7797700279989,None,1.1169790329986427,896.5820604870005,None,896.5820604870005,None,6,1,0.8844073879990901,897.6861915329991,None,897.6861915329991,None,897.6861915329991,None,898.587514941999,None,1,0.5348268930010818,898.587514941999,None,86,899.1384372949997,None,147,A,1,2021_Jun_04_1055,GazeFlow,2020.1.2,59.895052248445765,
8,Block510.xls,A,10,4,112,52,22,incongruent,Left,Right,Left,75,69,6,yellow,2,5,/home/docky/apps/exp/images/76Y.jpeg,/home/docky/apps/exp/images/69Yi.jpeg,0,7,7,7,0,3,3,3,900.1404756020002,None,900.1404756020002,None,1,3.9082464250004705,900.1404756020002,None,904.0824541050006,None,904.0824541050006,None,906.5854101189998,None,906.5854101189998,None,0.9834709339993424,908.383925012,None,908.383925012,None,5,1,1.0011609479988692,909.3590154760004,None,909.3590154760004,None,909.3590154760004,None,910.3769342899996,None,1,0.5016744470012782,910.3769342899996,None,88,910.8949759669995,None,147,A,1,2021_Jun_04_1055,GazeFlow,2020.1.2,59.895052248445765,
8,Block510.xls,A,10,5,17,17,11,congruent,Left,Left,Right,33,35,2,yellow,2,6,/home/docky/apps/exp/images/33Y.jpeg,/home/docky/apps/exp/images/35Yi.jpeg,0,7,7,7,0,4,4,4,911.8966090859994,None,911.8966090859994,None,1,4.091990350998458,911.8966090859994,None,916.0223385259997,None,916.0223385259997,None,918.525472596999,None,918.525472596999,None,1.0669006429998262,920.3229536899998,None,920.3229536899998,None,5,0,0.8677272889999585,921.3824535469994,None,921.3824535469994,None,921.3824535469994,None,922.2665448080006,None,1,0.5185957029989368,922.2665448080006,None,86,922.8015087269996,None,147,A,1,2021_Jun_04_1055,GazeFlow,2020.1.2,59.895052248445765,
8,Block510.xls,A,10,6,31,31,12,congruent,Right,Right,Left,19,16,3,blue,2,5,/home/docky/apps/exp/images/19Bi.jpeg,/home/docky/apps/exp/images/16B.jpeg,0,7,7,7,0,5,5,5,923.8030167060006,None,923.8030167060006,None,1,4.075822324999535,923.8030167060006,None,927.9121887700003,None,927.9121887700003,None,930.4152404479992,None,930.4152404479992,None,0.8667714559996966,932.2136374299989,None,932.2136374299989,None,5,1,1.034894501999588,933.0716209149996,None,933.0716209149996,None,933.0716209149996,None,934.1230654739993,None,1,0.5352371479984868,934.1230654739993,None,88,934.6743756840006,None,147,A,1,2021_Jun_04_1055,GazeFlow,2020.1.2,59.895052248445765,
8,Block510.xls,A,10,7,61,1,21,incongruent,Right,Left,Right,16,19,3,blue,2,6,/home/docky/apps/exp/images/16Bi.jpeg,/home/docky/apps/exp/images/19B.jpeg,0,7,7,7,0,6,6,6,935.6760930300006,None,935.6760930300006,None,1,3.27373427800012,935.6760930300006,None,938.9836750680006,None,938.9836750680006,None,941.4860937880003,None,941.4860937880003,None,1.0673653330013622,943.2842586610004,None,943.2842586610004,None,6,1,0.9347718529988924,944.3435082319993,None,944.3435082319993,None,944.3435082319993,None,945.2947274559992,None,1,0.45187883300059184,945.2947274559992,None,90,945.7626791410003,None,147,A,1,2021_Jun_04_1055,GazeFlow,2020.1.2,59.895052248445765,
8,Block510.xls,A,10,8,94,34,22,incongruent,Left,Right,Left,38,35,3,blue,2,5,/home/docky/apps/exp/images/38Bi.jpeg,/home/docky/apps/exp/images/35B.jpeg,0,7,7,7,0,7,7,7,946.7643743789995,None,946.7643743789995,None,1,3.641416915001173,946.7643743789995,None,950.438981760999,None,950.438981760999,None,952.9421056629999,None,952.9421056629999,None,1.0835950979999325,954.7453176220006,None,954.7453176220006,None,5,1,0.8677431730011449,955.8158493989995,None,955.8158493989995,None,955.8158493989995,None,956.7005138620007,None,1,0.6349697589994321,956.7005138620007,None,92,957.3520286580006,None,147,A,1,2021_Jun_04_1055,GazeFlow,2020.1.2,59.895052248445765,
8,Block510.xls,A,,,,,,,,,,,,,,,,,,0,7,7,7,,,,,,,,,,,,,,,,,,,,,,,,,,,,,,,,,,,,,,,,,,,,147,A,1,2021_Jun_04_1055,GazeFlow,2020.1.2,59.895052248445765,
9,Block507.xls,A,7,1,110,50,22,incongruent,Left,Right,Left,66,65,1,yellow,2,5,/home/docky/apps/exp/images/66Y.jpeg,/home/docky/apps/exp/images/35Bi.jpeg,0,8,8,8,0,0,0,0,982.968356506999,None,982.968356506999,None,1,4.635286943999745,982.968356506999,None,987.6247003549997,None,987.6247003549997,None,990.1496734529992,None,990.1496734529992,None,0.9995600419988477,991.9514742729989,None,991.9514742729989,None,5,1,0.867910318000213,992.937640909,None,992.937640909,None,992.937640909,None,993.822107258,None,1,0.5522318769999401,993.822107258,None,94,994.3905539369989,None,147,A,1,2021_Jun_04_1055,GazeFlow,2020.1.2,59.895052248445765,
9,Block507.xls,A,7,2,90,30,22,incongruent,Right,Left,Right,16,19,3,blue,2,6,/home/docky/apps/exp/images/16Bi.jpeg,/home/docky/apps/exp/images/19B.jpeg,0,8,8,8,0,1,1,1,995.3921480099998,None,995.3921480099998,None,1,3.85863513699951,995.3921480099998,None,999.284205512,None,999.284205512,None,1001.787097045999,None,1001.787097045999,None,0.933711054000014,1003.5898470979992,None,1003.5898470979992,None,6,1,0.8675790719989891,1004.5103100969991,None,1004.5103100969991,None,1004.5103100969991,None,1005.39485891,None,1,0.4515785160001542,1005.39485891,None,96,1005.8624420430006,None,147,A,1,2021_Jun_04_1055,GazeFlow,2020.1.2,59.895052248445765,
9,Block507.xls,A,7,3,16,16,11,congruent,Left,Left,Right,33,35,2,yellow,2,6,/home/docky/apps/exp/images/33Yi.jpeg,/home/docky/apps/exp/images/35Y.jpeg,0,8,8,8,0,2,2,2,1006.8645632909993,None,1006.8645632909993,None,1,3.4243646659997466,1006.8645632909993,None,1010.3221316639992,None,1010.3221316639992,None,1012.8248553129997,None,1012.8248553129997,None,1.0336391019991424,1014.6283965370003,None,1014.6283965370003,None,6,1,0.8175747669993143,1015.6488836789995,None,1015.6488836789995,None,1015.6488836789995,None,1016.4829549089991,None,1,0.635757398998976,1016.4829549089991,None,98,1017.1346693619998,None,147,A,1,2021_Jun_04_1055,GazeFlow,2020.1.2,59.895052248445765,
9,Block507.xls,A,7,4,117,57,22,incongruent,Left,Right,Left,77,72,5,yellow,2,5,/home/docky/apps/exp/images/77Y.jpeg,/home/docky/apps/exp/images/72Yi.jpeg,0,8,8,8,0,3,3,3,1018.1362650829997,None,1018.1362650829997,None,1,3.2570284149987856,1018.1362650829997,None,1021.4271621869993,None,1021.4271621869993,None,1023.9299646300005,None,1023.9299646300005,None,0.73315475399977,1025.733831861,None,1025.733831861,None,5,1,0.8847664579989214,1026.4529430490002,None,1026.4529430490002,None,1026.4529430490002,None,1027.3539447019994,None,1,0.48445991600056004,1027.3539447019994,None,100,1027.855068936,None,147,A,1,2021_Jun_04_1055,GazeFlow,2020.1.2,59.895052248445765,
9,Block507.xls,A,7,5,53,53,12,congruent,Right,Right,Left,75,69,6,yellow,2,5,/home/docky/apps/exp/images/76Yi.jpeg,/home/docky/apps/exp/images/69Y.jpeg,0,8,8,8,0,4,4,4,1028.8570369629997,None,1028.8570369629997,None,1,3.725122014999215,1028.8570369629997,None,1032.6158744219993,None,1032.6158744219993,None,1035.1255559719993,None,1035.1255559719993,None,0.9831167230004212,1036.9214479040002,None,1036.9214479040002,None,5,1,0.9011950129988691,1037.8918825759993,None,1037.8918825759993,None,1037.8918825759993,None,1038.809936746,None,1,0.6009710170001199,1038.809936746,None,102,1039.4278880559996,None,147,A,1,2021_Jun_04_1055,GazeFlow,2020.1.2,59.895052248445765,
9,Block507.xls,A,7,6,96,36,22,incongruent,Left,Right,Left,66,65,1,blue,2,5,/home/docky/apps/exp/images/66Bi.jpeg,/home/docky/apps/exp/images/35Y.jpeg,0,8,8,8,0,5,5,5,1040.4296222480007,None,1040.4296222480007,None,1,2.939713476000179,1040.4296222480007,None,1043.402988504,None,1043.402988504,None,1045.9067519309992,None,1045.9067519309992,None,0.9164172279997729,1047.7101466929998,None,1047.7101466929998,None,5,1,0.8846873500006041,1048.6127687930002,None,1048.6127687930002,None,1048.6127687930002,None,1049.5138059500005,None,1,0.5681303429992113,1049.5138059500005,None,104,1050.098915134,None,147,A,1,2021_Jun_04_1055,GazeFlow,2020.1.2,59.895052248445765,
9,Block507.xls,A,7,7,58,58,12,congruent,Right,Right,Left,77,72,5,yellow,2,5,/home/docky/apps/exp/images/77Yi.jpeg,/home/docky/apps/exp/images/72Y.jpeg,0,8,8,8,0,6,6,6,1051.100460407999,None,1051.100460407999,None,1,3.4077241939994565,1051.100460407999,None,1054.5414410560006,None,1054.5414410560006,None,1057.044736554999,None,1057.044736554999,None,0.9331563989999268,1058.8473443599996,None,1058.8473443599996,None,5,1,0.8848058940002375,1059.767695696999,None,1059.767695696999,None,1059.767695696999,None,1060.6691839359992,None,1,0.48455561800074065,1060.6691839359992,None,106,1061.1703178909993,None,147,A,1,2021_Jun_04_1055,GazeFlow,2020.1.2,59.895052248445765,
9,Block507.xls,A,7,8,41,41,12,congruent,Right,Right,Left,79,76,3,blue,2,5,/home/docky/apps/exp/images/79Bi.jpeg,/home/docky/apps/exp/images/76B.jpeg,0,8,8,8,0,7,7,7,1062.1719202059994,None,1062.1719202059994,None,1,3.3909053839997796,1062.1719202059994,None,1065.6016523100006,None,1065.6016523100006,None,1068.0993232689998,None,1068.0993232689998,None,0.9000646059994324,1069.9019465109996,None,1069.9019465109996,None,5,1,0.8847873440008698,1070.7891202440005,None,1070.7891202440005,None,1070.7891202440005,None,1071.6901638220006,None,1,0.5184319940017303,1071.6901638220006,None,108,1072.2250630079998,None,147,A,1,2021_Jun_04_1055,GazeFlow,2020.1.2,59.895052248445765,
9,Block507.xls,A,,,,,,,,,,,,,,,,,,0,8,8,8,,,,,,,,,,,,,,,,,,,,,,,,,,,,,,,,,,,,,,,,,,,,147,A,1,2021_Jun_04_1055,GazeFlow,2020.1.2,59.895052248445765,
10,Block515.xls,A,15,1,107,47,22,incongruent,Left,Right,Left,35,33,2,yellow,2,5,/home/docky/apps/exp/images/35Yi.jpeg,/home/docky/apps/exp/images/33Y.jpeg,0,9,9,9,0,0,0,0,1095.6052083249997,None,1095.6052083249997,None,1,6.417220389999784,1095.6052083249997,None,1102.0590305280002,None,1102.0590305280002,None,1104.5719261569993,None,1104.5719261569993,None,0.8661701520013594,1106.3691923240003,None,1106.3691923240003,None,5,1,0.9179578229995968,1107.2265619539994,None,1107.2265619539994,None,1107.2265619539994,None,1108.1612868819993,None,1,0.551179336000132,1108.1612868819993,None,110,1108.7294167130003,None,147,A,1,2021_Jun_04_1055,GazeFlow,2020.1.2,59.895052248445765,
10,Block515.xls,A,15,2,55,55,12,congruent,Right,Right,Left,76,69,7,yellow,2,5,/home/docky/apps/exp/images/76Yi.jpeg,/home/docky/apps/exp/images/69Y.jpeg,0,9,9,9,0,1,1,1,1109.730803823999,None,1109.730803823999,None,1,3.808677594999608,1109.730803823999,None,1113.574784426999,None,1113.574784426999,None,1116.0759400959996,None,1116.0759400959996,None,0.9499353580013121,1117.8785401200003,None,1117.8785401200003,None,5,1,0.9346516850000626,1118.8157822329995,None,1118.8157822329995,None,1118.8157822329995,None,1119.767062294999,None,1,0.6176921909991506,1119.767062294999,None,112,1120.4013524019992,None,147,A,1,2021_Jun_04_1055,GazeFlow,2020.1.2,59.895052248445765,
10,Block515.xls,A,15,3,75,15,21,incongruent,Right,Left,Right,33,35,2,yellow,2,6,/home/docky/apps/exp/images/33Yi.jpeg,/home/docky/apps/exp/images/35Y.jpeg,0,9,9,9,0,2,2,2,1121.4038813080006,None,1121.4038813080006,None,1,3.457087684000726,1121.4038813080006,None,1124.894784299,None,1124.894784299,None,1127.3980067520006,None,1127.3980067520006,None,1.0164471979987866,1129.2012706999994,None,1129.2012706999994,None,6,1,0.8011073540001235,1130.2045637310002,None,1130.2045637310002,None,1130.2045637310002,None,1131.0222408949994,None,1,0.518346549000853,1131.0222408949994,None,114,1131.556804111,None,147,A,1,2021_Jun_04_1055,GazeFlow,2020.1.2,59.895052248445765,
10,Block515.xls,A,15,4,62,2,21,incongruent,Right,Left,Right,35,38,3,blue,2,6,/home/docky/apps/exp/images/35Bi.jpeg,/home/docky/apps/exp/images/38B.jpeg,0,9,9,9,0,3,3,3,1132.558351132,None,1132.558351132,None,1,3.607991155000491,1132.558351132,None,1136.2004478149993,None,1136.2004478149993,None,1138.7088889179995,None,1138.7088889179995,None,1.0837452769992524,1140.5062926699993,None,1140.5062926699993,None,6,1,0.8176399530002527,1141.576740941,None,1141.576740941,None,1141.576740941,None,1142.4109535890002,None,1,0.45162589800020214,1142.4109535890002,None,116,1142.878897925999,None,147,A,1,2021_Jun_04_1055,GazeFlow,2020.1.2,59.895052248445765,
10,Block515.xls,A,15,5,100,40,22,incongruent,Left,Right,Left,79,76,3,blue,2,5,/home/docky/apps/exp/images/79Bi.jpeg,/home/docky/apps/exp/images/76B.jpeg,0,9,9,9,0,4,4,4,1143.880614709,None,1143.880614709,None,1,3.7912695890008763,1143.880614709,None,1147.7055997490006,None,1147.7055997490006,None,1150.2088516069998,None,1150.2088516069998,None,0.9502026490008575,1152.011561719999,None,1152.011561719999,None,6,0,0.8845714819999557,1152.9487036619994,None,1152.9487036619994,None,1152.9487036619994,None,1153.8499482509997,None,1,0.501579899000717,1153.8499482509997,None,114,1154.368064500999,None,147,A,1,2021_Jun_04_1055,GazeFlow,2020.1.2,59.895052248445765,
10,Block515.xls,A,15,6,108,48,22,incongruent,Left,Right,Left,39,38,1,yellow,2,5,/home/docky/apps/exp/images/39Y.jpeg,/home/docky/apps/exp/images/38Yi.jpeg,0,9,9,9,0,5,5,5,1155.3695096310003,None,1155.3695096310003,None,1,3.6411299829997006,1155.3695096310003,None,1159.0274727510005,None,1159.0274727510005,None,1161.5476708400001,None,1161.5476708400001,None,1.0836364830011007,1163.345891457,None,1163.345891457,None,5,1,0.8343771759991796,1164.4209695669997,None,1164.4209695669997,None,1164.4209695669997,None,1165.272314124999,None,1,0.6682474429999274,1165.272314124999,None,116,1165.9567181540006,None,147,A,1,2021_Jun_04_1055,GazeFlow,2020.1.2,59.895052248445765,
10,Block515.xls,A,15,7,59,59,12,congruent,Right,Right,Left,80,79,1,yellow,2,5,/home/docky/apps/exp/images/80Y.jpeg,/home/docky/apps/exp/images/79Yi.jpeg,0,9,9,9,0,6,6,6,1166.9587762009996,None,1166.9587762009996,None,1,3.089947153999674,1166.9587762009996,None,1170.0825752,None,1170.0825752,None,1172.585830009999,None,1172.585830009999,None,0.9834159460006049,1174.3835383280002,None,1174.3835383280002,None,5,1,0.8516529909993551,1175.358990887,None,1175.358990887,None,1175.358990887,None,1176.226569082999,None,1,0.5185336499998812,1176.226569082999,None,118,1176.7615134669995,None,147,A,1,2021_Jun_04_1055,GazeFlow,2020.1.2,59.895052248445765,
10,Block515.xls,A,15,8,8,8,11,congruent,Left,Left,Right,38,39,1,blue,2,6,/home/docky/apps/exp/images/38B.jpeg,/home/docky/apps/exp/images/39Bi.jpeg,0,9,9,9,0,7,7,7,1177.7629589169992,None,1177.7629589169992,None,1,3.7584581700011768,1177.7629589169992,None,1181.5548397090006,None,1181.5548397090006,None,1184.0594962659998,None,1184.0594962659998,None,0.9333577739998873,1185.861529283,None,1185.861529283,None,6,1,0.8844738469997537,1186.780937186999,None,1186.780937186999,None,1186.780937186999,None,1187.6820853690006,None,1,0.40105642300113686,1187.6820853690006,None,120,1188.0997670960005,None,147,A,1,2021_Jun_04_1055,GazeFlow,2020.1.2,59.895052248445765,
10,Block515.xls,A,,,,,,,,,,,,,,,,,,0,9,9,9,,,,,,,,,,,,,,,,,,,,,,,,,,,,,,,,,,,,,,,,,,,,147,A,1,2021_Jun_04_1055,GazeFlow,2020.1.2,59.895052248445765,
11,Block512.xls,A,12,1,30,30,11,congruent,Left,Left,Right,79,82,3,yellow,2,6,/home/docky/apps/exp/images/79Yi.jpeg,/home/docky/apps/exp/images/80Y.jpeg,0,10,10,10,0,0,0,0,1208.9737896909992,None,1208.9737896909992,None,1,5.298185182000452,1208.9737896909992,None,1214.2998703939993,None,1214.2998703939993,None,1216.8234132859998,None,1216.8234132859998,None,1.0494009169997298,1218.6101602960007,None,1218.6101602960007,None,6,1,0.7846497099999397,1219.6450908360002,None,1219.6450908360002,None,1219.6450908360002,None,1220.4459681129993,None,1,0.6351648199997726,1220.4459681129993,None,122,1221.097639956999,None,147,A,1,2021_Jun_04_1055,GazeFlow,2020.1.2,59.895052248445765,
11,Block512.xls,A,12,2,115,55,22,incongruent,Left,Right,Left,76,69,7,yellow,2,5,/home/docky/apps/exp/images/76Yi.jpeg,/home/docky/apps/exp/images/69Y.jpeg,0,10,10,10,0,1,1,1,1222.0990558840003,None,1222.0990558840003,None,1,3.5243017499997222,1222.0990558840003,None,1225.6570008140006,None,1225.6570008140006,None,1228.1602483959996,None,1228.1602483959996,None,0.850070088999928,1229.9634929509994,None,1229.9634929509994,None,5,1,0.7843369649999659,1230.7999672200003,None,1230.7999672200003,None,1230.7999672200003,None,1231.6005963789994,None,1,0.5015586219997203,1231.6005963789994,None,124,1232.118708726999,None,147,A,1,2021_Jun_04_1055,GazeFlow,2020.1.2,59.895052248445765,
11,Block512.xls,A,12,3,66,6,21,incongruent,Right,Left,Right,38,39,1,blue,2,6,/home/docky/apps/exp/images/38B.jpeg,/home/docky/apps/exp/images/39Bi.jpeg,0,10,10,10,0,2,2,2,1233.1203343819998,None,1233.1203343819998,None,1,3.2239263850005955,1233.1203343819998,None,1236.3777962990007,None,1236.3777962990007,None,1238.8828735400002,None,1238.8828735400002,None,0.9169275730000663,1240.6847478700001,None,1240.6847478700001,None,6,1,0.7678201939997962,1241.587410913,None,1241.587410913,None,1241.587410913,None,1242.3718484839992,None,1,0.4843409149998479,1242.3718484839992,None,126,1242.872732111,None,147,A,1,2021_Jun_04_1055,GazeFlow,2020.1.2,59.895052248445765,
11,Block512.xls,A,12,4,35,35,12,congruent,Right,Right,Left,66,65,1,blue,2,5,/home/docky/apps/exp/images/66B.jpeg,/home/docky/apps/exp/images/35Yi.jpeg,0,10,10,10,0,3,3,3,1243.874711483999,None,1243.874711483999,None,1,3.057246177999332,1243.874711483999,None,1246.965402591999,None,1246.965402591999,None,1249.4684879100005,None,1249.4684879100005,None,0.9500150370004121,1251.2657785989995,None,1251.2657785989995,None,5,1,0.8682208800000808,1252.2082647160005,None,1252.2082647160005,None,1252.2082647160005,None,1253.0926303569995,None,1,0.46802682199995616,1253.0926303569995,None,128,1253.5771239429996,None,147,A,1,2021_Jun_04_1055,GazeFlow,2020.1.2,59.895052248445765,
11,Block512.xls,A,12,5,40,40,12,congruent,Right,Right,Left,79,76,3,blue,2,5,/home/docky/apps/exp/images/79Bi.jpeg,/home/docky/apps/exp/images/76B.jpeg,0,10,10,10,0,4,4,4,1254.5789852340004,None,1254.5789852340004,None,1,3.223536053999851,1254.5789852340004,None,1257.8363079730007,None,1257.8363079730007,None,1260.3411146180006,None,1260.3411146180006,None,1.0502127550007572,1262.1431018429994,None,1262.1431018429994,None,5,1,0.8345843480001349,1263.179408246,None,1263.179408246,None,1263.179408246,None,1264.0307921540007,None,1,0.5842076579992863,1264.0307921540007,None,130,1264.6317166089993,None,147,A,1,2021_Jun_04_1055,GazeFlow,2020.1.2,59.895052248445765,
11,Block512.xls,A,12,6,64,4,21,incongruent,Right,Left,Right,65,66,1,blue,2,6,/home/docky/apps/exp/images/35Yi.jpeg,/home/docky/apps/exp/images/66B.jpeg,0,10,10,10,0,5,5,5,1265.6338849980002,None,1265.6338849980002,None,1,3.09024617400064,1265.6338849980002,None,1268.7574113890005,None,1268.7574113890005,None,1271.262522985,None,1271.262522985,None,0.9667460879991268,1273.0634603149992,None,1273.0634603149992,None,6,1,0.9012693539989414,1274.0172416999994,None,1274.0172416999994,None,1274.0172416999994,None,1274.9349885390002,None,1,0.4851589000008971,1274.9349885390002,None,132,1275.436654223,None,147,A,1,2021_Jun_04_1055,GazeFlow,2020.1.2,59.895052248445765,
11,Block512.xls,A,12,7,12,12,11,congruent,Left,Left,Right,76,79,3,blue,2,6,/home/docky/apps/exp/images/76B.jpeg,/home/docky/apps/exp/images/79Bi.jpeg,0,10,10,10,0,6,6,6,1276.438220218999,None,1276.438220218999,None,1,3.0565492210007505,1276.438220218999,None,1279.5289427749995,None,1279.5289427749995,None,1282.033295117999,None,1282.033295117999,None,0.8494352770012483,1283.8352762430004,None,1283.8352762430004,None,6,1,0.7512069669992343,1284.6712734779994,None,1284.6712734779994,None,1284.6712734779994,None,1285.4388659020005,None,1,0.58467556100004,1285.4388659020005,None,134,1286.0398601849993,None,147,A,1,2021_Jun_04_1055,GazeFlow,2020.1.2,59.895052248445765,
11,Block512.xls,A,12,8,49,49,12,congruent,Right,Right,Left,39,38,1,yellow,2,5,/home/docky/apps/exp/images/39Y.jpeg,/home/docky/apps/exp/images/38Yi.jpeg,0,10,10,10,0,7,7,7,1287.0419004729993,None,1287.0419004729993,None,1,3.040508640999178,1287.0419004729993,None,1290.1157394500005,None,1290.1157394500005,None,1292.6189462370003,None,1292.6189462370003,None,1.0336588439986372,1294.4211749349997,None,1294.4211749349997,None,5,1,2.637738397001158,1295.4423538869996,None,1295.4423538869996,None,1295.4423538869996,None,1298.0968882590005,None,1,0.952436163001039,1298.0968882590005,None,136,1299.065749284,None,147,A,1,2021_Jun_04_1055,GazeFlow,2020.1.2,59.895052248445765,
11,Block512.xls,A,,,,,,,,,,,,,,,,,,0,10,10,10,,,,,,,,,,,,,,,,,,,,,,,,,,,,,,,,,,,,,,,,,,,,147,A,1,2021_Jun_04_1055,GazeFlow,2020.1.2,59.895052248445765,
12,Block503.xls,A,3,1,22,22,11,congruent,Left,Left,Right,62,65,3,yellow,2,6,/home/docky/apps/exp/images/38Bi.jpeg,/home/docky/apps/exp/images/35B.jpeg,0,11,11,11,0,0,0,0,1323.9490217799994,None,1323.9490217799994,None,1,4.748341456999697,1323.9490217799994,None,1328.7245622280007,None,1328.7245622280007,None,1331.2518047949998,None,1331.2518047949998,None,0.8825562410002021,1333.047219967999,None,1333.047219967999,None,5,0,0.7176054690007732,1333.9170131409992,None,1333.9170131409992,None,1333.9170131409992,None,1334.6511736499997,None,1,0.534838456000216,1334.6511736499997,None,134,1335.2021675849992,None,147,A,1,2021_Jun_04_1055,GazeFlow,2020.1.2,59.895052248445765,
12,Block503.xls,A,3,2,65,5,21,incongruent,Right,Left,Right,65,66,1,blue,2,6,/home/docky/apps/exp/images/35Y.jpeg,/home/docky/apps/exp/images/66Bi.jpeg,0,11,11,11,0,1,1,1,1336.204032923999,None,1336.204032923999,None,1,3.0232902640000248,1336.204032923999,None,1339.2597092020005,None,1339.2597092020005,None,1341.7656913909996,None,1341.7656913909996,None,0.8665852379999706,1343.5690096050002,None,1343.5690096050002,None,5,0,0.8009795250000025,1344.420818093,None,1344.420818093,None,1344.420818093,None,1345.2384460419999,None,1,0.5342363530016883,1345.2384460419999,None,132,1345.7894423710004,None,147,A,1,2021_Jun_04_1055,GazeFlow,2020.1.2,59.895052248445765,
12,Block503.xls,A,3,3,76,16,21,incongruent,Right,Left,Right,33,35,2,yellow,2,6,/home/docky/apps/exp/images/33Y.jpeg,/home/docky/apps/exp/images/35Yi.jpeg,0,11,11,11,0,2,2,2,1346.791393636,None,1346.791393636,None,1,3.29095482899902,1346.791393636,None,1350.1156219900004,None,1350.1156219900004,None,1352.6188056829997,None,1352.6188056829997,None,1.00018672799888,1354.4199211680007,None,1354.4199211680007,None,6,1,0.8015271360000042,1355.4086958219996,None,1355.4086958219996,None,1355.4086958219996,None,1356.2266087770004,None,1,0.41743590000078257,1356.2266087770004,None,134,1356.660651398999,None,147,A,1,2021_Jun_04_1055,GazeFlow,2020.1.2,59.895052248445765,
12,Block503.xls,A,3,4,29,29,11,congruent,Left,Left,Right,79,82,3,yellow,2,6,/home/docky/apps/exp/images/79Y.jpeg,/home/docky/apps/exp/images/80Yi.jpeg,0,11,11,11,0,3,3,3,1357.6625342690004,None,1357.6625342690004,None,1,2.822768788999383,1357.6625342690004,None,1360.5191591040002,None,1360.5191591040002,None,1363.0214896359994,None,1363.0214896359994,None,0.9335614259998692,1364.8250511610004,None,1364.8250511610004,None,6,1,0.8345974189996923,1365.7453191519999,None,1365.7453191519999,None,1365.7453191519999,None,1366.5962726960006,None,1,0.585431919000257,1366.5962726960006,None,136,1367.1981757310004,None,147,A,1,2021_Jun_04_1055,GazeFlow,2020.1.2,59.895052248445765,
12,Block503.xls,A,3,5,103,43,22,incongruent,Left,Right,Left,39,38,1,blue,2,5,/home/docky/apps/exp/images/39Bi.jpeg,/home/docky/apps/exp/images/38B.jpeg,0,11,11,11,0,4,4,4,1368.1998585649999,None,1368.1998585649999,None,1,2.956769587000963,1368.1998585649999,None,1371.1903266690006,None,1371.1903266690006,None,1373.6932774010002,None,1373.6932774010002,None,0.9331247249992884,1375.496820032,None,1375.496820032,None,5,1,0.7508083089996944,1376.4162941230006,None,1376.4162941230006,None,1376.4162941230006,None,1377.1836845020007,None,1,0.5510608479999064,1377.1836845020007,None,138,1377.7514687759995,None,147,A,1,2021_Jun_04_1055,GazeFlow,2020.1.2,59.895052248445765,
12,Block503.xls,A,3,6,47,47,12,congruent,Right,Right,Left,35,33,2,yellow,2,5,/home/docky/apps/exp/images/35Yi.jpeg,/home/docky/apps/exp/images/33Y.jpeg,0,11,11,11,0,5,5,5,1378.753297534,None,1378.753297534,None,1,3.2740676480007096,1378.753297534,None,1382.060916728,None,1382.060916728,None,1384.5638929300003,None,1384.5638929300003,None,1.0170888759985246,1386.363468010999,None,1386.363468010999,None,5,1,0.8009014519993798,1387.3708371289995,None,1387.3708371289995,None,1387.3708371289995,None,1388.1883205689992,None,1,0.518262039999172,1388.1883205689992,None,140,1388.7231885809997,None,147,A,1,2021_Jun_04_1055,GazeFlow,2020.1.2,59.895052248445765,
12,Block503.xls,A,3,7,20,20,11,congruent,Left,Left,Right,65,66,1,yellow,2,6,/home/docky/apps/exp/images/35Bi.jpeg,/home/docky/apps/exp/images/66Y.jpeg,0,11,11,11,0,6,6,6,1389.724861445,None,1389.724861445,None,1,3.0557061540002906,1389.724861445,None,1392.7982625469995,None,1392.7982625469995,None,1395.3201974959993,None,1395.3201974959993,None,1.0171446330004983,1397.1218691409995,None,1397.1218691409995,None,6,1,0.734540792000189,1398.1249253490005,None,1398.1249253490005,None,1398.1249253490005,None,1398.875776674,None,1,0.4509419810001418,1398.875776674,None,142,1399.34339233,None,147,A,1,2021_Jun_04_1055,GazeFlow,2020.1.2,59.895052248445765,
12,Block503.xls,A,3,8,27,27,11,congruent,Left,Left,Right,72,77,5,yellow,2,6,/home/docky/apps/exp/images/72Yi.jpeg,/home/docky/apps/exp/images/77Y.jpeg,0,11,11,11,0,7,7,7,1400.3453469699998,None,1400.3453469699998,None,1,2.739434712999355,1400.3453469699998,None,1403.118645638,None,1403.118645638,None,1405.621417511,None,1405.621417511,None,0.9832041970003047,1407.4236410199992,None,1407.4236410199992,None,6,1,0.7177260190001107,1408.3950114660001,None,1408.3950114660001,None,1408.3950114660001,None,1409.129093448999,None,1,0.45087577300000703,1409.129093448999,None,144,1409.5968811660005,None,147,A,1,2021_Jun_04_1055,GazeFlow,2020.1.2,59.895052248445765,
12,Block503.xls,A,,,,,,,,,,,,,,,,,,0,11,11,11,,,,,,,,,,,,,,,,,,,,,,,,,,,,,,,,,,,,,,,,,,,,147,A,1,2021_Jun_04_1055,GazeFlow,2020.1.2,59.895052248445765,
13,Block501.xls,A,1,1,54,54,12,congruent,Right,Right,Left,75,69,6,yellow,2,5,/home/docky/apps/exp/images/76Y.jpeg,/home/docky/apps/exp/images/69Yi.jpeg,0,12,12,12,0,0,0,0,1428.9679802739993,None,1428.9679802739993,None,1,5.485515382000813,1428.9679802739993,None,1434.4832501420005,None,1434.4832501420005,None,1436.9994109710005,None,1436.9994109710005,None,0.7659227779986395,1438.804601898999,None,1438.804601898999,None,5,1,0.8012454049985536,1439.5553378290006,None,1439.5553378290006,None,1439.5553378290006,None,1440.3731655810006,None,1,0.4847582769998553,1440.3731655810006,None,146,1440.8741019979989,None,147,A,1,2021_Jun_04_1055,GazeFlow,2020.1.2,59.895052248445765,
13,Block501.xls,A,1,2,70,10,21,incongruent,Right,Left,Right,73,76,3,blue,2,6,/home/docky/apps/exp/images/73Bi.jpeg,/home/docky/apps/exp/images/76B.jpeg,0,12,12,12,0,1,1,1,1441.8759976580004,None,1441.8759976580004,None,1,3.3739449530003185,1441.8759976580004,None,1445.2884575299995,None,1445.2884575299995,None,1447.7870456639994,None,1447.7870456639994,None,0.8999077540011058,1449.5899778889998,None,1449.5899778889998,None,6,1,0.8009493820009084,1450.4767785109998,None,1450.4767785109998,None,1450.4767785109998,None,1451.2944980499997,None,1,0.4007034210007987,1451.2944980499997,None,148,1451.7118220579996,None,147,A,1,2021_Jun_04_1055,GazeFlow,2020.1.2,59.895052248445765,
13,Block501.xls,A,1,3,84,24,21,incongruent,Right,Left,Right,69,76,7,yellow,2,6,/home/docky/apps/exp/images/69Yi.jpeg,/home/docky/apps/exp/images/76Y.jpeg,0,12,12,12,0,2,2,2,1452.7137764239997,None,1452.7137764239997,None,1,3.090070033000302,1452.7137764239997,None,1455.836079527,None,1455.836079527,None,1458.342537180999,None,1458.342537180999,None,0.9166342060016177,1460.1460025609995,None,1460.1460025609995,None,6,1,0.734369006999259,1461.0471952499993,None,1461.0471952499993,None,1461.0471952499993,None,1461.7983369510002,None,1,0.41736161900007573,1461.7983369510002,None,150,1462.2324873670004,None,147,A,1,2021_Jun_04_1055,GazeFlow,2020.1.2,59.895052248445765,
13,Block501.xls,A,1,4,26,26,11,congruent,Left,Left,Right,69,75,6,yellow,2,6,/home/docky/apps/exp/images/69Y.jpeg,/home/docky/apps/exp/images/76Yi.jpeg,0,12,12,12,0,3,3,3,1463.234188716,None,1463.234188716,None,1,2.856426325000939,1463.234188716,None,1466.1261814560003,None,1466.1261814560003,None,1468.6291199339994,None,1468.6291199339994,None,0.8657162960007554,1470.430435622,None,1470.430435622,None,6,1,0.7676039839989244,1471.2838176370005,None,1471.2838176370005,None,1471.2838176370005,None,1472.0682621899996,None,1,0.4172176040010527,1472.0682621899996,None,152,1472.5021217840003,None,147,A,1,2021_Jun_04_1055,GazeFlow,2020.1.2,59.895052248445765,
13,Block501.xls,A,1,5,97,37,22,incongruent,Left,Right,Left,79,73,6,blue,2,5,/home/docky/apps/exp/images/79B.jpeg,/home/docky/apps/exp/images/73Bi.jpeg,0,12,12,12,0,4,4,4,1473.5042811759995,None,1473.5042811759995,None,1,2.689331671999753,1473.5042811759995,None,1476.227128568,None,1476.227128568,None,1478.7316564970006,None,1478.7316564970006,None,0.9499879549985053,1480.5355900449995,None,1480.5355900449995,None,5,1,0.8014903410003171,1481.4699714679991,None,1481.4699714679991,None,1481.4699714679991,None,1482.288033879,None,1,0.45079940400137275,1482.288033879,None,154,1482.7555885879992,None,147,A,1,2021_Jun_04_1055,GazeFlow,2020.1.2,59.895052248445765,
13,Block501.xls,A,1,6,98,38,22,incongruent,Left,Right,Left,79,73,6,blue,2,5,/home/docky/apps/exp/images/79B.jpeg,/home/docky/apps/exp/images/73Bi.jpeg,0,12,12,12,0,5,5,5,1483.757443696999,None,1483.757443696999,None,1,3.9254609140007233,1483.757443696999,None,1487.7164511970004,None,1487.7164511970004,None,1490.220865493,None,1490.220865493,None,0.8669493650013465,1492.0232276379993,None,1492.0232276379993,None,5,1,0.8011601679991145,1492.8755578029995,None,1492.8755578029995,None,1492.8755578029995,None,1493.6938002440002,None,1,0.5506145710005512,1493.6938002440002,None,156,1494.2613624189999,None,147,A,1,2021_Jun_04_1055,GazeFlow,2020.1.2,59.895052248445765,
13,Block501.xls,A,1,7,77,17,21,incongruent,Right,Left,Right,65,66,1,yellow,2,6,/home/docky/apps/exp/images/35B.jpeg,/home/docky/apps/exp/images/66Yi.jpeg,0,12,12,12,0,6,6,6,1495.2631057119997,None,1495.2631057119997,None,1,3.357213335000779,1495.2631057119997,None,1498.6540490219995,None,1498.6540490219995,None,1501.1570072470004,None,1501.1570072470004,None,0.9833491980007238,1502.9606763659995,None,1502.9606763659995,None,6,1,0.7841341080002167,1503.930757131,None,1503.930757131,None,1503.930757131,None,1504.7313365989994,None,1,0.40102103000026545,1504.7313365989994,None,158,1505.1492851330004,None,147,A,1,2021_Jun_04_1055,GazeFlow,2020.1.2,59.895052248445765,
13,Block501.xls,A,1,8,50,50,12,congruent,Right,Right,Left,66,65,1,yellow,2,5,/home/docky/apps/exp/images/66Y.jpeg,/home/docky/apps/exp/images/35Bi.jpeg,0,12,12,12,0,7,7,7,1506.1509721099992,None,1506.1509721099992,None,1,2.789480953000748,1506.1509721099992,None,1508.974190813,None,1508.974190813,None,1511.4790672620002,None,1511.4790672620002,None,0.83307113400042,1513.2755768480001,None,1513.2755768480001,None,5,1,1.001565042999573,1514.100238985,None,1514.100238985,None,1514.100238985,None,1515.118345027,None,1,0.46801121899989084,1515.118345027,None,160,1515.6029841359996,None,147,A,1,2021_Jun_04_1055,GazeFlow,2020.1.2,59.895052248445765,
13,Block501.xls,A,,,,,,,,,,,,,,,,,,0,12,12,12,,,,,,,,,,,,,,,,,,,,,,,,,,,,,,,,,,,,,,,,,,,,147,A,1,2021_Jun_04_1055,GazeFlow,2020.1.2,59.895052248445765,
14,Block513.xls,A,13,1,32,32,12,congruent,Right,Right,Left,19,16,3,blue,2,5,/home/docky/apps/exp/images/19B.jpeg,/home/docky/apps/exp/images/16Bi.jpeg,0,13,13,13,0,0,0,0,1535.4757110329992,None,1535.4757110329992,None,1,4.8335335870015115,1535.4757110329992,None,1540.3380844490002,None,1540.3380844490002,None,1542.8567370340006,None,1542.8567370340006,None,0.8327290449997236,1544.658500964999,None,1544.658500964999,None,5,1,0.8176223799982836,1545.4779587489993,None,1545.4779587489993,None,1545.4779587489993,None,1546.312435689999,None,1,0.7521991800003889,1546.312435689999,None,162,1547.0808612269993,None,147,A,1,2021_Jun_04_1055,GazeFlow,2020.1.2,59.895052248445765,
14,Block513.xls,A,13,2,81,21,21,incongruent,Right,Left,Right,38,39,1,yellow,2,6,/home/docky/apps/exp/images/38Yi.jpeg,/home/docky/apps/exp/images/39Y.jpeg,0,13,13,13,0,1,1,1,1548.0823405339997,None,1548.0823405339997,None,1,3.4240965409990167,1548.0823405339997,None,1551.5413832140002,None,1551.5413832140002,None,1554.0432166800001,None,1554.0432166800001,None,0.8999502240003494,1555.8470673470001,None,1555.8470673470001,None,5,0,0.8181685899999138,1556.732896125999,None,1556.732896125999,None,1556.732896125999,None,1557.5674467480003,None,1,0.5183885420010483,1557.5674467480003,None,160,1558.1023582050002,None,147,A,1,2021_Jun_04_1055,GazeFlow,2020.1.2,59.895052248445765,
14,Block513.xls,A,13,3,92,32,22,incongruent,Left,Right,Left,19,16,3,blue,2,5,/home/docky/apps/exp/images/19B.jpeg,/home/docky/apps/exp/images/16Bi.jpeg,0,13,13,13,0,2,2,2,1559.1038226580004,None,1559.1038226580004,None,1,3.1735453350011085,1559.1038226580004,None,1562.311082463999,None,1562.311082463999,None,1564.8160520620004,None,1564.8160520620004,None,0.9836437399990245,1566.6175957209998,None,1566.6175957209998,None,5,1,0.7674601830003667,1567.5876336740002,None,1567.5876336740002,None,1567.5876336740002,None,1568.371761495,None,1,0.5010785869999381,1568.371761495,None,162,1568.889446219,None,147,A,1,2021_Jun_04_1055,GazeFlow,2020.1.2,59.895052248445765,
14,Block513.xls,A,13,4,6,6,11,congruent,Left,Left,Right,65,66,1,blue,2,6,/home/docky/apps/exp/images/35Y.jpeg,/home/docky/apps/exp/images/66Bi.jpeg,0,13,13,13,0,3,3,3,1569.891668241,None,1569.891668241,None,1,3.223516018000737,1569.891668241,None,1573.1488944739995,None,1573.1488944739995,None,1575.6536809160007,None,1575.6536809160007,None,0.9499694449987146,1577.4547478210006,None,1577.4547478210006,None,5,0,1.3858602270011033,1578.3919896440002,None,1578.3919896440002,None,1578.3919896440002,None,1579.794437823999,None,1,0.8010878929999308,1579.794437823999,None,160,1580.6122536950006,None,147,A,1,2021_Jun_04_1055,GazeFlow,2020.1.2,59.895052248445765,
14,Block513.xls,A,13,5,67,7,21,incongruent,Right,Left,Right,38,39,1,blue,2,6,/home/docky/apps/exp/images/38Bi.jpeg,/home/docky/apps/exp/images/39B.jpeg,0,13,13,13,0,4,4,4,1581.6139521639998,None,1581.6139521639998,None,1,3.641785969000921,1581.6139521639998,None,1585.2891131029992,None,1585.2891131029992,None,1587.7919752910002,None,1587.7919752910002,None,0.799665606000417,1589.5949268679997,None,1589.5949268679997,None,5,0,0.9513249299998279,1590.3817338949993,None,1590.3817338949993,None,1590.3817338949993,None,1591.3499089300003,None,1,0.5511675979996653,1591.3499089300003,None,158,1591.9188195440001,None,147,A,1,2021_Jun_04_1055,GazeFlow,2020.1.2,59.895052248445765,
14,Block513.xls,A,13,6,111,51,22,incongruent,Left,Right,Left,66,65,1,yellow,2,5,/home/docky/apps/exp/images/66Yi.jpeg,/home/docky/apps/exp/images/35B.jpeg,0,13,13,13,0,5,5,5,1592.9194330139999,None,1592.9194330139999,None,1,3.8915234950000013,1592.9194330139999,None,1596.8448949630001,None,1596.8448949630001,None,1599.3522320449993,None,1599.3522320449993,None,1.083721422999588,1601.1508818170005,None,1601.1508818170005,None,5,1,0.8845704959985596,1602.2214255180006,None,1602.2214255180006,None,1602.2214255180006,None,1603.1226208730004,None,1,0.41817216200070106,1603.1226208730004,None,160,1603.557266800999,None,147,A,1,2021_Jun_04_1055,GazeFlow,2020.1.2,59.895052248445765,
14,Block513.xls,A,13,7,88,28,21,incongruent,Right,Left,Right,79,82,3,yellow,2,6,/home/docky/apps/exp/images/79Y.jpeg,/home/docky/apps/exp/images/80Yi.jpeg,0,13,13,13,0,6,6,6,1604.558830205,None,1604.558830205,None,1,3.3571549780008354,1604.558830205,None,1607.949804201,None,1607.949804201,None,1610.4525326889998,None,1610.4525326889998,None,0.9000031240011594,1612.259540268,None,1612.259540268,None,6,1,0.7844013550002273,1613.142838456999,None,1613.142838456999,None,1613.142838456999,None,1613.943842241999,None,1,0.5842303879999236,1613.943842241999,None,162,1614.545074706999,None,147,A,1,2021_Jun_04_1055,GazeFlow,2020.1.2,59.895052248445765,
14,Block513.xls,A,13,8,14,14,11,congruent,Left,Left,Right,80,83,3,blue,2,6,/home/docky/apps/exp/images/80B.jpeg,/home/docky/apps/exp/images/83Bi.jpeg,0,13,13,13,0,7,7,7,1615.547241065,None,1615.547241065,None,1,2.7390459399994143,1615.547241065,None,1618.319610692999,None,1618.319610692999,None,1620.824666515,None,1620.824666515,None,0.9500967359999777,1622.6284248459997,None,1622.6284248459997,None,6,1,0.7342317849997926,1623.5629183479996,None,1623.5629183479996,None,1623.5629183479996,None,1624.313468417,None,1,0.41796359200088773,1624.313468417,None,164,1624.748043313999,None,147,A,1,2021_Jun_04_1055,GazeFlow,2020.1.2,59.895052248445765,
14,Block513.xls,A,,,,,,,,,,,,,,,,,,0,13,13,13,,,,,,,,,,,,,,,,,,,,,,,,,,,,,,,,,,,,,,,,,,,,147,A,1,2021_Jun_04_1055,GazeFlow,2020.1.2,59.895052248445765,
15,Block514.xls,A,14,1,113,53,22,incongruent,Left,Right,Left,75,69,6,yellow,2,5,/home/docky/apps/exp/images/76Y.jpeg,/home/docky/apps/exp/images/69Yi.jpeg,0,14,14,14,0,0,0,0,1649.8695137579998,None,1649.8695137579998,None,1,5.2789873000001535,1649.8695137579998,None,1655.1748940790003,None,1655.1748940790003,None,1657.696228416,None,1657.696228416,None,0.9160769489990344,1659.4987124519994,None,1659.4987124519994,None,5,1,0.7844545379994088,1660.4011706109995,None,1660.4011706109995,None,1660.4011706109995,None,1661.2020922350002,None,1,0.5181103440008883,1661.2020922350002,None,166,1661.7363789680003,None,147,A,1,2021_Jun_04_1055,GazeFlow,2020.1.2,59.895052248445765,
15,Block514.xls,A,14,2,45,45,12,congruent,Right,Right,Left,39,38,1,blue,2,5,/home/docky/apps/exp/images/39B.jpeg,/home/docky/apps/exp/images/38Bi.jpeg,0,14,14,14,0,1,1,1,1662.7385591999991,None,1662.7385591999991,None,1,3.1071061860002374,1662.7385591999991,None,1665.879097728999,None,1665.879097728999,None,1668.3823074529992,None,1668.3823074529992,None,0.8666022930010513,1670.1856336740002,None,1670.1856336740002,None,5,1,0.9345894790003513,1671.038385017,None,1671.038385017,None,1671.038385017,None,1671.9899295169998,None,1,0.5014315480002551,1671.9899295169998,None,168,1672.5077971009996,None,147,A,1,2021_Jun_04_1055,GazeFlow,2020.1.2,59.895052248445765,
15,Block514.xls,A,14,3,52,52,12,congruent,Right,Right,Left,75,69,6,yellow,2,5,/home/docky/apps/exp/images/76Y.jpeg,/home/docky/apps/exp/images/69Yi.jpeg,0,14,14,14,0,2,2,2,1673.5092271140002,None,1673.5092271140002,None,1,2.9905548030001228,1673.5092271140002,None,1676.533047392999,None,1676.533047392999,None,1679.035902918,None,1679.035902918,None,0.8834971730011603,1680.8390483309995,None,1680.8390483309995,None,5,1,0.8177084710005147,1681.709255116999,None,1681.709255116999,None,1681.709255116999,None,1682.5435109150003,None,1,0.7859009650001099,1682.5435109150003,None,170,1683.3455858279995,None,147,A,1,2021_Jun_04_1055,GazeFlow,2020.1.2,59.895052248445765,
15,Block514.xls,A,14,4,106,46,22,incongruent,Left,Right,Left,35,33,2,yellow,2,5,/home/docky/apps/exp/images/35Yi.jpeg,/home/docky/apps/exp/images/33Y.jpeg,0,14,14,14,0,3,3,3,1684.3470334739995,None,1684.3470334739995,None,1,2.7565436019995104,1684.3470334739995,None,1687.1368876529996,None,1687.1368876529996,None,1689.6396203919994,None,1689.6396203919994,None,0.9667785249985172,1691.442891777,None,1691.442891777,None,5,1,0.818134557999656,1692.3966109539997,None,1692.3966109539997,None,1692.3966109539997,None,1693.2308297990003,None,1,0.4845171910001227,1693.2308297990003,None,172,1693.7319605199991,None,147,A,1,2021_Jun_04_1055,GazeFlow,2020.1.2,59.895052248445765,
15,Block514.xls,A,14,5,109,49,22,incongruent,Left,Right,Left,39,38,1,yellow,2,5,/home/docky/apps/exp/images/39Yi.jpeg,/home/docky/apps/exp/images/38Y.jpeg,0,14,14,14,0,4,4,4,1694.7338656329994,None,1694.7338656329994,None,1,3.124037481000414,1694.7338656329994,None,1697.8909610629998,None,1697.8909610629998,None,1700.39457597,None,1700.39457597,None,0.9332856050004921,1702.1978962619996,None,1702.1978962619996,None,5,1,0.8848046849998354,1703.1174757530007,None,1703.1174757530007,None,1703.1174757530007,None,1704.0186557960005,None,1,0.41790903299988713,1704.0186557960005,None,174,1704.4528495190007,None,147,A,1,2021_Jun_04_1055,GazeFlow,2020.1.2,59.895052248445765,
15,Block514.xls,A,14,6,89,29,21,incongruent,Right,Left,Right,79,82,3,yellow,2,6,/home/docky/apps/exp/images/79Yi.jpeg,/home/docky/apps/exp/images/80Y.jpeg,0,14,14,14,0,5,5,5,1705.4548307839996,None,1705.4548307839996,None,1,3.2908326919987303,1705.4548307839996,None,1708.7790449290005,None,1708.7790449290005,None,1711.2819616079996,None,1711.2819616079996,None,0.9333404799999698,1713.0850800249991,None,1713.0850800249991,None,6,1,0.801066455000182,1714.0052342489998,None,1714.0052342489998,None,1714.0052342489998,None,1714.8229239070006,None,1,0.38409274999867193,1714.8229239070006,None,176,1715.223828488999,None,147,A,1,2021_Jun_04_1055,GazeFlow,2020.1.2,59.895052248445765,
15,Block514.xls,A,14,7,91,31,22,incongruent,Left,Right,Left,19,16,3,blue,2,5,/home/docky/apps/exp/images/19Bi.jpeg,/home/docky/apps/exp/images/16B.jpeg,0,14,14,14,0,6,6,6,1716.2258456159998,None,1716.2258456159998,None,1,2.7058919640003296,1716.2258456159998,None,1718.965404663999,None,1718.965404663999,None,1721.468871048999,None,1721.468871048999,None,0.8832489619999251,1723.2671824299996,None,1723.2671824299996,None,5,1,0.9344096050008375,1724.141718195,None,1724.141718195,None,1724.141718195,None,1725.092924564,None,1,0.5013181369995436,1725.092924564,None,178,1725.6111795369998,None,147,A,1,2021_Jun_04_1055,GazeFlow,2020.1.2,59.895052248445765,
15,Block514.xls,A,14,8,79,19,21,incongruent,Right,Left,Right,62,65,3,yellow,2,6,/home/docky/apps/exp/images/38B.jpeg,/home/docky/apps/exp/images/35Bi.jpeg,0,14,14,14,0,7,7,7,1726.6126670449994,None,1726.6126670449994,None,1,3.725246263000372,1726.6126670449994,None,1730.3709583239997,None,1730.3709583239997,None,1732.8740705269993,None,1732.8740705269993,None,0.8997028630001296,1734.6769168230003,None,1734.6769168230003,None,5,0,0.9680843200003437,1735.563828426999,None,1735.563828426999,None,1735.563828426999,None,1736.5487424170005,None,1,0.501431971000784,1736.5487424170005,None,176,1737.066397089,None,147,A,1,2021_Jun_04_1055,GazeFlow,2020.1.2,59.895052248445765,
15,Block514.xls,A,,,,,,,,,,,,,,,,,,0,14,14,14,,,,,,,,,,,,,,,,,,,,,,,,,,,,,,,,,,,,,,,,,,,,147,A,1,2021_Jun_04_1055,GazeFlow,2020.1.2,59.895052248445765,
