Nblock,condsFile,grouping,Block,TrialBlock,N,trialN,trialCond,gazeCon,gazedirR,corrBinR,corrBinP,valLBY,valRBY,diff,colorCube,feedbacktext,corrAns,imageL,imageR,SelBlocks.thisRepN,SelBlocks.thisTrialN,SelBlocks.thisN,SelBlocks.thisIndex,Trials.thisRepN,Trials.thisTrialN,Trials.thisN,Trials.thisIndex,waitCube.started,waitCube.stopped,text_3.started,text_3.stopped,StartKeyPress.keys,StartKeyPress.rt,StartKeyPress.started,StartKeyPress.stopped,StimL.started,StimL.stopped,StimR.started,StimR.stopped,imageStim2L.started,imageStim2L.stopped,imageStim2R.started,imageStim2R.stopped,RTkeyRelease,imageStim3L.started,imageStim3L.stopped,imageStim3R.started,imageStim3R.stopped,dropResp.keys,dropResp.corr,dropResp.rt,dropResp.started,dropResp.stopped,imageStim5L.started,imageStim5L.stopped,imageStim5R.started,imageStim5R.stopped,text_2.started,text_2.stopped,ReturnSpace.keys,ReturnSpace.rt,ReturnSpace.started,ReturnSpace.stopped,totalpoints,textFeedback.started,textFeedback.stopped,participant,group,session,date,expName,psychopyVersion,frameRate,
1,Block809.xls,B,9,1,93,93,None,congruent,Right,Right,Left,80,79,1,yellow,2,5,/home/docky/apps/exp/images/80Y.jpeg,/home/docky/apps/exp/images/79Yi.jpeg,0,0,0,0,0,0,0,0,55.85770047799997,None,55.85770047799997,None,1,8.30561748999935,55.85770047799997,None,64.18864367700007,None,64.18864367700007,None,66.71146095699987,None,66.71146095699987,None,1.968071172001146,68.51464675500029,None,68.51464675500029,None,5,1,1.2186870860005001,70.46654578699963,None,70.46654578699963,None,70.46654578699963,None,71.70162156600054,None,1,1.1862896570000885,71.70162156600054,None,2,72.90434533299958,None,148,B,1,2021_Jun_04_1456,GazeFlow,2020.1.2,59.862529174295865,
1,Block809.xls,B,9,2,15,15,None,congruent,Left,Left,Right,38,39,1,blue,2,6,/home/docky/apps/exp/images/38B.jpeg,/home/docky/apps/exp/images/39Bi.jpeg,0,0,0,0,0,1,1,1,73.90636511500088,None,73.90636511500088,None,1,4.876162521000879,73.90636511500088,None,78.81654264700046,None,78.81654264700046,None,81.31935337499999,None,81.31935337499999,None,1.8519102230002318,83.12287577000097,None,83.12287577000097,None,5,0,1.3690468089989736,84.96126839499993,None,84.96126839499993,None,84.96126839499993,None,86.34684938999999,None,1,0.7518147569990106,86.34684938999999,None,0,87.11532102899946,None,148,B,1,2021_Jun_04_1456,GazeFlow,2020.1.2,59.862529174295865,
1,Block809.xls,B,9,3,117,21,None,incongruent,Left,Right,Left,39,38,1,yellow,2,5,/home/docky/apps/exp/images/39Yi.jpeg,/home/docky/apps/exp/images/38Y.jpeg,0,0,0,0,0,2,2,2,88.1172783130005,None,88.1172783130005,None,1,4.275273720999394,88.1172783130005,None,92.42619622300117,None,92.42619622300117,None,94.93160025900033,None,94.93160025900033,None,1.9690017400007491,96.73320739700102,None,96.73320739700102,None,5,1,1.2854161660015961,98.68791398299982,None,98.68791398299982,None,98.68791398299982,None,99.99010705600085,None,1,0.6009037349995197,99.99010705600085,None,2,100.60787144400092,None,148,B,1,2021_Jun_04_1456,GazeFlow,2020.1.2,59.862529174295865,
1,Block809.xls,B,9,4,94,94,None,congruent,Right,Right,Left,80,79,1,yellow,2,5,/home/docky/apps/exp/images/80Y.jpeg,/home/docky/apps/exp/images/79Yi.jpeg,0,0,0,0,0,3,3,3,101.6102678870011,None,101.6102678870011,None,1,5.778841925999586,101.6102678870011,None,107.42195383900071,None,107.42195383900071,None,109.92704424300064,None,109.92704424300064,None,1.8853643140009808,111.72857960799956,None,111.72857960799956,None,5,1,1.1515875909990427,113.60040594600105,None,113.60040594600105,None,113.60040594600105,None,114.7685535590008,None,1,1.1191596330008906,114.7685535590008,None,4,115.90412742599983,None,148,B,1,2021_Jun_04_1456,GazeFlow,2020.1.2,59.862529174295865,
1,Block809.xls,B,9,5,41,41,None,congruent,Right,Right,Left,79,76,3,blue,2,5,/home/docky/apps/exp/images/79Bi.jpeg,/home/docky/apps/exp/images/76B.jpeg,0,0,0,0,0,4,4,4,116.90662282099947,None,116.90662282099947,None,1,4.359224565001568,116.90662282099947,None,121.30336348700075,None,121.30336348700075,None,123.80598107100013,None,123.80598107100013,None,1.651381459998447,125.60591825499978,None,125.60591825499978,None,5,1,1.084748999999647,127.24356559900116,None,127.24356559900116,None,127.24356559900116,None,128.34510727499946,None,1,0.7849679749997449,128.34510727499946,None,6,129.14692765700056,None,148,B,1,2021_Jun_04_1456,GazeFlow,2020.1.2,59.862529174295865,
1,Block809.xls,B,9,6,36,36,None,congruent,Right,Right,Left,79,73,6,blue,2,5,/home/docky/apps/exp/images/79Bi.jpeg,/home/docky/apps/exp/images/73B.jpeg,0,0,0,0,0,5,5,5,130.149016966001,None,130.149016966001,None,1,4.325017360999482,130.149016966001,None,134.5078384770004,None,134.5078384770004,None,137.01125971500005,None,137.01125971500005,None,1.6345803399999568,138.80997247900086,None,138.80997247900086,None,5,1,1.1354393430010532,140.43587177600057,None,140.43587177600057,None,140.43587177600057,None,141.5878227810008,None,1,0.8011240159994486,141.5878227810008,None,8,142.40585526200084,None,148,B,1,2021_Jun_04_1456,GazeFlow,2020.1.2,59.862529174295865,
1,Block809.xls,B,9,7,78,78,None,congruent,Right,Right,Left,39,38,1,yellow,2,5,/home/docky/apps/exp/images/39Yi.jpeg,/home/docky/apps/exp/images/38Y.jpeg,0,0,0,0,0,6,6,6,143.4079909610009,None,143.4079909610009,None,1,5.04350575799981,143.4079909610009,None,148.4852271790005,None,148.4852271790005,None,150.989875407,None,150.989875407,None,1.76805910999974,152.7873576180009,None,152.7873576180009,None,5,1,1.1352063249996718,154.5465992570007,None,154.5465992570007,None,154.5465992570007,None,155.69788062800035,None,1,0.818502850999721,155.69788062800035,None,10,156.53284096300013,None,148,B,1,2021_Jun_04_1456,GazeFlow,2020.1.2,59.862529174295865,
1,Block809.xls,B,9,8,29,29,None,congruent,Right,Right,Left,38,35,3,blue,2,5,/home/docky/apps/exp/images/38B.jpeg,/home/docky/apps/exp/images/35Bi.jpeg,0,0,0,0,0,7,7,7,157.53548627599957,None,157.53548627599957,None,1,4.692695540999921,157.53548627599957,None,162.2620291080002,None,162.2620291080002,None,164.7645472460008,None,164.7645472460008,None,1.8182172690012521,166.56840671700047,None,166.56840671700047,None,5,1,1.1516689420004695,168.37340116499945,None,168.37340116499945,None,168.37340116499945,None,169.5414045460002,None,1,0.6183722149999085,169.5414045460002,None,12,170.17644629800088,None,148,B,1,2021_Jun_04_1456,GazeFlow,2020.1.2,59.862529174295865,
1,Block809.xls,B,,,,,,,,,,,,,,,,,,0,0,0,0,,,,,,,,,,,,,,,,,,,,,,,,,,,,,,,,,,,,,,,,,,,,148,B,1,2021_Jun_04_1456,GazeFlow,2020.1.2,59.862529174295865,
2,Block805.xls,B,5,1,16,16,None,congruent,Left,Left,Right,73,76,3,blue,2,6,/home/docky/apps/exp/images/73B.jpeg,/home/docky/apps/exp/images/76Bi.jpeg,0,1,1,1,0,0,0,0,191.20326167300118,None,191.20326167300118,None,1,4.331165555000553,191.20326167300118,None,195.55502973799958,None,195.55502973799958,None,198.08155045199965,None,198.08155045199965,None,1.6839081269990857,199.87937852399955,None,199.87937852399955,None,6,1,1.169657417000053,201.55456979300106,None,201.55456979300106,None,201.55456979300106,None,202.74005725999996,None,1,0.8010534840013861,202.74005725999996,None,14,203.55806529500114,None,148,B,1,2021_Jun_04_1456,GazeFlow,2020.1.2,59.862529174295865,
2,Block805.xls,B,5,2,2,2,None,congruent,Left,Left,Right,16,19,3,blue,2,6,/home/docky/apps/exp/images/16B.jpeg,/home/docky/apps/exp/images/19Bi.jpeg,0,1,1,1,0,1,1,1,204.56009640999946,None,204.56009640999946,None,1,4.058690253001259,204.56009640999946,None,208.65193254500082,None,208.65193254500082,None,211.1552639800011,None,211.1552639800011,None,1.7517498920005892,212.95416164900053,None,212.95416164900053,None,6,1,1.0856657660006022,214.6966624150009,None,214.6966624150009,None,214.6966624150009,None,215.79883021299975,None,1,1.5030616959993495,215.79883021299975,None,16,217.3184033939997,None,148,B,1,2021_Jun_04_1456,GazeFlow,2020.1.2,59.862529174295865,
2,Block805.xls,B,5,3,64,64,None,congruent,Left,Left,Right,69,76,7,yellow,2,6,/home/docky/apps/exp/images/69Y.jpeg,/home/docky/apps/exp/images/76Yi.jpeg,0,1,1,1,0,2,2,2,218.3204001890008,None,218.3204001890008,None,1,3.3401372770003945,218.3204001890008,None,221.69427558400093,None,221.69427558400093,None,224.19724635700004,None,224.19724635700004,None,1.5844324890003918,225.9989128319994,None,225.9989128319994,None,6,1,1.151931873999274,227.5717714069997,None,227.5717714069997,None,227.5717714069997,None,228.74050250800065,None,1,0.7681018959992798,228.74050250800065,None,18,229.52466983500017,None,148,B,1,2021_Jun_04_1456,GazeFlow,2020.1.2,59.862529174295865,
2,Block805.xls,B,5,4,61,61,None,congruent,Left,Left,Right,38,39,1,yellow,2,6,/home/docky/apps/exp/images/38Yi.jpeg,/home/docky/apps/exp/images/39Y.jpeg,0,1,1,1,0,3,3,3,230.52725251999982,None,230.52725251999982,None,1,3.79150841199953,230.52725251999982,None,234.3521535180007,None,234.3521535180007,None,236.85533802800092,None,236.85533802800092,None,1.4678818890006369,238.65830252200067,None,238.65830252200067,None,5,0,1.0687395290005952,240.11296885199954,None,240.11296885199954,None,240.11296885199954,None,241.19799962599973,None,1,0.6341201639988867,241.19799962599973,None,16,241.84895958000016,None,148,B,1,2021_Jun_04_1456,GazeFlow,2020.1.2,59.862529174295865,
2,Block805.xls,B,5,5,23,23,None,congruent,Left,Left,Right,80,83,3,blue,2,6,/home/docky/apps/exp/images/80B.jpeg,/home/docky/apps/exp/images/83Bi.jpeg,0,1,1,1,0,4,4,4,242.85113936800008,None,242.85113936800008,None,1,4.408878987000207,242.85113936800008,None,247.294133075,None,247.294133075,None,249.79676451399973,None,249.79676451399973,None,1.7013192689992138,251.60203662800086,None,251.60203662800086,None,6,1,2.8220736449984543,253.28842104199975,None,253.28842104199975,None,253.28842104199975,None,256.12654902100076,None,1,0.9860917220012198,256.12654902100076,None,18,257.1289737879997,None,148,B,1,2021_Jun_04_1456,GazeFlow,2020.1.2,59.862529174295865,
2,Block805.xls,B,5,6,87,87,None,congruent,Right,Right,Left,76,69,7,yellow,2,5,/home/docky/apps/exp/images/76Yi.jpeg,/home/docky/apps/exp/images/69Y.jpeg,0,1,1,1,0,5,5,5,258.13099507100014,None,258.13099507100014,None,1,4.659933737000756,258.13099507100014,None,262.82418895000046,None,262.82418895000046,None,265.32891553400077,None,265.32891553400077,None,1.3175754789990606,267.1303860730004,None,267.1303860730004,None,5,1,1.2850999670008605,268.43464642800063,None,268.43464642800063,None,268.43464642800063,None,269.7361956040004,None,1,0.6680142860004707,269.7361956040004,None,20,270.4210425700003,None,148,B,1,2021_Jun_04_1456,GazeFlow,2020.1.2,59.862529174295865,
2,Block805.xls,B,5,7,4,4,None,congruent,Left,Left,Right,35,38,3,blue,2,6,/home/docky/apps/exp/images/35B.jpeg,/home/docky/apps/exp/images/38Bi.jpeg,0,1,1,1,0,6,6,6,271.4234134170001,None,271.4234134170001,None,1,3.9913043929991545,271.4234134170001,None,275.44851704400025,None,275.44851704400025,None,277.9533568229999,None,277.9533568229999,None,1.6684132310001587,279.754960743001,None,279.754960743001,None,6,1,2.070058984998468,281.4097017059994,None,281.4097017059994,None,281.4097017059994,None,283.49637755299955,None,1,0.6352386509988719,283.49637755299955,None,22,284.14811283200106,None,148,B,1,2021_Jun_04_1456,GazeFlow,2020.1.2,59.862529174295865,
2,Block805.xls,B,5,8,114,18,None,incongruent,Right,Left,Right,79,82,3,yellow,2,6,/home/docky/apps/exp/images/79Y.jpeg,/home/docky/apps/exp/images/80Yi.jpeg,0,1,1,1,0,7,7,7,285.1501426240011,None,285.1501426240011,None,1,4.508894548000171,285.1501426240011,None,289.692387901001,None,289.692387901001,None,292.1958660569999,None,292.1958660569999,None,2.0521975930005283,293.9979038300007,None,293.9979038300007,None,6,1,3.0390762989991345,296.0380819380007,None,296.0380819380007,None,296.0380819380007,None,299.0938051730009,None,1,0.9854898200010211,299.0938051730009,None,24,300.0956643749996,None,148,B,1,2021_Jun_04_1456,GazeFlow,2020.1.2,59.862529174295865,
2,Block805.xls,B,,,,,,,,,,,,,,,,,,0,1,1,1,,,,,,,,,,,,,,,,,,,,,,,,,,,,,,,,,,,,,,,,,,,,148,B,1,2021_Jun_04_1456,GazeFlow,2020.1.2,59.862529174295865,
3,Block804.xls,B,4,1,95,95,None,congruent,Right,Right,Left,80,79,1,yellow,2,5,/home/docky/apps/exp/images/80Yi.jpeg,/home/docky/apps/exp/images/79Y.jpeg,0,2,2,2,0,0,0,0,324.87710612999945,None,324.87710612999945,None,1,4.847051284999907,324.87710612999945,None,329.7508172859998,None,329.7508172859998,None,332.27570150300016,None,332.27570150300016,None,1.7503745480007638,334.0625624839995,None,334.0625624839995,None,5,1,1.2190768050004408,335.79843427000014,None,335.79843427000014,None,335.79843427000014,None,337.0340206809997,None,1,0.6848824179996882,337.0340206809997,None,26,337.73515902799954,None,148,B,1,2021_Jun_04_1456,GazeFlow,2020.1.2,59.862529174295865,
3,Block804.xls,B,4,2,107,11,None,incongruent,Left,Right,Left,83,80,3,blue,2,5,/home/docky/apps/exp/images/83Bi.jpeg,/home/docky/apps/exp/images/80B.jpeg,0,2,2,2,0,1,1,1,338.7375510090005,None,338.7375510090005,None,1,3.7908858680002595,338.7375510090005,None,342.5625219419999,None,342.5625219419999,None,345.067036886001,None,345.067036886001,None,1.9686681880011747,346.86335814999984,None,346.86335814999984,None,5,1,1.1015456389995961,348.8239533369997,None,348.8239533369997,None,348.8239533369997,None,349.9418670979994,None,1,1.0697500969999965,349.9418670979994,None,28,351.0282597719997,None,148,B,1,2021_Jun_04_1456,GazeFlow,2020.1.2,59.862529174295865,
3,Block804.xls,B,4,3,27,27,None,congruent,Right,Right,Left,19,16,3,blue,2,5,/home/docky/apps/exp/images/19Bi.jpeg,/home/docky/apps/exp/images/16B.jpeg,0,2,2,2,0,2,2,2,352.0301594619996,None,352.0301594619996,None,1,4.2587385890001315,352.0301594619996,None,356.3223565980006,None,356.3223565980006,None,358.82731945700107,None,358.82731945700107,None,1.9186102379990189,360.6306184549994,None,360.6306184549994,None,5,1,1.0512194829989312,362.5340162680004,None,362.5340162680004,None,362.5340162680004,None,363.6019600230011,None,1,0.58452000699981,363.6019600230011,None,30,364.2031231630008,None,148,B,1,2021_Jun_04_1456,GazeFlow,2020.1.2,59.862529174295865,
3,Block804.xls,B,4,4,101,5,None,incongruent,Right,Left,Right,76,79,3,blue,2,6,/home/docky/apps/exp/images/76B.jpeg,/home/docky/apps/exp/images/79Bi.jpeg,0,2,2,2,0,3,3,3,365.2056216769997,None,365.2056216769997,None,1,3.4736613370005216,365.2056216769997,None,368.71149810600036,None,368.71149810600036,None,371.2153493599999,None,371.2153493599999,None,1.5857850030006375,373.0047906990003,None,373.0047906990003,None,6,1,1.1519938569999795,374.5907421890006,None,374.5907421890006,None,374.5907421890006,None,375.7593625009995,None,1,0.6844242330007546,375.7593625009995,None,32,376.46035573600057,None,148,B,1,2021_Jun_04_1456,GazeFlow,2020.1.2,59.862529174295865,
3,Block804.xls,B,4,5,47,47,None,congruent,Right,Right,Left,39,38,1,blue,2,5,/home/docky/apps/exp/images/39Bi.jpeg,/home/docky/apps/exp/images/38B.jpeg,0,2,2,2,0,4,4,4,377.46258441400096,None,377.46258441400096,None,1,3.473907091998626,377.46258441400096,None,380.9702140930003,None,380.9702140930003,None,383.47459158700076,None,383.47459158700076,None,1.7180532250004035,385.2763027180008,None,385.2763027180008,None,5,1,1.135557179000898,386.98143739199986,None,386.98143739199986,None,386.98143739199986,None,388.13344099700043,None,1,0.7343817669989221,388.13344099700043,None,34,388.8843627669994,None,148,B,1,2021_Jun_04_1456,GazeFlow,2020.1.2,59.862529174295865,
3,Block804.xls,B,4,6,90,90,None,congruent,Right,Right,Left,77,72,5,yellow,2,5,/home/docky/apps/exp/images/77Yi.jpeg,/home/docky/apps/exp/images/72Y.jpeg,0,2,2,2,0,5,5,5,389.8863996559994,None,389.8863996559994,None,1,3.5742841199989925,389.8863996559994,None,393.49452651200045,None,393.49452651200045,None,395.99954744000024,None,395.99954744000024,None,1.3343088760011597,397.79605257299954,None,397.79605257299954,None,5,1,1.2688387500002136,399.12130420799986,None,399.12130420799986,None,399.12130420799986,None,400.4072543309994,None,1,1.2191127099995356,400.4072543309994,None,36,401.64250510199963,None,148,B,1,2021_Jun_04_1456,GazeFlow,2020.1.2,59.862529174295865,
3,Block804.xls,B,4,7,12,12,None,congruent,Left,Left,Right,38,39,1,blue,2,6,/home/docky/apps/exp/images/38B.jpeg,/home/docky/apps/exp/images/39Bi.jpeg,0,2,2,2,0,6,6,6,402.64493697000034,None,402.64493697000034,None,1,3.1062334070011275,402.64493697000034,None,405.7850860319995,None,405.7850860319995,None,408.2896446369996,None,408.2896446369996,None,1.7683676770011516,410.09107595299974,None,410.09107595299974,None,6,1,1.0524838020010066,411.8464273890004,None,411.8464273890004,None,411.8464273890004,None,412.91482449999967,None,1,0.6678091560006578,412.91482449999967,None,38,413.59897296800045,None,148,B,1,2021_Jun_04_1456,GazeFlow,2020.1.2,59.862529174295865,
3,Block804.xls,B,4,8,20,20,None,congruent,Left,Left,Right,76,79,3,blue,2,6,/home/docky/apps/exp/images/76Bi.jpeg,/home/docky/apps/exp/images/79B.jpeg,0,2,2,2,0,7,7,7,414.60167577299944,None,414.60167577299944,None,1,3.7909544659996754,414.60167577299944,None,418.4260669260002,None,418.4260669260002,None,420.929516012,None,420.929516012,None,1.4677912740007741,422.7324679379999,None,422.7324679379999,None,6,1,1.1356217010015826,424.1869717509999,None,424.1869717509999,None,424.1869717509999,None,425.33908297200105,None,1,0.5840493819996482,425.33908297200105,None,40,425.93984790600007,None,148,B,1,2021_Jun_04_1456,GazeFlow,2020.1.2,59.862529174295865,
3,Block804.xls,B,,,,,,,,,,,,,,,,,,0,2,2,2,,,,,,,,,,,,,,,,,,,,,,,,,,,,,,,,,,,,,,,,,,,,148,B,1,2021_Jun_04_1456,GazeFlow,2020.1.2,59.862529174295865,
4,Block814.xls,B,14,1,99,3,None,incongruent,Right,Left,Right,65,66,1,blue,2,6,/home/docky/apps/exp/images/35Yi.jpeg,/home/docky/apps/exp/images/66B.jpeg,0,3,3,3,0,0,0,0,445.34467837900047,None,445.34467837900047,None,1,4.596892678000586,445.34467837900047,None,449.97211348100063,None,449.97211348100063,None,452.49253798599966,None,452.49253798599966,None,1.3666958039993915,454.27947538599983,None,454.27947538599983,None,6,1,1.2022288520001894,455.63139572399996,None,455.63139572399996,None,455.63139572399996,None,456.8497265189999,None,1,0.6515749280006276,456.8497265189999,None,42,457.5178245679999,None,148,B,1,2021_Jun_04_1456,GazeFlow,2020.1.2,59.862529174295865,
4,Block814.xls,B,14,2,34,34,None,congruent,Right,Right,Left,66,65,1,blue,2,5,/home/docky/apps/exp/images/66B.jpeg,/home/docky/apps/exp/images/35Yi.jpeg,0,3,3,3,0,1,1,1,458.5198100060006,None,458.5198100060006,None,1,3.9082369999996445,458.5198100060006,None,462.46204005100117,None,462.46204005100117,None,464.966880461001,None,464.966880461001,None,1.3509649879997596,466.76846266100074,None,466.76846266100074,None,5,1,1.1356365730007383,468.105550698001,None,468.105550698001,None,468.105550698001,None,469.2576980899994,None,1,0.6512751350001054,469.2576980899994,None,44,469.9252366599994,None,148,B,1,2021_Jun_04_1456,GazeFlow,2020.1.2,59.862529174295865,
4,Block814.xls,B,14,3,91,91,None,congruent,Right,Right,Left,77,72,5,yellow,2,5,/home/docky/apps/exp/images/77Yi.jpeg,/home/docky/apps/exp/images/72Y.jpeg,0,3,3,3,0,2,2,2,470.92706430399994,None,470.92706430399994,None,1,3.791676598999402,470.92706430399994,None,474.75238140200054,None,474.75238140200054,None,477.25586635500076,None,477.25586635500076,None,1.4511183210015588,479.06051415,None,479.06051415,None,5,1,1.2358197110006586,480.4962987889994,None,480.4962987889994,None,480.4962987889994,None,481.7486211609994,None,1,0.7176129990002664,481.7486211609994,None,46,482.4829862080005,None,148,B,1,2021_Jun_04_1456,GazeFlow,2020.1.2,59.862529174295865,
4,Block814.xls,B,14,4,68,68,None,congruent,Left,Left,Right,72,77,5,yellow,2,6,/home/docky/apps/exp/images/72Yi.jpeg,/home/docky/apps/exp/images/77Y.jpeg,0,3,3,3,0,3,3,3,483.4851427909998,None,483.4851427909998,None,1,3.640831996999623,483.4851427909998,None,487.1597702660001,None,487.1597702660001,None,489.66299489999983,None,489.66299489999983,None,1.451097839000795,491.4659428720006,None,491.4659428720006,None,6,1,1.319172155999695,492.9038516460005,None,492.9038516460005,None,492.9038516460005,None,494.2396266649994,None,1,0.667416238999067,494.2396266649994,None,48,494.9237084590004,None,148,B,1,2021_Jun_04_1456,GazeFlow,2020.1.2,59.862529174295865,
4,Block814.xls,B,14,5,66,66,None,congruent,Left,Left,Right,69,76,7,yellow,2,6,/home/docky/apps/exp/images/69Yi.jpeg,/home/docky/apps/exp/images/76Y.jpeg,0,3,3,3,0,4,4,4,495.92596554100055,None,495.92596554100055,None,1,3.6241338529998757,495.92596554100055,None,499.583912262,None,499.583912262,None,502.093283391001,None,502.093283391001,None,1.5846123470000748,503.88482423700043,None,503.88482423700043,None,6,1,1.1686064149998856,505.4614507490005,None,505.4614507490005,None,505.4614507490005,None,506.6467552160011,None,1,0.6513575149983808,506.6467552160011,None,50,507.3142025220004,None,148,B,1,2021_Jun_04_1456,GazeFlow,2020.1.2,59.862529174295865,
4,Block814.xls,B,14,6,115,19,None,incongruent,Left,Right,Left,80,79,1,yellow,2,5,/home/docky/apps/exp/images/80Yi.jpeg,/home/docky/apps/exp/images/79Y.jpeg,0,3,3,3,0,5,5,5,508.31687258500097,None,508.31687258500097,None,1,3.1737704570005008,508.31687258500097,None,511.52470370800074,None,511.52470370800074,None,514.0271755169997,None,514.0271755169997,None,1.1835651339988544,515.8256406760011,None,515.8256406760011,None,6,0,1.101272385001721,517.0006968199996,None,517.0006968199996,None,517.0006968199996,None,518.1188168240005,None,1,0.5687569370002166,518.1188168240005,None,48,518.7038181959997,None,148,B,1,2021_Jun_04_1456,GazeFlow,2020.1.2,59.862529174295865,
4,Block814.xls,B,14,7,9,9,None,congruent,Left,Left,Right,65,66,1,blue,2,6,/home/docky/apps/exp/images/35Yi.jpeg,/home/docky/apps/exp/images/66B.jpeg,0,3,3,3,0,6,6,6,519.7052358990004,None,519.7052358990004,None,1,3.5411492309995083,519.7052358990004,None,523.279722274001,None,523.279722274001,None,525.783227113001,None,525.783227113001,None,1.567990647001352,527.5856076109994,None,527.5856076109994,None,6,1,1.1853531489996385,529.1409180850005,None,529.1409180850005,None,529.1409180850005,None,530.3429582030003,None,1,0.7177002810003614,530.3429582030003,None,50,531.0774238060003,None,148,B,1,2021_Jun_04_1456,GazeFlow,2020.1.2,59.862529174295865,
4,Block814.xls,B,14,8,14,14,None,congruent,Left,Left,Right,38,39,1,blue,2,6,/home/docky/apps/exp/images/38Bi.jpeg,/home/docky/apps/exp/images/39B.jpeg,0,3,3,3,0,7,7,7,532.079348610001,None,532.079348610001,None,1,3.5913982300007774,532.079348610001,None,535.7041798720002,None,535.7041798720002,None,538.2088939059995,None,538.2088939059995,None,1.684807607998664,540.0086544469996,None,540.0086544469996,None,5,0,1.1357657789994846,541.6816373679994,None,541.6816373679994,None,541.6816373679994,None,542.8338669059995,None,1,0.7345577900014177,542.8338669059995,None,48,543.5848645790011,None,148,B,1,2021_Jun_04_1456,GazeFlow,2020.1.2,59.862529174295865,
4,Block814.xls,B,,,,,,,,,,,,,,,,,,0,3,3,3,,,,,,,,,,,,,,,,,,,,,,,,,,,,,,,,,,,,,,,,,,,,148,B,1,2021_Jun_04_1456,GazeFlow,2020.1.2,59.862529174295865,
5,Block812.xls,B,12,1,18,18,None,congruent,Left,Left,Right,73,76,3,blue,2,6,/home/docky/apps/exp/images/73B.jpeg,/home/docky/apps/exp/images/76Bi.jpeg,0,4,4,4,0,0,0,0,578.2709403009994,None,578.2709403009994,None,1,4.480742798999927,578.2709403009994,None,582.7762958660005,None,582.7762958660005,None,585.3006682180003,None,585.3006682180003,None,1.2499184939988481,587.1037510540009,None,587.1037510540009,None,6,1,2.7884224350000295,588.3389656569998,None,588.3389656569998,None,588.3389656569998,None,591.1442537799994,None,1,0.9856634479983768,591.1442537799994,None,50,592.1461472110004,None,148,B,1,2021_Jun_04_1456,GazeFlow,2020.1.2,59.862529174295865,
5,Block812.xls,B,12,2,3,3,None,congruent,Left,Left,Right,16,19,3,blue,2,6,/home/docky/apps/exp/images/16Bi.jpeg,/home/docky/apps/exp/images/19B.jpeg,0,4,4,4,0,1,1,1,593.148294382001,None,593.148294382001,None,1,4.124901057000898,593.148294382001,None,597.3051596460009,None,597.3051596460009,None,599.8098062419995,None,599.8098062419995,None,17.983694182999898,601.6154730870003,None,601.6154730870003,None,6,1,0.9172747209995578,619.6005555379998,None,619.6005555379998,None,619.6005555379998,None,620.5346048890005,None,1,1.4367291039998236,620.5346048890005,None,52,621.9870363789996,None,148,B,1,2021_Jun_04_1456,GazeFlow,2020.1.2,59.862529174295865,
5,Block812.xls,B,12,3,56,56,None,congruent,Left,Left,Right,62,65,3,yellow,2,6,/home/docky/apps/exp/images/38Bi.jpeg,/home/docky/apps/exp/images/35B.jpeg,0,4,4,4,0,2,2,2,622.990525995001,None,622.990525995001,None,1,7.981842829000016,622.990525995001,None,631.0056061800005,None,631.0056061800005,None,633.5089157229995,None,633.5089157229995,None,1.9020082160004677,635.3123049120004,None,635.3123049120004,None,6,1,1.1013552340009483,637.2007918979998,None,637.2007918979998,None,637.2007918979998,None,638.319310791001,None,1,1.3191521970002213,638.319310791001,None,54,639.6548048109998,None,148,B,1,2021_Jun_04_1456,GazeFlow,2020.1.2,59.862529174295865,
5,Block812.xls,B,12,4,11,11,None,congruent,Left,Left,Right,38,39,1,blue,2,6,/home/docky/apps/exp/images/38B.jpeg,/home/docky/apps/exp/images/39Bi.jpeg,0,4,4,4,0,3,3,3,640.657305146,None,640.657305146,None,1,3.473378975999367,640.657305146,None,644.1647991760001,None,644.1647991760001,None,646.6674001160009,None,646.6674001160009,None,1.7848344960002578,648.4701874439997,None,648.4701874439997,None,6,1,1.0691883290000987,650.2424583310003,None,650.2424583310003,None,650.2424583310003,None,651.3278134070006,None,1,1.1856746039993595,651.3278134070006,None,56,652.5301427989998,None,148,B,1,2021_Jun_04_1456,GazeFlow,2020.1.2,59.862529174295865,
5,Block812.xls,B,12,5,116,20,None,incongruent,Left,Right,Left,35,33,2,yellow,2,5,/home/docky/apps/exp/images/35Yi.jpeg,/home/docky/apps/exp/images/33Y.jpeg,0,4,4,4,0,4,4,4,653.5323387299995,None,653.5323387299995,None,1,2.4548193810005614,653.5323387299995,None,656.0206958660001,None,656.0206958660001,None,658.5254817940004,None,658.5254817940004,None,2.0686081260009814,660.329498047,None,660.329498047,None,5,1,1.0349503270008427,662.3826458380008,None,662.3826458380008,None,662.3826458380008,None,663.4341714490001,None,1,0.75144789299884,663.4341714490001,None,58,664.202290149,None,148,B,1,2021_Jun_04_1456,GazeFlow,2020.1.2,59.862529174295865,
5,Block812.xls,B,12,6,40,40,None,congruent,Right,Right,Left,79,76,3,blue,2,5,/home/docky/apps/exp/images/79Bi.jpeg,/home/docky/apps/exp/images/76B.jpeg,0,4,4,4,0,5,5,5,665.2048543000001,None,665.2048543000001,None,1,3.22309770100037,665.2048543000001,None,668.4598010480004,None,668.4598010480004,None,670.9643019880004,None,670.9643019880004,None,2.6873489509998763,672.7679656479995,None,672.7679656479995,None,5,1,1.3192957770006615,675.4579440500002,None,675.4579440500002,None,675.4579440500002,None,676.7935367600003,None,1,0.8519122319994494,676.7935367600003,None,60,677.6619967170009,None,148,B,1,2021_Jun_04_1456,GazeFlow,2020.1.2,59.862529174295865,
5,Block812.xls,B,12,7,76,76,None,congruent,Right,Right,Left,39,38,1,yellow,2,5,/home/docky/apps/exp/images/39Yi.jpeg,/home/docky/apps/exp/images/38Y.jpeg,0,4,4,4,0,6,6,6,678.6643439260006,None,678.6643439260006,None,1,2.705945760999384,678.6643439260006,None,681.4037365910008,None,681.4037365910008,None,683.9085237970012,None,683.9085237970012,None,1.6846092230007343,685.7101915109997,None,685.7101915109997,None,5,1,1.11851525900056,687.3811520840009,None,687.3811520840009,None,687.3811520840009,None,688.5164171680008,None,1,0.8516831829983857,688.5164171680008,None,62,689.3844346620008,None,148,B,1,2021_Jun_04_1456,GazeFlow,2020.1.2,59.862529174295865,
5,Block812.xls,B,12,8,77,77,None,congruent,Right,Right,Left,39,38,1,yellow,2,5,/home/docky/apps/exp/images/39Y.jpeg,/home/docky/apps/exp/images/38Yi.jpeg,0,4,4,4,0,7,7,7,690.3870832690009,None,690.3870832690009,None,1,2.8391354180002963,690.3870832690009,None,693.2599373760004,None,693.2599373760004,None,695.7633763760005,None,695.7633763760005,None,1.6682047829999647,697.566724751001,None,697.566724751001,None,5,1,2.270612558000721,699.221090246001,None,699.221090246001,None,699.221090246001,None,701.5082972279997,None,1,0.7352587539990054,701.5082972279997,None,64,702.2601765290001,None,148,B,1,2021_Jun_04_1456,GazeFlow,2020.1.2,59.862529174295865,
5,Block812.xls,B,,,,,,,,,,,,,,,,,,0,4,4,4,,,,,,,,,,,,,,,,,,,,,,,,,,,,,,,,,,,,,,,,,,,,148,B,1,2021_Jun_04_1456,GazeFlow,2020.1.2,59.862529174295865,
6,Block803.xls,B,3,1,84,84,None,congruent,Right,Right,Left,75,69,6,yellow,2,5,/home/docky/apps/exp/images/76Yi.jpeg,/home/docky/apps/exp/images/69Y.jpeg,0,5,5,5,0,0,0,0,722.7379006320007,None,722.7379006320007,None,1,5.0288265840008535,722.7379006320007,None,727.7984124300001,None,727.7984124300001,None,730.3152604099996,None,730.3152604099996,None,1.450263458000336,732.1190106570011,None,732.1190106570011,None,5,1,1.05205897399901,733.5545870710012,None,733.5545870710012,None,733.5545870710012,None,734.622873747001,None,1,1.1184901430005993,734.622873747001,None,66,735.7581095810001,None,148,B,1,2021_Jun_04_1456,GazeFlow,2020.1.2,59.862529174295865,
6,Block803.xls,B,3,2,82,82,None,congruent,Right,Right,Left,66,65,1,yellow,2,5,/home/docky/apps/exp/images/66Y.jpeg,/home/docky/apps/exp/images/35Bi.jpeg,0,5,5,5,0,1,1,1,736.7606459899998,None,736.7606459899998,None,1,2.906205350000164,736.7606459899998,None,739.7000943430012,None,739.7000943430012,None,742.2049415670008,None,742.2049415670008,None,1.868464852001125,744.0046898189994,None,744.0046898189994,None,5,1,1.051763840001513,745.8616955939997,None,745.8616955939997,None,745.8616955939997,None,746.9297264400011,None,1,0.7850320380002813,746.9297264400011,None,68,747.7313371689997,None,148,B,1,2021_Jun_04_1456,GazeFlow,2020.1.2,59.862529174295865,
6,Block803.xls,B,3,3,80,80,None,congruent,Right,Right,Left,66,65,1,yellow,2,5,/home/docky/apps/exp/images/66Yi.jpeg,/home/docky/apps/exp/images/35B.jpeg,0,5,5,5,0,2,2,2,748.7335827139996,None,748.7335827139996,None,1,2.6393327660007344,748.7335827139996,None,751.4064444230007,None,751.4064444230007,None,753.909304013001,None,753.909304013001,None,2.1020056280012795,755.7129307609994,None,755.7129307609994,None,5,1,0.7348514549994434,757.8014867309994,None,757.8014867309994,None,757.8014867309994,None,758.5528585659995,None,1,0.6842046619985922,758.5528585659995,None,70,759.2537618570004,None,148,B,1,2021_Jun_04_1456,GazeFlow,2020.1.2,59.862529174295865,
6,Block803.xls,B,3,4,79,79,None,congruent,Right,Right,Left,66,65,1,yellow,2,5,/home/docky/apps/exp/images/66Y.jpeg,/home/docky/apps/exp/images/35Bi.jpeg,0,5,5,5,0,3,3,3,760.2563295510008,None,760.2563295510008,None,1,2.739083684000434,760.2563295510008,None,763.0287243880011,None,763.0287243880011,None,765.5334896509994,None,765.5334896509994,None,1.818368611000551,767.3351764769995,None,767.3351764769995,None,5,1,1.1684712159985793,769.1401709390011,None,769.1401709390011,None,769.1401709390011,None,770.325212441001,None,1,0.6685470579996036,770.325212441001,None,72,771.0098652760007,None,148,B,1,2021_Jun_04_1456,GazeFlow,2020.1.2,59.862529174295865,
6,Block803.xls,B,3,5,92,92,None,congruent,Right,Right,Left,77,72,5,yellow,2,5,/home/docky/apps/exp/images/77Y.jpeg,/home/docky/apps/exp/images/72Yi.jpeg,0,5,5,5,0,4,4,4,772.0123052050003,None,772.0123052050003,None,1,3.156624818000637,772.0123052050003,None,775.2024140850008,None,775.2024140850008,None,777.7131128000001,None,777.7131128000001,None,1.5846056859991222,779.5108097960001,None,779.5108097960001,None,5,1,1.0351629100005084,781.0800155460001,None,781.0800155460001,None,781.0800155460001,None,782.1317570209994,None,1,0.7177016300011019,782.1317570209994,None,74,782.8663710310011,None,148,B,1,2021_Jun_04_1456,GazeFlow,2020.1.2,59.862529174295865,
6,Block803.xls,B,3,6,106,10,None,incongruent,Left,Right,Left,79,76,3,blue,2,5,/home/docky/apps/exp/images/79Bi.jpeg,/home/docky/apps/exp/images/76B.jpeg,0,5,5,5,0,5,5,5,783.8684081980009,None,783.8684081980009,None,1,2.188507176000712,783.8684081980009,None,786.0903354880011,None,786.0903354880011,None,788.5934434740011,None,788.5934434740011,None,1.5512346920004347,790.3966981379999,None,790.3966981379999,None,5,1,1.001657916000113,791.9344960609997,None,791.9344960609997,None,791.9344960609997,None,792.9530119179999,None,1,0.6508098359990981,792.9530119179999,None,76,793.6205471739995,None,148,B,1,2021_Jun_04_1456,GazeFlow,2020.1.2,59.862529174295865,
6,Block803.xls,B,3,7,25,25,None,congruent,Right,Right,Left,19,16,3,blue,2,5,/home/docky/apps/exp/images/19Bi.jpeg,/home/docky/apps/exp/images/16B.jpeg,0,5,5,5,0,6,6,6,794.6229533559999,None,794.6229533559999,None,1,2.3879664079995564,794.6229533559999,None,797.044451836,None,797.044451836,None,799.5478964840004,None,799.5478964840004,None,1.3677483659994323,801.3513119649997,None,801.3513119649997,None,5,1,2.136936524999328,802.705371258,None,802.705371258,None,802.705371258,None,804.8588802930008,None,1,0.986002476000067,804.8588802930008,None,78,805.8611161680001,None,148,B,1,2021_Jun_04_1456,GazeFlow,2020.1.2,59.862529174295865,
6,Block803.xls,B,3,8,46,46,None,congruent,Right,Right,Left,39,38,1,blue,2,5,/home/docky/apps/exp/images/39B.jpeg,/home/docky/apps/exp/images/38Bi.jpeg,0,5,5,5,0,7,7,7,806.8632177529998,None,806.8632177529998,None,1,2.1544682549993013,806.8632177529998,None,809.057651743,None,809.057651743,None,811.5548904019997,None,811.5548904019997,None,1.5176477160002833,813.357518619001,None,813.357518619001,None,5,1,1.0852716480003437,814.8622945900006,None,814.8622945900006,None,814.8622945900006,None,815.9644964170002,None,1,0.5842155499994988,815.9644964170002,None,80,816.5652346250008,None,148,B,1,2021_Jun_04_1456,GazeFlow,2020.1.2,59.862529174295865,
6,Block803.xls,B,,,,,,,,,,,,,,,,,,0,5,5,5,,,,,,,,,,,,,,,,,,,,,,,,,,,,,,,,,,,,,,,,,,,,148,B,1,2021_Jun_04_1456,GazeFlow,2020.1.2,59.862529174295865,
7,Block810.xls,B,10,1,119,23,None,incongruent,Left,Right,Left,76,69,7,yellow,2,5,/home/docky/apps/exp/images/76Yi.jpeg,/home/docky/apps/exp/images/69Y.jpeg,0,6,6,6,0,0,0,0,836.1201896940001,None,836.1201896940001,None,1,4.000581188998694,836.1201896940001,None,840.1416898320003,None,840.1416898320003,None,842.6656906789995,None,842.6656906789995,None,1.6173224990016024,844.4706819570001,None,844.4706819570001,None,5,1,0.8517133910008852,846.0729208789999,None,846.0729208789999,None,846.0729208789999,None,846.9409474160002,None,1,0.5845541069993487,846.9409474160002,None,82,847.5418155830012,None,148,B,1,2021_Jun_04_1456,GazeFlow,2020.1.2,59.862529174295865,
7,Block810.xls,B,10,2,43,43,None,congruent,Right,Right,Left,83,80,3,blue,2,5,/home/docky/apps/exp/images/83B.jpeg,/home/docky/apps/exp/images/80Bi.jpeg,0,6,6,6,0,1,1,1,848.5438608630011,None,848.5438608630011,None,1,4.141826332999699,848.5438608630011,None,852.7197393980005,None,852.7197393980005,None,855.2253245060001,None,855.2253245060001,None,1.4338652769984037,857.0287496849996,None,857.0287496849996,None,5,1,1.2023785510009475,858.4468294520011,None,858.4468294520011,None,858.4468294520011,None,859.6658029579994,None,1,0.7513522130011552,859.6658029579994,None,84,860.433489125,None,148,B,1,2021_Jun_04_1456,GazeFlow,2020.1.2,59.862529174295865,
7,Block810.xls,B,10,3,53,53,None,congruent,Left,Left,Right,65,66,1,yellow,2,6,/home/docky/apps/exp/images/35Bi.jpeg,/home/docky/apps/exp/images/66Y.jpeg,0,6,6,6,0,2,2,2,861.435359295001,None,861.435359295001,None,1,2.8063257729991165,861.435359295001,None,864.2757872080001,None,864.2757872080001,None,866.7804011940007,None,866.7804011940007,None,1.8352526720009337,868.5836383320002,None,868.5836383320002,None,5,0,0.7851190689998475,870.4036585009999,None,870.4036585009999,None,870.4036585009999,None,871.2049361000009,None,1,0.7678658210006688,871.2049361000009,None,82,871.9892905920005,None,148,B,1,2021_Jun_04_1456,GazeFlow,2020.1.2,59.862529174295865,
7,Block810.xls,B,10,4,74,74,None,congruent,Right,Right,Left,35,33,2,yellow,2,5,/home/docky/apps/exp/images/35Y.jpeg,/home/docky/apps/exp/images/33Yi.jpeg,0,6,6,6,0,3,3,3,872.9916043659996,None,872.9916043659996,None,1,2.9560184799993294,872.9916043659996,None,875.9815964190002,None,875.9815964190002,None,878.4846881280009,None,878.4846881280009,None,1.7185978459983744,880.289698994,None,880.289698994,None,5,1,0.968594726999072,881.9926117369996,None,881.9926117369996,None,881.9926117369996,None,882.9777357010007,None,1,0.5177676450002764,882.9777357010007,None,84,883.5116187969998,None,148,B,1,2021_Jun_04_1456,GazeFlow,2020.1.2,59.862529174295865,
7,Block810.xls,B,10,5,21,21,None,congruent,Left,Left,Right,76,79,3,blue,2,6,/home/docky/apps/exp/images/76B.jpeg,/home/docky/apps/exp/images/79Bi.jpeg,0,6,6,6,0,4,4,4,884.5138714580007,None,884.5138714580007,None,1,3.5912476529993,884.5138714580007,None,888.1386645870007,None,888.1386645870007,None,890.6431783280004,None,890.6431783280004,None,1.3174261189997196,892.4452076289999,None,892.4452076289999,None,6,1,1.0852737779987365,893.7487357520004,None,893.7487357520004,None,893.7487357520004,None,894.8507843690004,None,1,0.5015813719983271,894.8507843690004,None,86,895.3684499610008,None,148,B,1,2021_Jun_04_1456,GazeFlow,2020.1.2,59.862529174295865,
7,Block810.xls,B,10,6,85,85,None,congruent,Right,Right,Left,75,69,6,yellow,2,5,/home/docky/apps/exp/images/76Y.jpeg,/home/docky/apps/exp/images/69Yi.jpeg,0,6,6,6,0,5,5,5,896.370146651001,None,896.370146651001,None,1,3.323609035998743,896.370146651001,None,899.7276250300001,None,899.7276250300001,None,902.2306811609997,None,902.2306811609997,None,1.6010686369991163,904.0344775030007,None,904.0344775030007,None,5,1,0.8015049200002977,905.6219011020003,None,905.6219011020003,None,905.6219011020003,None,906.4399094769997,None,1,0.6179489090009156,906.4399094769997,None,88,907.0739781730008,None,148,B,1,2021_Jun_04_1456,GazeFlow,2020.1.2,59.862529174295865,
7,Block810.xls,B,10,7,49,49,None,congruent,Left,Left,Right,33,35,2,yellow,2,6,/home/docky/apps/exp/images/33Yi.jpeg,/home/docky/apps/exp/images/35Y.jpeg,0,6,6,6,0,6,6,6,908.0763358050008,None,908.0763358050008,None,1,3.574059930999283,908.0763358050008,None,911.6840447739996,None,911.6840447739996,None,914.1872421530006,None,914.1872421530006,None,1.4012342810001428,915.9884682680004,None,915.9884682680004,None,6,1,1.0692666609993466,917.3780272929998,None,917.3780272929998,None,917.3780272929998,None,918.463312762,None,1,0.5171895919993403,918.463312762,None,90,918.997223497001,None,148,B,1,2021_Jun_04_1456,GazeFlow,2020.1.2,59.862529174295865,
7,Block810.xls,B,10,8,63,63,None,congruent,Left,Left,Right,38,39,1,yellow,2,6,/home/docky/apps/exp/images/38Y.jpeg,/home/docky/apps/exp/images/39Yi.jpeg,0,6,6,6,0,7,7,7,919.9990382739998,None,919.9990382739998,None,1,2.856425444000706,919.9990382739998,None,922.8892202999996,None,922.8892202999996,None,925.3920957930004,None,925.3920957930004,None,1.4509135740008787,927.1955007699999,None,927.1955007699999,None,5,0,1.0524312750003446,928.6331087710005,None,928.6331087710005,None,928.6331087710005,None,929.7018364520009,None,1,0.6173477379998076,929.7018364520009,None,88,930.3360192159998,None,148,B,1,2021_Jun_04_1456,GazeFlow,2020.1.2,59.862529174295865,
7,Block810.xls,B,,,,,,,,,,,,,,,,,,0,6,6,6,,,,,,,,,,,,,,,,,,,,,,,,,,,,,,,,,,,,,,,,,,,,148,B,1,2021_Jun_04_1456,GazeFlow,2020.1.2,59.862529174295865,
8,Block801.xls,B,1,1,1,1,None,congruent,Left,Left,Right,16,19,3,blue,2,6,/home/docky/apps/exp/images/16Bi.jpeg,/home/docky/apps/exp/images/19B.jpeg,0,7,7,7,0,0,0,0,951.2783269989995,None,951.2783269989995,None,1,3.909636248999959,951.2783269989995,None,955.2165726109997,None,955.2165726109997,None,957.7403716730005,None,957.7403716730005,None,1.0663134520000312,959.5256387829995,None,959.5256387829995,None,6,1,3.3560790379997343,960.5787205209999,None,960.5787205209999,None,960.5787205209999,None,963.9513940800007,None,1,1.1530820909993054,963.9513940800007,None,90,965.1205505500002,None,148,B,1,2021_Jun_04_1456,GazeFlow,2020.1.2,59.862529174295865,
8,Block801.xls,B,1,2,105,9,None,incongruent,Left,Right,Left,79,73,6,blue,2,5,/home/docky/apps/exp/images/79B.jpeg,/home/docky/apps/exp/images/73Bi.jpeg,0,7,7,7,0,1,1,1,966.1225674420002,None,966.1225674420002,None,1,2.6551488130007783,966.1225674420002,None,968.8117049299999,None,968.8117049299999,None,971.3146712319995,None,971.3146712319995,None,1.5347276519987645,973.1183646720001,None,973.1183646720001,None,5,1,1.0186158460001025,974.6393178300004,None,974.6393178300004,None,974.6393178300004,None,975.6746220980003,None,1,0.6507798269994964,975.6746220980003,None,92,976.3417790140011,None,148,B,1,2021_Jun_04_1456,GazeFlow,2020.1.2,59.862529174295865,
8,Block801.xls,B,1,3,62,62,None,congruent,Left,Left,Right,38,39,1,yellow,2,6,/home/docky/apps/exp/images/38Y.jpeg,/home/docky/apps/exp/images/39Yi.jpeg,0,7,7,7,0,2,2,2,977.3440461549999,None,977.3440461549999,None,1,3.1073487699995894,977.3440461549999,None,980.4847134259999,None,980.4847134259999,None,982.9872022950003,None,982.9872022950003,None,1.5848053369991248,984.7845862810009,None,984.7845862810009,None,5,0,2.5708998989994143,986.3621424739995,None,986.3621424739995,None,986.3621424739995,None,988.9496443789994,None,1,0.8858609119997709,988.9496443789994,None,90,989.8519350290007,None,148,B,1,2021_Jun_04_1456,GazeFlow,2020.1.2,59.862529174295865,
8,Block801.xls,B,1,4,38,38,None,congruent,Right,Right,Left,79,73,6,blue,2,5,/home/docky/apps/exp/images/79B.jpeg,/home/docky/apps/exp/images/73Bi.jpeg,0,7,7,7,0,3,3,3,990.8539378229998,None,990.8539378229998,None,1,3.1400918350009306,990.8539378229998,None,994.0280315420005,None,994.0280315420005,None,996.5322842099995,None,996.5322842099995,None,1.5679785269985587,998.3342882540001,None,998.3342882540001,None,5,1,1.2189325180006563,999.888235665001,None,999.888235665001,None,999.888235665001,None,1001.123787251001,None,1,0.617513928000335,1001.123787251001,None,92,1001.7579208940006,None,148,B,1,2021_Jun_04_1456,GazeFlow,2020.1.2,59.862529174295865,
8,Block801.xls,B,1,5,6,6,None,congruent,Left,Left,Right,35,38,3,blue,2,6,/home/docky/apps/exp/images/35Bi.jpeg,/home/docky/apps/exp/images/38B.jpeg,0,7,7,7,0,4,4,4,1002.7598002569994,None,1002.7598002569994,None,1,4.509519615001409,1002.7598002569994,None,1007.3030138570011,None,1007.3030138570011,None,1009.8098368270003,None,1009.8098368270003,None,1.2173159289995965,1011.6095314939994,None,1011.6095314939994,None,6,1,0.9682280380002339,1012.8132770419998,None,1012.8132770419998,None,1012.8132770419998,None,1013.7981113719998,None,1,0.6517966040009924,1013.7981113719998,None,94,1014.4663456849994,None,148,B,1,2021_Jun_04_1456,GazeFlow,2020.1.2,59.862529174295865,
8,Block801.xls,B,1,6,51,51,None,congruent,Left,Left,Right,33,35,2,yellow,2,6,/home/docky/apps/exp/images/33Yi.jpeg,/home/docky/apps/exp/images/35Y.jpeg,0,7,7,7,0,5,5,5,1015.4681659809994,None,1015.4681659809994,None,1,2.7564085319991136,1015.4681659809994,None,1018.2579273650008,None,1018.2579273650008,None,1020.7625759969997,None,1020.7625759969997,None,1.2508570650006732,1022.5660443470006,None,1022.5660443470006,None,6,1,2.1034962410012668,1023.801412539,None,1023.801412539,None,1023.801412539,None,1025.9213988770007,None,1,0.7188856529992336,1025.9213988770007,None,96,1026.6567815279996,None,148,B,1,2021_Jun_04_1456,GazeFlow,2020.1.2,59.862529174295865,
8,Block801.xls,B,1,7,73,73,None,congruent,Right,Right,Left,35,33,2,yellow,2,5,/home/docky/apps/exp/images/35Yi.jpeg,/home/docky/apps/exp/images/33Y.jpeg,0,7,7,7,0,6,6,6,1027.6584486190004,None,1027.6584486190004,None,1,3.3903017039992847,1027.6584486190004,None,1031.0827268169996,None,1031.0827268169996,None,1033.5856196599998,None,1033.5856196599998,None,1.1839928549998149,1035.391084125,None,1035.391084125,None,5,1,0.8345329179992405,1036.5593329269996,None,1036.5593329269996,None,1036.5593329269996,None,1037.4105076550004,None,1,0.7357948029984982,1037.4105076550004,None,98,1038.1623447149996,None,148,B,1,2021_Jun_04_1456,GazeFlow,2020.1.2,59.862529174295865,
8,Block801.xls,B,1,8,96,96,None,congruent,Right,Right,Left,80,79,1,yellow,2,5,/home/docky/apps/exp/images/80Yi.jpeg,/home/docky/apps/exp/images/79Y.jpeg,0,7,7,7,0,7,7,7,1039.1640432229997,None,1039.1640432229997,None,1,2.756271755999478,1039.1640432229997,None,1041.9535262669997,None,1041.9535262669997,None,1044.458339877001,None,1044.458339877001,None,1.567745003001619,1046.2597239400002,None,1046.2597239400002,None,5,1,0.9684126479987754,1047.8147555630003,None,1047.8147555630003,None,1047.8147555630003,None,1048.7996859600007,None,1,0.5171632620003948,1048.7996859600007,None,100,1049.3333840939995,None,148,B,1,2021_Jun_04_1456,GazeFlow,2020.1.2,59.862529174295865,
8,Block801.xls,B,,,,,,,,,,,,,,,,,,0,7,7,7,,,,,,,,,,,,,,,,,,,,,,,,,,,,,,,,,,,,,,,,,,,,148,B,1,2021_Jun_04_1456,GazeFlow,2020.1.2,59.862529174295865,
9,Block802.xls,B,2,1,30,30,None,congruent,Right,Right,Left,38,35,3,blue,2,5,/home/docky/apps/exp/images/38B.jpeg,/home/docky/apps/exp/images/35Bi.jpeg,0,8,8,8,0,0,0,0,1076.3198264460007,None,1076.3198264460007,None,1,4.049967795999692,1076.3198264460007,None,1080.4029523150002,None,1080.4029523150002,None,1082.9169105870005,None,1082.9169105870005,None,1.667076502000782,1084.720352403001,None,1084.720352403001,None,5,1,0.7849227269998664,1086.3728882260002,None,1086.3728882260002,None,1086.3728882260002,None,1087.174212883001,None,1,0.6011396440007957,1087.174212883001,None,102,1087.791690393,None,148,B,1,2021_Jun_04_1456,GazeFlow,2020.1.2,59.862529174295865,
9,Block802.xls,B,2,2,5,5,None,congruent,Left,Left,Right,35,38,3,blue,2,6,/home/docky/apps/exp/images/35B.jpeg,/home/docky/apps/exp/images/38Bi.jpeg,0,8,8,8,0,1,1,1,1088.793673788001,None,1088.793673788001,None,1,3.190125638999234,1088.793673788001,None,1092.017554516,None,1092.017554516,None,1094.5223095889996,None,1094.5223095889996,None,1.267407101999197,1096.325994705001,None,1096.325994705001,None,6,1,1.102161791999606,1097.577956082001,None,1097.577956082001,None,1097.577956082001,None,1098.696496265,None,1,1.2522752259992558,1098.696496265,None,104,1099.9655132780008,None,148,B,1,2021_Jun_04_1456,GazeFlow,2020.1.2,59.862529174295865,
9,Block802.xls,B,2,3,103,7,None,incongruent,Left,Right,Left,19,16,3,blue,2,5,/home/docky/apps/exp/images/19Bi.jpeg,/home/docky/apps/exp/images/16B.jpeg,0,8,8,8,0,2,2,2,1100.9674111879995,None,1100.9674111879995,None,1,2.755827197999679,1100.9674111879995,None,1103.758953427001,None,1103.758953427001,None,1106.2598822319997,None,1106.2598822319997,None,1.3338634050014662,1108.0626645930006,None,1108.0626645930006,None,5,1,0.9846113879993936,1109.3842760589996,None,1109.3842760589996,None,1109.3842760589996,None,1110.3856499520007,None,1,0.5850532619988371,1110.3856499520007,None,106,1110.9865574249998,None,148,B,1,2021_Jun_04_1456,GazeFlow,2020.1.2,59.862529174295865,
9,Block802.xls,B,2,4,35,35,None,congruent,Right,Right,Left,66,65,1,blue,2,5,/home/docky/apps/exp/images/66B.jpeg,/home/docky/apps/exp/images/35Yi.jpeg,0,8,8,8,0,3,3,3,1111.9887457969999,None,1111.9887457969999,None,1,2.7564096539990715,1111.9887457969999,None,1114.7785165730002,None,1114.7785165730002,None,1117.2812263880005,None,1117.2812263880005,None,1.5512530060004792,1119.085221233001,None,1119.085221233001,None,5,1,1.034505514000557,1120.6229869070012,None,1120.6229869070012,None,1120.6229869070012,None,1121.673841965001,None,1,0.5348374780005543,1121.673841965001,None,108,1122.225398943001,None,148,B,1,2021_Jun_04_1456,GazeFlow,2020.1.2,59.862529174295865,
9,Block802.xls,B,2,5,42,42,None,congruent,Right,Right,Left,83,80,3,blue,2,5,/home/docky/apps/exp/images/83Bi.jpeg,/home/docky/apps/exp/images/80B.jpeg,0,8,8,8,0,4,4,4,1123.227415812,None,1123.227415812,None,1,2.973358745000951,1123.227415812,None,1126.2380822610012,None,1126.2380822610012,None,1128.7369924289997,None,1128.7369924289997,None,1.2672108080005273,1130.5407256830003,None,1130.5407256830003,None,5,1,2.036466435998591,1131.7946058060006,None,1131.7946058060006,None,1131.7946058060006,None,1133.8476552600005,None,1,1.437420182999631,1133.8476552600005,None,110,1135.3009511620003,None,148,B,1,2021_Jun_04_1456,GazeFlow,2020.1.2,59.862529174295865,
9,Block802.xls,B,2,6,104,8,None,incongruent,Left,Right,Left,38,35,3,blue,2,5,/home/docky/apps/exp/images/38B.jpeg,/home/docky/apps/exp/images/35Bi.jpeg,0,8,8,8,0,5,5,5,1136.3030042499995,None,1136.3030042499995,None,1,2.6053383340004075,1136.3030042499995,None,1138.9421181440011,None,1138.9421181440011,None,1141.4451275160009,None,1141.4451275160009,None,1.651388026000859,1143.2502543629998,None,1143.2502543629998,None,5,1,0.9686073419998138,1144.886606252001,None,1144.886606252001,None,1144.886606252001,None,1145.8711834540009,None,1,0.6011305880001601,1145.8711834540009,None,112,1146.4891382229998,None,148,B,1,2021_Jun_04_1456,GazeFlow,2020.1.2,59.862529174295865,
9,Block802.xls,B,2,7,22,22,None,congruent,Left,Left,Right,80,83,3,blue,2,6,/home/docky/apps/exp/images/80Bi.jpeg,/home/docky/apps/exp/images/83B.jpeg,0,8,8,8,0,6,6,6,1147.4909783820003,None,1147.4909783820003,None,1,2.6725873420000426,1147.4909783820003,None,1150.1972389090006,None,1150.1972389090006,None,1152.7003961989994,None,1152.7003961989994,None,1.6347447830012243,1154.5039619750005,None,1154.5039619750005,None,6,1,1.1182359600006748,1156.1249359760004,None,1156.1249359760004,None,1156.1249359760004,None,1157.2602073350008,None,1,0.601241561000279,1157.2602073350008,None,114,1157.8776951750006,None,148,B,1,2021_Jun_04_1456,GazeFlow,2020.1.2,59.862529174295865,
9,Block802.xls,B,2,8,54,54,None,congruent,Left,Left,Right,65,66,1,yellow,2,6,/home/docky/apps/exp/images/35Bi.jpeg,/home/docky/apps/exp/images/66Y.jpeg,0,8,8,8,0,7,7,7,1158.8800672340003,None,1158.8800672340003,None,1,2.7227783630005433,1158.8800672340003,None,1161.6364826600002,None,1161.6364826600002,None,1164.1393858749998,None,1164.1393858749998,None,1.3674070350007241,1165.937739594001,None,1165.937739594001,None,5,0,1.102138025999011,1167.296675386,None,1167.296675386,None,1167.296675386,None,1168.4153377330003,None,1,0.6509440379995795,1168.4153377330003,None,112,1169.0828562730003,None,148,B,1,2021_Jun_04_1456,GazeFlow,2020.1.2,59.862529174295865,
9,Block802.xls,B,,,,,,,,,,,,,,,,,,0,8,8,8,,,,,,,,,,,,,,,,,,,,,,,,,,,,,,,,,,,,,,,,,,,,148,B,1,2021_Jun_04_1456,GazeFlow,2020.1.2,59.862529174295865,
10,Block813.xls,B,13,1,70,70,None,congruent,Left,Left,Right,79,82,3,yellow,2,6,/home/docky/apps/exp/images/79Yi.jpeg,/home/docky/apps/exp/images/80Y.jpeg,0,9,9,9,0,0,0,0,1194.3825315560007,None,1194.3825315560007,None,1,4.481904645999748,1194.3825315560007,None,1198.891198315001,None,1198.891198315001,None,1201.411919133001,None,1201.411919133001,None,1.4499961269993946,1203.2154148669997,None,1203.2154148669997,None,6,1,1.1193637129999843,1204.6525491150005,None,1204.6525491150005,None,1204.6525491150005,None,1205.7880154209997,None,1,0.5510154959993088,1205.7880154209997,None,114,1206.3554158469997,None,148,B,1,2021_Jun_04_1456,GazeFlow,2020.1.2,59.862529174295865,
10,Block813.xls,B,13,2,60,60,None,congruent,Left,Left,Right,38,39,1,yellow,2,6,/home/docky/apps/exp/images/38Yi.jpeg,/home/docky/apps/exp/images/39Y.jpeg,0,9,9,9,0,1,1,1,1207.3576785740006,None,1207.3576785740006,None,1,3.9246935040009703,1207.3576785740006,None,1211.3160483720003,None,1211.3160483720003,None,1213.818876610001,None,1213.818876610001,None,1.1842908170001465,1215.6220706469994,None,1215.6220706469994,None,5,0,0.9680649260008067,1216.7927545799994,None,1216.7927545799994,None,1216.7927545799994,None,1217.777222568,None,1,0.6354508790009277,1217.777222568,None,112,1218.4290427710002,None,148,B,1,2021_Jun_04_1456,GazeFlow,2020.1.2,59.862529174295865,
10,Block813.xls,B,13,3,81,81,None,congruent,Right,Right,Left,66,65,1,yellow,2,5,/home/docky/apps/exp/images/66Y.jpeg,/home/docky/apps/exp/images/35Bi.jpeg,0,9,9,9,0,2,2,2,1219.4309799759994,None,1219.4309799759994,None,1,3.924746688999221,1219.4309799759994,None,1223.389333305,None,1223.389333305,None,1225.8930158080002,None,1225.8930158080002,None,1.200824924000699,1227.6962244219994,None,1227.6962244219994,None,5,1,2.1033667490009975,1228.883026765001,None,1228.883026765001,None,1228.883026765001,None,1231.0034133459994,None,1,0.617635787000836,1231.0034133459994,None,114,1231.6378412120011,None,148,B,1,2021_Jun_04_1456,GazeFlow,2020.1.2,59.862529174295865,
10,Block813.xls,B,13,4,110,14,None,incongruent,Right,Left,Right,65,66,1,yellow,2,6,/home/docky/apps/exp/images/35B.jpeg,/home/docky/apps/exp/images/66Yi.jpeg,0,9,9,9,0,3,3,3,1232.6402761570007,None,1232.6402761570007,None,1,3.0728706270001567,1232.6402761570007,None,1235.746775335001,None,1235.746775335001,None,1238.249976377001,None,1238.249976377001,None,1.3174879500002135,1240.0527208040003,None,1240.0527208040003,None,5,0,2.2538154999983817,1241.3572349429996,None,1241.3572349429996,None,1241.3572349429996,None,1243.6278882759998,None,1,0.7349795080008334,1243.6278882759998,None,112,1244.3793992829997,None,148,B,1,2021_Jun_04_1456,GazeFlow,2020.1.2,59.862529174295865,
10,Block813.xls,B,13,5,17,17,None,congruent,Left,Left,Right,73,76,3,blue,2,6,/home/docky/apps/exp/images/73Bi.jpeg,/home/docky/apps/exp/images/76B.jpeg,0,9,9,9,0,4,4,4,1245.3815772430007,None,1245.3815772430007,None,1,2.9731603320014983,1245.3815772430007,None,1248.3879713650003,None,1248.3879713650003,None,1250.8925305419998,None,1250.8925305419998,None,1.3173473330007255,1252.6940458789995,None,1252.6940458789995,None,6,1,0.951444514999821,1253.9984635250003,None,1253.9984635250003,None,1253.9984635250003,None,1254.9662584670004,None,1,0.551900325999668,1254.9662584670004,None,114,1255.5346233029995,None,148,B,1,2021_Jun_04_1456,GazeFlow,2020.1.2,59.862529174295865,
10,Block813.xls,B,13,6,111,15,None,incongruent,Right,Left,Right,62,65,3,yellow,2,6,/home/docky/apps/exp/images/38B.jpeg,/home/docky/apps/exp/images/35Bi.jpeg,0,9,9,9,0,5,5,5,1256.53614414,None,1256.53614414,None,1,2.8562753870010056,1256.53614414,None,1259.4261154739997,None,1259.4261154739997,None,1261.9292477489998,None,1261.9292477489998,None,1.6848714540010405,1263.7325924819997,None,1263.7325924819997,None,6,1,0.9516720870014979,1265.403980522,None,1265.403980522,None,1265.403980522,None,1266.3722403070005,None,1,0.7347208010014583,1266.3722403070005,None,116,1267.1233324450004,None,148,B,1,2021_Jun_04_1456,GazeFlow,2020.1.2,59.862529174295865,
10,Block813.xls,B,13,7,55,55,None,congruent,Left,Left,Right,65,66,1,yellow,2,6,/home/docky/apps/exp/images/35B.jpeg,/home/docky/apps/exp/images/66Yi.jpeg,0,9,9,9,0,6,6,6,1268.1253657380003,None,1268.1253657380003,None,1,2.8068169840007613,1268.1253657380003,None,1270.9653475020004,None,1270.9653475020004,None,1273.4682238730002,None,1273.4682238730002,None,1.6515004109987785,1275.272068280001,None,1275.272068280001,None,6,1,1.118784226000571,1276.9096965600002,None,1276.9096965600002,None,1276.9096965600002,None,1278.0449737830004,None,1,0.550754464999045,1278.0449737830004,None,118,1278.6123643629999,None,148,B,1,2021_Jun_04_1456,GazeFlow,2020.1.2,59.862529174295865,
10,Block813.xls,B,13,8,26,26,None,congruent,Right,Right,Left,19,16,3,blue,2,5,/home/docky/apps/exp/images/19B.jpeg,/home/docky/apps/exp/images/16Bi.jpeg,0,9,9,9,0,7,7,7,1279.6149908429998,None,1279.6149908429998,None,1,2.4380349599996407,1279.6149908429998,None,1282.0869960500004,None,1282.0869960500004,None,1284.5897382250005,None,1284.5897382250005,None,1.767864945000838,1286.393779600001,None,1286.393779600001,None,5,1,0.9689076189988555,1288.1481660650006,None,1288.1481660650006,None,1288.1481660650006,None,1289.1332829309995,None,1,0.7679447969985631,1289.1332829309995,None,120,1289.9176341319999,None,148,B,1,2021_Jun_04_1456,GazeFlow,2020.1.2,59.862529174295865,
10,Block813.xls,B,,,,,,,,,,,,,,,,,,0,9,9,9,,,,,,,,,,,,,,,,,,,,,,,,,,,,,,,,,,,,,,,,,,,,148,B,1,2021_Jun_04_1456,GazeFlow,2020.1.2,59.862529174295865,
11,Block806.xls,B,6,1,10,10,None,congruent,Left,Left,Right,65,66,1,blue,2,6,/home/docky/apps/exp/images/35Y.jpeg,/home/docky/apps/exp/images/66Bi.jpeg,0,10,10,10,0,0,0,0,1310.2921345949999,None,1310.2921345949999,None,1,4.765093956999408,1310.2921345949999,None,1315.093568952001,None,1315.093568952001,None,1317.6059397530007,None,1317.6059397530007,None,1.6676795829989715,1319.409471893001,None,1319.409471893001,None,5,0,0.9186680349994276,1321.062072525001,None,1321.062072525001,None,1321.062072525001,None,1321.9971012940005,None,1,0.5840443720007897,1321.9971012940005,None,118,1322.5978018990008,None,148,B,1,2021_Jun_04_1456,GazeFlow,2020.1.2,59.862529174295865,
11,Block806.xls,B,6,2,89,89,None,congruent,Right,Right,Left,76,69,7,yellow,2,5,/home/docky/apps/exp/images/76Yi.jpeg,/home/docky/apps/exp/images/69Y.jpeg,0,10,10,10,0,1,1,1,1323.5997133910005,None,1323.5997133910005,None,1,3.958404867000354,1323.5997133910005,None,1327.5920188220007,None,1327.5920188220007,None,1330.0966387730004,None,1330.0966387730004,None,1.4013773040005617,1331.8936250620009,None,1331.8936250620009,None,5,1,0.9519576280017645,1333.2858795129996,None,1333.2858795129996,None,1333.2858795129996,None,1334.2542070090003,None,1,0.6008138209999743,1334.2542070090003,None,120,1334.8716994750012,None,148,B,1,2021_Jun_04_1456,GazeFlow,2020.1.2,59.862529174295865,
11,Block806.xls,B,6,3,88,88,None,congruent,Right,Right,Left,76,69,7,yellow,2,5,/home/docky/apps/exp/images/76Y.jpeg,/home/docky/apps/exp/images/69Yi.jpeg,0,10,10,10,0,2,2,2,1335.873484105001,None,1335.873484105001,None,1,3.941951748000065,1335.873484105001,None,1339.8472343640005,None,1339.8472343640005,None,1342.3517664740011,None,1342.3517664740011,None,1.4509422770006495,1344.1558249789996,None,1344.1558249789996,None,5,1,0.9686600799996086,1345.5930251560003,None,1345.5930251560003,None,1345.5930251560003,None,1346.5781669940006,None,1,0.6513782139991235,1346.5781669940006,None,122,1347.2455264460004,None,148,B,1,2021_Jun_04_1456,GazeFlow,2020.1.2,59.862529174295865,
11,Block806.xls,B,6,4,109,13,None,incongruent,Right,Left,Right,33,35,2,yellow,2,6,/home/docky/apps/exp/images/33Yi.jpeg,/home/docky/apps/exp/images/35Y.jpeg,0,10,10,10,0,3,3,3,1348.2474928829997,None,1348.2474928829997,None,1,4.092067526000392,1348.2474928829997,None,1352.3732127519997,None,1352.3732127519997,None,1354.8764247670006,None,1354.8764247670006,None,1.6180466219993832,1356.6817693480007,None,1356.6817693480007,None,6,1,2.086694929001169,1358.284460793,None,1358.284460793,None,1358.284460793,None,1360.3880853940009,None,1,0.7348226630001591,1360.3880853940009,None,124,1361.1397058799994,None,148,B,1,2021_Jun_04_1456,GazeFlow,2020.1.2,59.862529174295865,
11,Block806.xls,B,6,5,37,37,None,congruent,Right,Right,Left,79,73,6,blue,2,5,/home/docky/apps/exp/images/79Bi.jpeg,/home/docky/apps/exp/images/73B.jpeg,0,10,10,10,0,4,4,4,1362.1418494299996,None,1362.1418494299996,None,1,2.4381395719992724,1362.1418494299996,None,1364.6135706460009,None,1364.6135706460009,None,1367.1173567610003,None,1367.1173567610003,None,1.350788375000775,1368.9148169609998,None,1368.9148169609998,None,5,1,0.9847407970009954,1370.2576113209998,None,1370.2576113209998,None,1370.2576113209998,None,1371.259460008001,None,1,1.001529003999167,1371.259460008001,None,126,1372.2775856850003,None,148,B,1,2021_Jun_04_1456,GazeFlow,2020.1.2,59.862529174295865,
11,Block806.xls,B,6,6,108,12,None,incongruent,Left,Right,Left,39,38,1,blue,2,5,/home/docky/apps/exp/images/39Bi.jpeg,/home/docky/apps/exp/images/38B.jpeg,0,10,10,10,0,5,5,5,1373.2794482240006,None,1373.2794482240006,None,1,2.790069256001516,1373.2794482240006,None,1376.102848333001,None,1376.102848333001,None,1378.6076093240008,None,1378.6076093240008,None,1.551168347001294,1380.4090327970007,None,1380.4090327970007,None,5,1,0.9685619850006333,1381.9470868299995,None,1381.9470868299995,None,1381.9470868299995,None,1382.932151547,None,1,0.984924606000277,1382.932151547,None,128,1383.9338422380006,None,148,B,1,2021_Jun_04_1456,GazeFlow,2020.1.2,59.862529174295865,
11,Block806.xls,B,6,7,52,52,None,congruent,Left,Left,Right,65,66,1,yellow,2,6,/home/docky/apps/exp/images/35B.jpeg,/home/docky/apps/exp/images/66Yi.jpeg,0,10,10,10,0,6,6,6,1384.935938257,None,1384.935938257,None,1,2.4890174250012933,1384.935938257,None,1387.4581056669995,None,1387.4581056669995,None,1389.964919727001,None,1389.964919727001,None,1.35072001700064,1391.7646437399999,None,1391.7646437399999,None,6,1,0.9178600670002197,1393.1021406439995,None,1393.1021406439995,None,1393.1021406439995,None,1394.036536904001,None,1,0.6356040840000787,1394.036536904001,None,130,1394.6883160950001,None,148,B,1,2021_Jun_04_1456,GazeFlow,2020.1.2,59.862529174295865,
11,Block806.xls,B,6,8,75,75,None,congruent,Right,Right,Left,35,33,2,yellow,2,5,/home/docky/apps/exp/images/35Yi.jpeg,/home/docky/apps/exp/images/33Y.jpeg,0,10,10,10,0,7,7,7,1395.6899155200008,None,1395.6899155200008,None,1,2.82335577899903,1395.6899155200008,None,1398.5464283140009,None,1398.5464283140009,None,1401.0513588459999,None,1401.0513588459999,None,1.3841896160010947,1402.8480049520003,None,1402.8480049520003,None,5,1,0.9516325349995896,1404.223603493001,None,1404.223603493001,None,1404.223603493001,None,1405.1919298819994,None,1,0.6511095979985839,1405.1919298819994,None,132,1405.8594629750005,None,148,B,1,2021_Jun_04_1456,GazeFlow,2020.1.2,59.862529174295865,
11,Block806.xls,B,,,,,,,,,,,,,,,,,,0,10,10,10,,,,,,,,,,,,,,,,,,,,,,,,,,,,,,,,,,,,,,,,,,,,148,B,1,2021_Jun_04_1456,GazeFlow,2020.1.2,59.862529174295865,
12,Block811.xls,B,11,1,86,86,None,congruent,Right,Right,Left,75,69,6,yellow,2,5,/home/docky/apps/exp/images/76Y.jpeg,/home/docky/apps/exp/images/69Yi.jpeg,0,11,11,11,0,0,0,0,1430.1415730259996,None,1430.1415730259996,None,1,3.628946785998778,1430.1415730259996,None,1433.799373119,None,1433.799373119,None,1436.3199650719998,None,1436.3199650719998,None,1.400014270999236,1438.123486847,None,1438.123486847,None,5,1,1.5524307280011271,1439.5088877689996,None,1439.5088877689996,None,1439.5088877689996,None,1441.0778875380001,None,1,1.8375206609998713,1441.0778875380001,None,134,1442.9320042340005,None,148,B,1,2021_Jun_04_1456,GazeFlow,2020.1.2,59.862529174295865,
12,Block811.xls,B,11,2,83,83,None,congruent,Right,Right,Left,75,69,6,yellow,2,5,/home/docky/apps/exp/images/76Yi.jpeg,/home/docky/apps/exp/images/69Y.jpeg,0,11,11,11,0,1,1,1,1443.9339354450003,None,1443.9339354450003,None,1,2.037894609999057,1443.9339354450003,None,1446.0053290690012,None,1446.0053290690012,None,1448.5084930560006,None,1448.5084930560006,None,1.51787455900012,1450.3111723460006,None,1450.3111723460006,None,5,1,0.8353871039998921,1451.816088259,None,1451.816088259,None,1451.816088259,None,1452.667562396,None,1,0.7009290549995058,1452.667562396,None,136,1453.3851711570005,None,148,B,1,2021_Jun_04_1456,GazeFlow,2020.1.2,59.862529174295865,
12,Block811.xls,B,11,3,28,28,None,congruent,Right,Right,Left,38,35,3,blue,2,5,/home/docky/apps/exp/images/38Bi.jpeg,/home/docky/apps/exp/images/35B.jpeg,0,11,11,11,0,2,2,2,1454.387181651,None,1454.387181651,None,1,3.5077957969988347,1454.387181651,None,1457.9285723960002,None,1457.9285723960002,None,1460.4333428949994,None,1460.4333428949994,None,1.2008459700009553,1462.2351237820003,None,1462.2351237820003,None,5,1,0.8346797180001886,1463.4217650350001,None,1463.4217650350001,None,1463.4217650350001,None,1464.2731924260006,None,1,0.6179890120001801,1464.2731924260006,None,138,1464.9079737289994,None,148,B,1,2021_Jun_04_1456,GazeFlow,2020.1.2,59.862529174295865,
12,Block811.xls,B,11,4,58,58,None,congruent,Left,Left,Right,62,65,3,yellow,2,6,/home/docky/apps/exp/images/38B.jpeg,/home/docky/apps/exp/images/35Bi.jpeg,0,11,11,11,0,3,3,3,1465.9092783230008,None,1465.9092783230008,None,1,3.15723089399944,1465.9092783230008,None,1469.1004935170004,None,1469.1004935170004,None,1471.603609359001,None,1471.603609359001,None,1.4513315629992576,1473.4063977509995,None,1473.4063977509995,None,5,0,0.9348826430014014,1474.8441388310002,None,1474.8441388310002,None,1474.8441388310002,None,1475.7955832650005,None,1,0.6347292989994457,1475.7955832650005,None,136,1476.4468198819995,None,148,B,1,2021_Jun_04_1456,GazeFlow,2020.1.2,59.862529174295865,
12,Block811.xls,B,11,5,32,32,None,congruent,Right,Right,Left,66,65,1,blue,2,5,/home/docky/apps/exp/images/66Bi.jpeg,/home/docky/apps/exp/images/35Y.jpeg,0,11,11,11,0,4,4,4,1477.4487748800002,None,1477.4487748800002,None,1,2.906244877000063,1477.4487748800002,None,1480.3887802009995,None,1480.3887802009995,None,1482.895585409,None,1482.895585409,None,1.3176461660004861,1484.6956496010007,None,1484.6956496010007,None,5,1,0.9181238990004204,1485.9989582689996,None,1485.9989582689996,None,1485.9989582689996,None,1486.933825524,None,1,0.5516301260013279,1486.933825524,None,138,1487.5019442860012,None,148,B,1,2021_Jun_04_1456,GazeFlow,2020.1.2,59.862529174295865,
12,Block811.xls,B,11,6,67,67,None,congruent,Left,Left,Right,72,77,5,yellow,2,6,/home/docky/apps/exp/images/72Y.jpeg,/home/docky/apps/exp/images/77Yi.jpeg,0,11,11,11,0,5,5,5,1488.5036299830008,None,1488.5036299830008,None,1,2.8734541129997524,1488.5036299830008,None,1491.4149029680011,None,1491.4149029680011,None,1493.9136818780007,None,1493.9136818780007,None,1.3173864249984035,1495.7162657990011,None,1495.7162657990011,None,6,1,0.8510194490008871,1497.020541154001,None,1497.020541154001,None,1497.020541154001,None,1497.8883334759994,None,1,0.6183726729996124,1497.8883334759994,None,140,1498.5232396230003,None,148,B,1,2021_Jun_04_1456,GazeFlow,2020.1.2,59.862529174295865,
12,Block811.xls,B,11,7,120,24,None,incongruent,Left,Right,Left,77,72,5,yellow,2,5,/home/docky/apps/exp/images/77Y.jpeg,/home/docky/apps/exp/images/72Yi.jpeg,0,11,11,11,0,6,6,6,1499.5246148160004,None,1499.5246148160004,None,1,2.889874147000228,1499.5246148160004,None,1502.4467450030006,None,1502.4467450030006,None,1504.9512317419994,None,1504.9512317419994,None,1.3343618149992835,1506.7543819530001,None,1506.7543819530001,None,5,1,0.9680276430008234,1508.0753764540004,None,1508.0753764540004,None,1508.0753764540004,None,1509.059989337,None,1,0.6847790940009872,1509.059989337,None,142,1509.761267459,None,148,B,1,2021_Jun_04_1456,GazeFlow,2020.1.2,59.862529174295865,
12,Block811.xls,B,11,8,57,57,None,congruent,Left,Left,Right,62,65,3,yellow,2,6,/home/docky/apps/exp/images/38Bi.jpeg,/home/docky/apps/exp/images/35B.jpeg,0,11,11,11,0,7,7,7,1510.763313540001,None,1510.763313540001,None,1,3.1568208550015697,1510.763313540001,None,1513.9539753070003,None,1513.9539753070003,None,1516.4566874770007,None,1516.4566874770007,None,1.350732873999732,1518.2605997240007,None,1518.2605997240007,None,6,1,0.8346942570005922,1519.5977651320009,None,1519.5977651320009,None,1519.5977651320009,None,1520.4485679080008,None,1,0.5184882039993681,1520.4485679080008,None,144,1520.983424217,None,148,B,1,2021_Jun_04_1456,GazeFlow,2020.1.2,59.862529174295865,
12,Block811.xls,B,,,,,,,,,,,,,,,,,,0,11,11,11,,,,,,,,,,,,,,,,,,,,,,,,,,,,,,,,,,,,,,,,,,,,148,B,1,2021_Jun_04_1456,GazeFlow,2020.1.2,59.862529174295865,
13,Block808.xls,B,8,1,118,22,None,incongruent,Left,Right,Left,75,69,6,yellow,2,5,/home/docky/apps/exp/images/76Y.jpeg,/home/docky/apps/exp/images/69Yi.jpeg,0,12,12,12,0,0,0,0,1542.1940092139994,None,1542.1940092139994,None,1,3.3111171199998353,1542.1940092139994,None,1545.5305252119997,None,1545.5305252119997,None,1548.053676169,None,1548.053676169,None,1.6676055130010354,1549.852424435001,None,1549.852424435001,None,5,1,0.8687453019992972,1551.5097856249995,None,1551.5097856249995,None,1551.5097856249995,None,1552.3944469420003,None,1,0.9349002919989289,1552.3944469420003,None,146,1553.346039086,None,148,B,1,2021_Jun_04_1456,GazeFlow,2020.1.2,59.862529174295865,
13,Block808.xls,B,8,2,7,7,None,congruent,Left,Left,Right,65,66,1,blue,2,6,/home/docky/apps/exp/images/35Yi.jpeg,/home/docky/apps/exp/images/66B.jpeg,0,12,12,12,0,1,1,1,1554.3481892529999,None,1554.3481892529999,None,1,3.140339165000114,1554.3481892529999,None,1557.5218376000012,None,1557.5218376000012,None,1560.024576549,None,1560.024576549,None,1.2506680340011371,1561.8225040489997,None,1561.8225040489997,None,6,1,0.9346352190004836,1563.0654612750004,None,1563.0654612750004,None,1563.0654612750004,None,1564.017079878,None,1,0.45143920100053947,1564.017079878,None,148,1564.484142012001,None,148,B,1,2021_Jun_04_1456,GazeFlow,2020.1.2,59.862529174295865,
13,Block808.xls,B,8,3,112,16,None,incongruent,Right,Left,Right,69,76,7,yellow,2,6,/home/docky/apps/exp/images/69Yi.jpeg,/home/docky/apps/exp/images/76Y.jpeg,0,12,12,12,0,2,2,2,1565.486173438001,None,1565.486173438001,None,1,3.574464250999881,1565.486173438001,None,1569.0939512599998,None,1569.0939512599998,None,1571.601752986,None,1571.601752986,None,1.4343491589988844,1573.4008049879994,None,1573.4008049879994,None,6,1,0.8187299789988174,1574.8215791309995,None,1574.8215791309995,None,1574.8215791309995,None,1575.6565296780009,None,1,0.4677061429993046,1575.6565296780009,None,150,1576.1406675409999,None,148,B,1,2021_Jun_04_1456,GazeFlow,2020.1.2,59.862529174295865,
13,Block808.xls,B,8,4,97,1,None,incongruent,Right,Left,Right,16,19,3,blue,2,6,/home/docky/apps/exp/images/16Bi.jpeg,/home/docky/apps/exp/images/19B.jpeg,0,12,12,12,0,3,3,3,1577.1424205799995,None,1577.1424205799995,None,1,2.372231928999099,1577.1424205799995,None,1579.5480962740003,None,1579.5480962740003,None,1582.051536897001,None,1582.051536897001,None,1.067098764999173,1583.8492644010003,None,1583.8492644010003,None,6,1,0.9346053320005012,1584.9078761830006,None,1584.9078761830006,None,1584.9078761830006,None,1585.8591109970002,None,1,0.3680219110010512,1585.8591109970002,None,152,1586.2436047850006,None,148,B,1,2021_Jun_04_1456,GazeFlow,2020.1.2,59.862529174295865,
13,Block808.xls,B,8,5,24,24,None,congruent,Left,Left,Right,80,83,3,blue,2,6,/home/docky/apps/exp/images/80Bi.jpeg,/home/docky/apps/exp/images/83B.jpeg,0,12,12,12,0,4,4,4,1587.2451881710003,None,1587.2451881710003,None,1,2.1047708639998746,1587.2451881710003,None,1589.3838600790004,None,1589.3838600790004,None,1591.88692137,None,1591.88692137,None,1.0168646490001265,1593.690259631001,None,1593.690259631001,None,6,1,2.0037566289993265,1594.6935527839996,None,1594.6935527839996,None,1594.6935527839996,None,1596.7134565190008,None,1,0.7519436759994278,1596.7134565190008,None,154,1597.4818778860008,None,148,B,1,2021_Jun_04_1456,GazeFlow,2020.1.2,59.862529174295865,
13,Block808.xls,B,8,6,13,13,None,congruent,Left,Left,Right,38,39,1,blue,2,6,/home/docky/apps/exp/images/38Bi.jpeg,/home/docky/apps/exp/images/39B.jpeg,0,12,12,12,0,5,5,5,1598.484282462001,None,1598.484282462001,None,1,2.7056864590012992,1598.484282462001,None,1601.2234555640007,None,1601.2234555640007,None,1603.73352247,None,1603.73352247,None,1.234139893000247,1605.5295965469995,None,1605.5295965469995,None,6,1,1.802697437000461,1606.7502642399995,None,1606.7502642399995,None,1606.7502642399995,None,1608.569764969001,None,1,0.7182945700005803,1608.569764969001,None,156,1609.3045086340007,None,148,B,1,2021_Jun_04_1456,GazeFlow,2020.1.2,59.862529174295865,
13,Block808.xls,B,8,7,8,8,None,congruent,Left,Left,Right,65,66,1,blue,2,6,/home/docky/apps/exp/images/35Y.jpeg,/home/docky/apps/exp/images/66Bi.jpeg,0,12,12,12,0,6,6,6,1610.3071297980005,None,1610.3071297980005,None,1,3.1398675899999944,1610.3071297980005,None,1613.4806298040003,None,1613.4806298040003,None,1615.9859233959996,None,1615.9859233959996,None,1.51791045400023,1617.7813553140004,None,1617.7813553140004,None,6,1,1.0190696850004315,1619.2914254810003,None,1619.2914254810003,None,1619.2914254810003,None,1620.326369421,None,1,0.5340522379992763,1620.326369421,None,158,1620.8770852540001,None,148,B,1,2021_Jun_04_1456,GazeFlow,2020.1.2,59.862529174295865,
13,Block808.xls,B,8,8,31,31,None,congruent,Right,Right,Left,66,65,1,blue,2,5,/home/docky/apps/exp/images/66B.jpeg,/home/docky/apps/exp/images/35Yi.jpeg,0,12,12,12,0,7,7,7,1621.8791267300003,None,1621.8791267300003,None,1,2.722796656000355,1621.8791267300003,None,1624.6357030950003,None,1624.6357030950003,None,1627.1404183119994,None,1627.1404183119994,None,1.901675612998588,1628.9382034980008,None,1628.9382034980008,None,6,0,1.00190981599917,1630.8306548100009,None,1630.8306548100009,None,1630.8306548100009,None,1631.8488808800012,None,1,0.6509434370000236,1631.8488808800012,None,156,1632.5165149040004,None,148,B,1,2021_Jun_04_1456,GazeFlow,2020.1.2,59.862529174295865,
13,Block808.xls,B,,,,,,,,,,,,,,,,,,0,12,12,12,,,,,,,,,,,,,,,,,,,,,,,,,,,,,,,,,,,,,,,,,,,,148,B,1,2021_Jun_04_1456,GazeFlow,2020.1.2,59.862529174295865,
14,Block815.xls,B,15,1,65,65,None,congruent,Left,Left,Right,69,76,7,yellow,2,6,/home/docky/apps/exp/images/69Yi.jpeg,/home/docky/apps/exp/images/76Y.jpeg,0,13,13,13,0,0,0,0,1659.354337056,None,1659.354337056,None,1,4.2627746849993855,1659.354337056,None,1663.6497461920007,None,1663.6497461920007,None,1666.1647029880005,None,1666.1647029880005,None,1.20016110799952,1667.9628711700007,None,1667.9628711700007,None,6,1,0.8675360450015432,1669.1550924399999,None,1669.1550924399999,None,1669.1550924399999,None,1670.0392737830007,None,1,0.5518890430012107,1670.0392737830007,None,158,1670.608389477,None,148,B,1,2021_Jun_04_1456,GazeFlow,2020.1.2,59.862529174295865,
14,Block815.xls,B,15,2,102,6,None,incongruent,Right,Left,Right,80,83,3,blue,2,6,/home/docky/apps/exp/images/80B.jpeg,/home/docky/apps/exp/images/83Bi.jpeg,0,13,13,13,0,1,1,1,1671.6091186499998,None,1671.6091186499998,None,1,1.9048547679994954,1671.6091186499998,None,1673.547341806001,None,1673.547341806001,None,1676.0517674210005,None,1676.0517674210005,None,1.3005687730001227,1677.8485463920006,None,1677.8485463920006,None,6,1,0.8344723419995717,1679.140976230001,None,1679.140976230001,None,1679.140976230001,None,1679.9922492170008,None,1,0.5686435059997166,1679.9922492170008,None,160,1680.5768967469994,None,148,B,1,2021_Jun_04_1456,GazeFlow,2020.1.2,59.862529174295865,
14,Block815.xls,B,15,3,33,33,None,congruent,Right,Right,Left,66,65,1,blue,2,5,/home/docky/apps/exp/images/66Bi.jpeg,/home/docky/apps/exp/images/35Y.jpeg,0,13,13,13,0,2,2,2,1681.5783512369999,None,1681.5783512369999,None,1,2.27196522200029,1681.5783512369999,None,1683.8840979920005,None,1683.8840979920005,None,1686.3864508410006,None,1686.3864508410006,None,1.2341639960013708,1688.1900562520004,None,1688.1900562520004,None,6,0,0.8678893090000201,1689.4109036770005,None,1689.4109036770005,None,1689.4109036770005,None,1690.295443725001,None,1,0.5016588239996054,1690.295443725001,None,158,1690.8134794079997,None,148,B,1,2021_Jun_04_1456,GazeFlow,2020.1.2,59.862529174295865,
14,Block815.xls,B,15,4,72,72,None,congruent,Left,Left,Right,79,82,3,yellow,2,6,/home/docky/apps/exp/images/79Yi.jpeg,/home/docky/apps/exp/images/80Y.jpeg,0,13,13,13,0,3,3,3,1691.8149907389998,None,1691.8149907389998,None,1,2.104724734001138,1691.8149907389998,None,1693.9533154809997,None,1693.9533154809997,None,1696.456682600001,None,1696.456682600001,None,1.0668045620004705,1698.26179934,None,1698.26179934,None,6,1,0.9346677249995992,1699.3135158639998,None,1699.3135158639998,None,1699.3135158639998,None,1700.2646930520004,None,1,0.3511554670003534,1700.2646930520004,None,160,1700.632524015,None,148,B,1,2021_Jun_04_1456,GazeFlow,2020.1.2,59.862529174295865,
14,Block815.xls,B,15,5,100,4,None,incongruent,Right,Left,Right,73,76,3,blue,2,6,/home/docky/apps/exp/images/73B.jpeg,/home/docky/apps/exp/images/76Bi.jpeg,0,13,13,13,0,4,4,4,1701.6340024820001,None,1701.6340024820001,None,1,2.839924362999227,1701.6340024820001,None,1704.507316669,None,1704.507316669,None,1707.0101079209999,None,1707.0101079209999,None,1.3675808839998354,1708.8085353410006,None,1708.8085353410006,None,6,1,0.8847250899998471,1710.1678381800011,None,1710.1678381800011,None,1710.1678381800011,None,1711.0689883640007,None,1,0.5022767440004827,1711.0689883640007,None,162,1711.587038832,None,148,B,1,2021_Jun_04_1456,GazeFlow,2020.1.2,59.862529174295865,
14,Block815.xls,B,15,6,45,45,None,congruent,Right,Right,Left,39,38,1,blue,2,5,/home/docky/apps/exp/images/39B.jpeg,/home/docky/apps/exp/images/38Bi.jpeg,0,13,13,13,0,5,5,5,1712.5886436519995,None,1712.5886436519995,None,1,2.4558648110014474,1712.5886436519995,None,1715.0776261320007,None,1715.0776261320007,None,1717.5826902789995,None,1717.5826902789995,None,1.350797760000205,1719.3864114259995,None,1719.3864114259995,None,5,1,2.5376309670009505,1720.7218918689996,None,1720.7218918689996,None,1720.7218918689996,None,1723.2761317860004,None,1,0.8192809489992214,1723.2761317860004,None,164,1724.1114560410006,None,148,B,1,2021_Jun_04_1456,GazeFlow,2020.1.2,59.862529174295865,
14,Block815.xls,B,15,7,98,2,None,incongruent,Right,Left,Right,35,38,3,blue,2,6,/home/docky/apps/exp/images/35Bi.jpeg,/home/docky/apps/exp/images/38B.jpeg,0,13,13,13,0,6,6,6,1725.113444857001,None,1725.113444857001,None,1,2.588615270999071,1725.113444857001,None,1727.735416122001,None,1727.735416122001,None,1730.2386396670008,None,1730.2386396670008,None,1.2175592629992025,1732.0416894320006,None,1732.0416894320006,None,6,1,0.8348814439996204,1733.245748352001,None,1733.245748352001,None,1733.245748352001,None,1734.0968742099994,None,1,0.5022774870012654,1734.0968742099994,None,166,1734.614750101,None,148,B,1,2021_Jun_04_1456,GazeFlow,2020.1.2,59.862529174295865,
14,Block815.xls,B,15,8,59,59,None,congruent,Left,Left,Right,38,39,1,yellow,2,6,/home/docky/apps/exp/images/38Yi.jpeg,/home/docky/apps/exp/images/39Y.jpeg,0,13,13,13,0,7,7,7,1735.6167092880005,None,1735.6167092880005,None,1,2.3723334949991113,1735.6167092880005,None,1738.0223506109996,None,1738.0223506109996,None,1740.5295844049997,None,1740.5295844049997,None,2.0022324549991026,1742.3289677110006,None,1742.3289677110006,None,6,1,0.7852629899989552,1744.3176612179996,None,1744.3176612179996,None,1744.3176612179996,None,1745.1188945350004,None,1,0.5006895309998072,1745.1188945350004,None,168,1745.636402817001,None,148,B,1,2021_Jun_04_1456,GazeFlow,2020.1.2,59.862529174295865,
14,Block815.xls,B,,,,,,,,,,,,,,,,,,0,13,13,13,,,,,,,,,,,,,,,,,,,,,,,,,,,,,,,,,,,,,,,,,,,,148,B,1,2021_Jun_04_1456,GazeFlow,2020.1.2,59.862529174295865,
15,Block807.xls,B,7,1,71,71,None,congruent,Left,Left,Right,79,82,3,yellow,2,6,/home/docky/apps/exp/images/79Y.jpeg,/home/docky/apps/exp/images/80Yi.jpeg,0,14,14,14,0,0,0,0,1772.323524110001,None,1772.323524110001,None,1,4.414939588999914,1772.323524110001,None,1776.764649576,None,1776.764649576,None,1779.2841242160011,None,1779.2841242160011,None,1.550551672000438,1781.089586043001,None,1781.089586043001,None,6,1,0.9524783670003671,1782.625204029,None,1782.625204029,None,1782.625204029,None,1783.5936521790009,None,1,0.5508497270002408,1783.5936521790009,None,170,1784.1611322299996,None,148,B,1,2021_Jun_04_1456,GazeFlow,2020.1.2,59.862529174295865,
15,Block807.xls,B,7,2,44,44,None,congruent,Right,Right,Left,83,80,3,blue,2,5,/home/docky/apps/exp/images/83Bi.jpeg,/home/docky/apps/exp/images/80B.jpeg,0,14,14,14,0,1,1,1,1785.1629906409999,None,1785.1629906409999,None,1,3.3739839540012326,1785.1629906409999,None,1788.5705393610006,None,1788.5705393610006,None,1791.075057299,None,1791.075057299,None,1.1170659109993721,1792.8714810809997,None,1792.8714810809997,None,5,1,1.9865148160006356,1793.9806733990008,None,1793.9806733990008,None,1793.9806733990008,None,1795.9838846950006,None,1,0.43426713299959374,1795.9838846950006,None,172,1796.4350688670002,None,148,B,1,2021_Jun_04_1456,GazeFlow,2020.1.2,59.862529174295865,
15,Block807.xls,B,7,3,48,48,None,congruent,Right,Right,Left,39,38,1,blue,2,5,/home/docky/apps/exp/images/39Bi.jpeg,/home/docky/apps/exp/images/38B.jpeg,0,14,14,14,0,2,2,2,1797.4370100750002,None,1797.4370100750002,None,1,3.0068173469990143,1797.4370100750002,None,1800.477065395,None,1800.477065395,None,1802.9801894459997,None,1802.9801894459997,None,1.0668515360011952,1804.7785681090008,None,1804.7785681090008,None,5,1,0.8675097559989808,1805.8370863849996,None,1805.8370863849996,None,1805.8370863849996,None,1806.7214285129994,None,1,0.6019380859997909,1806.7214285129994,None,174,1807.3393915350007,None,148,B,1,2021_Jun_04_1456,GazeFlow,2020.1.2,59.862529174295865,
15,Block807.xls,B,7,4,113,17,None,incongruent,Right,Left,Right,72,77,5,yellow,2,6,/home/docky/apps/exp/images/72Yi.jpeg,/home/docky/apps/exp/images/77Y.jpeg,0,14,14,14,0,3,3,3,1808.3411779470007,None,1808.3411779470007,None,1,2.6560000680001394,1808.3411779470007,None,1811.031010662,None,1811.031010662,None,1813.5342037280006,None,1813.5342037280006,None,1.150634302999606,1815.3373431910004,None,1815.3373431910004,None,6,1,0.7843525320004119,1816.4744592389998,None,1816.4744592389998,None,1816.4744592389998,None,1817.2753240090005,None,1,0.4683615860012651,1817.2753240090005,None,176,1817.7599646029994,None,148,B,1,2021_Jun_04_1456,GazeFlow,2020.1.2,59.862529174295865,
15,Block807.xls,B,7,5,69,69,None,congruent,Left,Left,Right,72,77,5,yellow,2,6,/home/docky/apps/exp/images/72Y.jpeg,/home/docky/apps/exp/images/77Yi.jpeg,0,14,14,14,0,4,4,4,1818.7618625060004,None,1818.7618625060004,None,1,2.305207593999512,1818.7618625060004,None,1821.1005213730004,None,1821.1005213730004,None,1823.6053607350004,None,1823.6053607350004,None,1.6179066120002972,1825.407212477001,None,1825.407212477001,None,6,1,1.8197363849994872,1827.0113843140007,None,1827.0113843140007,None,1827.0113843140007,None,1828.8477449399998,None,1,0.5845584239996242,1828.8477449399998,None,178,1829.4491571460003,None,148,B,1,2021_Jun_04_1456,GazeFlow,2020.1.2,59.862529174295865,
15,Block807.xls,B,7,6,39,39,None,congruent,Right,Right,Left,79,76,3,blue,2,5,/home/docky/apps/exp/images/79B.jpeg,/home/docky/apps/exp/images/76Bi.jpeg,0,14,14,14,0,5,5,5,1830.4513570620002,None,1830.4513570620002,None,1,2.3214280770007463,1830.4513570620002,None,1832.8062516940008,None,1832.8062516940008,None,1835.3094752630004,None,1835.3094752630004,None,1.3343224250002095,1837.112713462,None,1837.112713462,None,5,1,0.8513015739990806,1838.4337479269998,None,1838.4337479269998,None,1838.4337479269998,None,1839.3015407910007,None,1,0.5515561190004519,1839.3015407910007,None,180,1839.8696202270003,None,148,B,1,2021_Jun_04_1456,GazeFlow,2020.1.2,59.862529174295865,
15,Block807.xls,B,7,7,50,50,None,congruent,Left,Left,Right,33,35,2,yellow,2,6,/home/docky/apps/exp/images/33Y.jpeg,/home/docky/apps/exp/images/35Yi.jpeg,0,14,14,14,0,6,6,6,1840.8711680680008,None,1840.8711680680008,None,1,3.0065575380012888,1840.8711680680008,None,1843.911568540001,None,1843.911568540001,None,1846.4147015239996,None,1846.4147015239996,None,1.0840031810002984,1848.2180230520007,None,1848.2180230520007,None,6,1,0.8175636109990592,1849.2880491199994,None,1849.2880491199994,None,1849.2880491199994,None,1850.1225877079996,None,1,0.46787151399985305,1850.1225877079996,None,182,1850.6070685020004,None,148,B,1,2021_Jun_04_1456,GazeFlow,2020.1.2,59.862529174295865,
15,Block807.xls,B,7,8,19,19,None,congruent,Left,Left,Right,76,79,3,blue,2,6,/home/docky/apps/exp/images/76B.jpeg,/home/docky/apps/exp/images/79Bi.jpeg,0,14,14,14,0,7,7,7,1851.608592505001,None,1851.608592505001,None,1,1.804322175001289,1851.608592505001,None,1853.4465486360004,None,1853.4465486360004,None,1855.9494206580002,None,1855.9494206580002,None,1.1169732159996784,1857.753341816,None,1857.753341816,None,6,1,1.7205997140008549,1858.856692184001,None,1858.856692184001,None,1858.856692184001,None,1860.5931512730003,None,1,0.5675657030005823,1860.5931512730003,None,184,1861.1771402070008,None,148,B,1,2021_Jun_04_1456,GazeFlow,2020.1.2,59.862529174295865,
15,Block807.xls,B,,,,,,,,,,,,,,,,,,0,14,14,14,,,,,,,,,,,,,,,,,,,,,,,,,,,,,,,,,,,,,,,,,,,,148,B,1,2021_Jun_04_1456,GazeFlow,2020.1.2,59.862529174295865,
