Nblock,condsFile,grouping,Block,TrialBlock,N,trialN,trialCond,gazeCon,gazedirR,corrBinR,corrBinP,valLBY,valRBY,diff,colorCube,feedbacktext,corrAns,imageL,imageR,SelBlocks.thisRepN,SelBlocks.thisTrialN,SelBlocks.thisN,SelBlocks.thisIndex,Trials.thisRepN,Trials.thisTrialN,Trials.thisN,Trials.thisIndex,waitCube.started,waitCube.stopped,text_3.started,text_3.stopped,StartKeyPress.keys,StartKeyPress.rt,StartKeyPress.started,StartKeyPress.stopped,StimL.started,StimL.stopped,StimR.started,StimR.stopped,imageStim2L.started,imageStim2L.stopped,imageStim2R.started,imageStim2R.stopped,RTkeyRelease,imageStim3L.started,imageStim3L.stopped,imageStim3R.started,imageStim3R.stopped,dropResp.keys,dropResp.corr,dropResp.rt,dropResp.started,dropResp.stopped,imageStim5L.started,imageStim5L.stopped,imageStim5R.started,imageStim5R.stopped,text_2.started,text_2.stopped,ReturnSpace.keys,ReturnSpace.rt,ReturnSpace.started,ReturnSpace.stopped,totalpoints,textFeedback.started,textFeedback.stopped,participant,group,session,date,expName,psychopyVersion,frameRate,
1,Block502.xls,A,2,1,93,33,22,incongruent,Left,Right,Left,38,35,3,blue,2,5,/home/docky/apps/exp/images/38B.jpeg,/home/docky/apps/exp/images/35Bi.jpeg,0,0,0,0,0,0,0,0,44.84855407500072,None,44.84855407500072,None,1,9.20410578800147,44.84855407500072,None,54.089988285999425,None,54.089988285999425,None,56.60454193999976,None,56.60454193999976,None,2.2186433329989086,58.40796139699887,None,58.40796139699887,None,5,1,1.1686312349993386,60.60991651199947,None,60.60991651199947,None,60.60991651199947,None,61.794960687999264,None,1,0.6345441730009043,61.794960687999264,None,2,62.44604734699897,None,149,A,1,2021_Jun_04_1757,GazeFlow,2020.1.2,59.852117984902875,
1,Block502.xls,A,2,2,42,42,12,congruent,Right,Right,Left,83,80,3,blue,2,5,/home/docky/apps/exp/images/83Bi.jpeg,/home/docky/apps/exp/images/80B.jpeg,0,0,0,0,0,1,1,1,63.4486012640009,None,63.4486012640009,None,1,5.594934475000628,63.4486012640009,None,69.07677576100104,None,69.07677576100104,None,71.5816904989988,None,71.5816904989988,None,2.537171854997723,73.38301888500064,None,73.38301888500064,None,5,1,1.0175478210003348,75.92347113900178,None,75.92347113900178,None,75.92347113900178,None,76.9576314190017,None,1,0.6349256569992576,76.9576314190017,None,4,77.60889053799838,None,149,A,1,2021_Jun_04_1757,GazeFlow,2020.1.2,59.852117984902875,
1,Block502.xls,A,2,3,9,9,11,congruent,Left,Left,Right,38,39,1,blue,2,6,/home/docky/apps/exp/images/38Bi.jpeg,/home/docky/apps/exp/images/39B.jpeg,0,0,0,0,0,2,2,2,78.61138861500149,None,78.61138861500149,None,1,10.236642430998472,78.61138861500149,None,88.88541115100088,None,88.88541115100088,None,91.38533793600072,None,91.38533793600072,None,0.7329601340024965,93.18332979900151,None,93.18332979900151,None,5,0,1.051373300000705,93.90792589800185,None,93.90792589800185,None,93.90792589800185,None,94.97607755699937,None,1,0.6688047679999727,94.97607755699937,None,2,95.66113261999999,None,149,A,1,2021_Jun_04_1757,GazeFlow,2020.1.2,59.852117984902875,
1,Block502.xls,A,2,4,23,23,11,congruent,Left,Left,Right,38,39,1,yellow,2,6,/home/docky/apps/exp/images/38Yi.jpeg,/home/docky/apps/exp/images/39Y.jpeg,0,0,0,0,0,3,3,3,96.6627105410007,None,96.6627105410007,None,1,6.580903961999866,96.6627105410007,None,103.27658663300099,None,103.27658663300099,None,105.7792641820015,None,105.7792641820015,None,0.8832897460015374,107.58322036900063,None,107.58322036900063,None,5,0,1.5698862059980456,108.45290060700063,None,108.45290060700063,None,108.45290060700063,None,110.03906504100087,None,1,0.7681216720011435,110.03906504100087,None,0,110.82340077399931,None,149,A,1,2021_Jun_04_1757,GazeFlow,2020.1.2,59.852117984902875,
1,Block502.xls,A,2,5,57,57,12,congruent,Right,Right,Left,77,72,5,yellow,2,5,/home/docky/apps/exp/images/77Y.jpeg,/home/docky/apps/exp/images/72Yi.jpeg,0,0,0,0,0,4,4,4,111.82541828399917,None,111.82541828399917,None,1,8.199979381999583,111.82541828399917,None,120.05755645699901,None,120.05755645699901,None,122.56237777899878,None,122.56237777899878,None,0.8330691019982623,124.36577329200009,None,124.36577329200009,None,5,1,1.0017776759996195,125.18534189099955,None,125.18534189099955,None,125.18534189099955,None,126.20348410700171,None,1,0.6683741779997945,126.20348410700171,None,2,126.8879398780009,None,149,A,1,2021_Jun_04_1757,GazeFlow,2020.1.2,59.852117984902875,
1,Block502.xls,A,2,6,118,58,22,incongruent,Left,Right,Left,80,79,1,yellow,2,5,/home/docky/apps/exp/images/80Yi.jpeg,/home/docky/apps/exp/images/79Y.jpeg,0,0,0,0,0,5,5,5,127.89030599599937,None,127.89030599599937,None,1,7.71573026400074,127.89030599599937,None,135.63952087199868,None,135.63952087199868,None,138.14218436300143,None,138.14218436300143,None,0.8663546419993509,139.945716582999,None,139.945716582999,None,5,1,1.0181781419996696,140.79882612800066,None,140.79882612800066,None,140.79882612800066,None,141.83352187499986,None,1,0.7184287449999829,141.83352187499986,None,4,142.56862244100193,None,149,A,1,2021_Jun_04_1757,GazeFlow,2020.1.2,59.852117984902875,
1,Block502.xls,A,2,7,101,41,22,incongruent,Left,Right,Left,83,80,3,blue,2,5,/home/docky/apps/exp/images/83Bi.jpeg,/home/docky/apps/exp/images/80B.jpeg,0,0,0,0,0,6,6,6,143.57019730899992,None,143.57019730899992,None,1,5.912394277998828,143.57019730899992,None,149.5164526490007,None,149.5164526490007,None,152.01932236100038,None,152.01932236100038,None,1.1169044519992894,153.82236561000173,None,153.82236561000173,None,5,1,0.8341318739985581,154.92648902400106,None,154.92648902400106,None,154.92648902400106,None,155.77754579099928,None,1,0.552091665998887,155.77754579099928,None,6,156.3454977170004,None,149,A,1,2021_Jun_04_1757,GazeFlow,2020.1.2,59.852117984902875,
1,Block502.xls,A,2,8,69,9,21,incongruent,Right,Left,Right,73,76,3,blue,2,6,/home/docky/apps/exp/images/73B.jpeg,/home/docky/apps/exp/images/76Bi.jpeg,0,0,0,0,0,7,7,7,157.3472651459997,None,157.3472651459997,None,1,6.697400458000629,157.3472651459997,None,164.0782099950011,None,164.0782099950011,None,166.58292462499958,None,166.58292462499958,None,0.715858201001538,168.38657375500043,None,168.38657375500043,None,6,1,0.9679617299989332,169.0872884900018,None,169.0872884900018,None,169.0872884900018,None,170.07201153699862,None,1,0.4840102989983279,170.07201153699862,None,8,170.57285084700197,None,149,A,1,2021_Jun_04_1757,GazeFlow,2020.1.2,59.852117984902875,
1,Block502.xls,A,,,,,,,,,,,,,,,,,,0,0,0,0,,,,,,,,,,,,,,,,,,,,,,,,,,,,,,,,,,,,,,,,,,,,149,A,1,2021_Jun_04_1757,GazeFlow,2020.1.2,59.852117984902875,
2,Block506.xls,A,6,1,120,60,22,incongruent,Left,Right,Left,80,79,1,yellow,2,5,/home/docky/apps/exp/images/80Yi.jpeg,/home/docky/apps/exp/images/79Y.jpeg,0,1,1,1,0,0,0,0,188.05732127400188,None,188.05732127400188,None,1,9.960780471999897,188.05732127400188,None,198.03973869399852,None,198.03973869399852,None,200.56570014300087,None,200.56570014300087,None,0.7825012359971879,202.36932401100057,None,202.36932401100057,None,5,1,0.9845901860026061,203.13667432000148,None,203.13667432000148,None,203.13667432000148,None,204.138097654999,None,1,0.7521756990026915,204.138097654999,None,10,204.9067981879998,None,149,A,1,2021_Jun_04_1757,GazeFlow,2020.1.2,59.852117984902875,
2,Block506.xls,A,6,2,51,51,12,congruent,Right,Right,Left,66,65,1,yellow,2,5,/home/docky/apps/exp/images/66Y.jpeg,/home/docky/apps/exp/images/35Bi.jpeg,0,1,1,1,0,1,1,1,205.90839029500057,None,205.90839029500057,None,1,6.112460447002377,205.90839029500057,None,212.0591697460004,None,212.0591697460004,None,214.55936851500155,None,214.55936851500155,None,0.7831206160008151,216.36146333299985,None,216.36146333299985,None,6,0,1.001802532999136,217.1306132259997,None,217.1306132259997,None,217.1306132259997,None,218.14895445599905,None,1,0.5684640879990184,218.14895445599905,None,8,218.73363319200143,None,149,A,1,2021_Jun_04_1757,GazeFlow,2020.1.2,59.852117984902875,
2,Block506.xls,A,6,3,119,59,22,incongruent,Left,Right,Left,80,79,1,yellow,2,5,/home/docky/apps/exp/images/80Y.jpeg,/home/docky/apps/exp/images/79Yi.jpeg,0,1,1,1,0,2,2,2,219.73521877500025,None,219.73521877500025,None,1,6.2130360979972465,219.73521877500025,None,225.9816204000017,None,225.9816204000017,None,228.4851981440006,None,228.4851981440006,None,0.7830298570006562,230.28212153999993,None,230.28212153999993,None,5,1,1.201739981999708,231.05764418699982,None,231.05764418699982,None,231.05764418699982,None,232.27625739699943,None,1,0.6852294379968953,232.27625739699943,None,10,232.97797731099854,None,149,A,1,2021_Jun_04_1757,GazeFlow,2020.1.2,59.852117984902875,
2,Block506.xls,A,6,4,28,28,11,congruent,Left,Left,Right,72,77,5,yellow,2,6,/home/docky/apps/exp/images/72Y.jpeg,/home/docky/apps/exp/images/77Yi.jpeg,0,1,1,1,0,3,3,3,233.9795720889997,None,233.9795720889997,None,1,5.978618533001281,233.9795720889997,None,239.9919370630014,None,239.9919370630014,None,242.4969127990007,None,242.4969127990007,None,0.8497211440007959,244.293287176999,None,244.293287176999,None,6,1,0.9683055279965629,245.1349500110009,None,245.1349500110009,None,245.1349500110009,None,246.1194950149984,None,1,0.4180643380022957,246.1194950149984,None,12,246.55376094800158,None,149,A,1,2021_Jun_04_1757,GazeFlow,2020.1.2,59.852117984902875,
2,Block506.xls,A,6,5,85,25,21,incongruent,Right,Left,Right,69,75,6,yellow,2,6,/home/docky/apps/exp/images/69Y.jpeg,/home/docky/apps/exp/images/76Yi.jpeg,0,1,1,1,0,4,4,4,247.55586327199853,None,247.55586327199853,None,1,4.660050266997132,247.55586327199853,None,252.25050092400124,None,252.25050092400124,None,254.75387421900086,None,254.75387421900086,None,0.7996509340009652,256.5557481299984,None,256.5557481299984,None,6,1,0.8845085959983408,257.3420725920005,None,257.3420725920005,None,257.3420725920005,None,258.2430406650019,None,1,0.31773089400303434,258.2430406650019,None,14,258.57736400000067,None,149,A,1,2021_Jun_04_1757,GazeFlow,2020.1.2,59.852117984902875,
2,Block506.xls,A,6,6,71,11,21,incongruent,Right,Left,Right,76,79,3,blue,2,6,/home/docky/apps/exp/images/76B.jpeg,/home/docky/apps/exp/images/79Bi.jpeg,0,1,1,1,0,5,5,5,259.5792635399994,None,259.5792635399994,None,1,4.542886734001513,259.5792635399994,None,264.1534908899994,None,264.1534908899994,None,266.6588743639986,None,266.6588743639986,None,0.8828293990009115,268.4624345939992,None,268.4624345939992,None,6,1,1.0848226430025534,269.33198404200084,None,269.33198404200084,None,269.33198404200084,None,270.4332730440001,None,1,0.06721034499787493,270.4332730440001,None,16,270.5169719330006,None,149,A,1,2021_Jun_04_1757,GazeFlow,2020.1.2,59.852117984902875,
2,Block506.xls,A,6,7,56,56,12,congruent,Right,Right,Left,76,69,7,yellow,2,5,/home/docky/apps/exp/images/76Yi.jpeg,/home/docky/apps/exp/images/69Y.jpeg,0,1,1,1,0,6,6,6,271.5189861930012,None,271.5189861930012,None,1,4.760303683000529,271.5189861930012,None,276.31382325600134,None,276.31382325600134,None,278.81761373500194,None,278.81761373500194,None,0.8664724750015012,280.6193728949984,None,280.6193728949984,None,5,1,0.7179043840005761,281.47218798500035,None,281.47218798500035,None,281.47218798500035,None,282.20608880000145,None,1,0.3844984649986145,282.20608880000145,None,18,282.60728481299884,None,149,A,1,2021_Jun_04_1757,GazeFlow,2020.1.2,59.852117984902875,
2,Block506.xls,A,6,8,33,33,12,congruent,Right,Right,Left,38,35,3,blue,2,5,/home/docky/apps/exp/images/38B.jpeg,/home/docky/apps/exp/images/35Bi.jpeg,0,1,1,1,0,7,7,7,283.60891563900077,None,283.60891563900077,None,1,6.363748190000479,283.60891563900077,None,290.0063810700012,None,290.0063810700012,None,292.51062741400165,None,292.51062741400165,None,1.0003796640012297,294.30690387900177,None,294.30690387900177,None,5,1,0.784221855999931,295.2990694789987,None,295.2990694789987,None,295.2990694789987,None,296.10009947399885,None,1,0.43415872900004615,296.10009947399885,None,20,296.55167575000087,None,149,A,1,2021_Jun_04_1757,GazeFlow,2020.1.2,59.852117984902875,
2,Block506.xls,A,,,,,,,,,,,,,,,,,,0,1,1,1,,,,,,,,,,,,,,,,,,,,,,,,,,,,,,,,,,,,,,,,,,,,149,A,1,2021_Jun_04_1757,GazeFlow,2020.1.2,59.852117984902875,
3,Block505.xls,A,5,1,1,1,11,congruent,Left,Left,Right,16,19,3,blue,2,6,/home/docky/apps/exp/images/16Bi.jpeg,/home/docky/apps/exp/images/19B.jpeg,0,2,2,2,0,0,0,0,315.32122256100047,None,315.32122256100047,None,1,6.968572752997716,315.32122256100047,None,322.3161412010013,None,322.3161412010013,None,324.84034226600124,None,324.84034226600124,None,0.782235339996987,326.64390292900134,None,326.64390292900134,None,6,1,0.750596346999373,327.41152180800054,None,327.41152180800054,None,327.41152180800054,None,328.17897589600034,None,1,0.26712877899990417,328.17897589600034,None,22,328.462795088999,None,149,A,1,2021_Jun_04_1757,GazeFlow,2020.1.2,59.852117984902875,
3,Block505.xls,A,5,2,10,10,11,congruent,Left,Left,Right,73,76,3,blue,2,6,/home/docky/apps/exp/images/73B.jpeg,/home/docky/apps/exp/images/76Bi.jpeg,0,2,2,2,0,1,1,1,329.4653867880006,None,329.4653867880006,None,1,4.291876236999087,329.4653867880006,None,333.78948675100037,None,333.78948675100037,None,336.29370784500134,None,336.29370784500134,None,0.9333973889988556,338.09953375400073,None,338.09953375400073,None,5,0,0.8509694049971586,339.0173720620005,None,339.0173720620005,None,339.0173720620005,None,339.88529703699896,None,1,0.38419640800202615,339.88529703699896,None,20,340.2856511159989,None,149,A,1,2021_Jun_04_1757,GazeFlow,2020.1.2,59.852117984902875,
3,Block505.xls,A,5,3,95,35,22,incongruent,Left,Right,Left,66,65,1,blue,2,5,/home/docky/apps/exp/images/66B.jpeg,/home/docky/apps/exp/images/35Yi.jpeg,0,2,2,2,0,2,2,2,341.28780787100186,None,341.28780787100186,None,1,5.311351464999461,341.28780787100186,None,346.63634329400156,None,346.63634329400156,None,349.13723603499966,None,349.13723603499966,None,0.7661773250001715,350.93978183999934,None,350.93978183999934,None,5,1,3.973880002002261,351.69198108099954,None,351.69198108099954,None,351.69198108099954,None,355.6824788160011,None,1,1.0695387220002885,355.6824788160011,None,22,356.7683195190002,None,149,A,1,2021_Jun_04_1757,GazeFlow,2020.1.2,59.852117984902875,
3,Block505.xls,A,5,4,46,46,12,congruent,Right,Right,Left,35,33,2,yellow,2,5,/home/docky/apps/exp/images/35Yi.jpeg,/home/docky/apps/exp/images/33Y.jpeg,0,2,2,2,0,3,3,3,357.7701011909994,None,357.7701011909994,None,1,6.580511322001257,357.7701011909994,None,364.3835254580008,None,364.3835254580008,None,366.88840619999974,None,366.88840619999974,None,0.7497398579980654,368.6906326479984,None,368.6906326479984,None,5,1,0.8509622950004996,369.4264581620009,None,369.4264581620009,None,369.4264581620009,None,370.2943216849999,None,1,0.4173464560008142,370.2943216849999,None,24,370.7284454539986,None,149,A,1,2021_Jun_04_1757,GazeFlow,2020.1.2,59.852117984902875,
3,Block505.xls,A,5,5,78,18,21,incongruent,Right,Left,Right,65,66,1,yellow,2,6,/home/docky/apps/exp/images/35Bi.jpeg,/home/docky/apps/exp/images/66Y.jpeg,0,2,2,2,0,4,4,4,371.7303077530014,None,371.7303077530014,None,1,5.477925861996482,371.7303077530014,None,377.2420792189987,None,377.2420792189987,None,379.7455975470002,None,379.7455975470002,None,0.9500861369997438,381.55045693099964,None,381.55045693099964,None,5,0,0.6677540220007359,382.48503288899883,None,382.48503288899883,None,382.48503288899883,None,383.1690559989984,None,1,0.41783566400044947,383.1690559989984,None,22,383.60322566800096,None,149,A,1,2021_Jun_04_1757,GazeFlow,2020.1.2,59.852117984902875,
3,Block505.xls,A,5,6,43,43,12,congruent,Right,Right,Left,83,80,3,blue,2,5,/home/docky/apps/exp/images/83B.jpeg,/home/docky/apps/exp/images/80Bi.jpeg,0,2,2,2,0,5,5,5,384.6052845830018,None,384.6052845830018,None,1,6.095792472999165,384.6052845830018,None,390.7385290730017,None,390.7385290730017,None,393.2396783690019,None,393.2396783690019,None,0.6661021519976202,395.0413823880008,None,395.0413823880008,None,5,1,0.6841173769971647,395.6942433129989,None,395.6942433129989,None,395.6942433129989,None,396.3949433900016,None,1,0.4509620509998058,396.3949433900016,None,24,396.86242388200117,None,149,A,1,2021_Jun_04_1757,GazeFlow,2020.1.2,59.852117984902875,
3,Block505.xls,A,5,7,44,44,12,congruent,Right,Right,Left,39,38,1,blue,2,5,/home/docky/apps/exp/images/39Bi.jpeg,/home/docky/apps/exp/images/38B.jpeg,0,2,2,2,0,6,6,6,397.8648506819991,None,397.8648506819991,None,1,4.542313599999034,397.8648506819991,None,402.44084767800086,None,402.44084767800086,None,404.9440573770007,None,404.9440573770007,None,0.9502760469986242,406.7474639100001,None,406.7474639100001,None,5,1,0.8515779139997903,407.6839535899999,None,407.6839535899999,None,407.6839535899999,None,408.5517475330016,None,1,0.284080493998772,408.5517475330016,None,26,408.8524207189985,None,149,A,1,2021_Jun_04_1757,GazeFlow,2020.1.2,59.852117984902875,
3,Block505.xls,A,5,8,116,56,22,incongruent,Left,Right,Left,77,72,5,yellow,2,5,/home/docky/apps/exp/images/77Y.jpeg,/home/docky/apps/exp/images/72Y.jpeg,0,2,2,2,0,7,7,7,409.8542720869991,None,409.8542720869991,None,1,6.180220476999239,409.8542720869991,None,416.06725901000027,None,416.06725901000027,None,418.57253543299885,None,418.57253543299885,None,0.7330101240004296,420.3746085720013,None,420.3746085720013,None,5,1,0.7174892330003786,421.0935340799988,None,421.0935340799988,None,421.0935340799988,None,421.8276497229999,None,1,0.3172614020004403,421.8276497229999,None,28,422.1617357979994,None,149,A,1,2021_Jun_04_1757,GazeFlow,2020.1.2,59.852117984902875,
3,Block505.xls,A,,,,,,,,,,,,,,,,,,0,2,2,2,,,,,,,,,,,,,,,,,,,,,,,,,,,,,,,,,,,,,,,,,,,,149,A,1,2021_Jun_04_1757,GazeFlow,2020.1.2,59.852117984902875,
4,Block509.xls,A,9,1,34,34,12,congruent,Right,Right,Left,38,35,3,blue,2,5,/home/docky/apps/exp/images/38Bi.jpeg,/home/docky/apps/exp/images/35B.jpeg,0,3,3,3,0,0,0,0,442.40103070999976,None,442.40103070999976,None,1,5.149230585000623,442.40103070999976,None,447.5754331550015,None,447.5754331550015,None,450.1002148209991,None,450.1002148209991,None,0.7321523520004121,451.90381380300096,None,451.90381380300096,None,5,1,0.683970063997549,452.6212509090001,None,452.6212509090001,None,452.6212509090001,None,453.32214671600013,None,1,0.33414034800080117,453.32214671600013,None,30,453.67275942700144,None,149,A,1,2021_Jun_04_1757,GazeFlow,2020.1.2,59.852117984902875,
4,Block509.xls,A,9,2,7,7,11,congruent,Left,Left,Right,65,66,1,blue,2,6,/home/docky/apps/exp/images/35Yi.jpeg,/home/docky/apps/exp/images/66B.jpeg,0,3,3,3,0,1,1,1,454.67509600799895,None,454.67509600799895,None,1,5.093990278997808,454.67509600799895,None,459.80262065699935,None,459.80262065699935,None,462.3052330190003,None,462.3052330190003,None,0.7161967060019379,464.10931129299934,None,464.10931129299934,None,5,0,1.185474339999928,464.8116366940012,None,464.8116366940012,None,464.8116366940012,None,466.0134858980018,None,1,0.03340998899875558,466.0134858980018,None,28,466.0633303760005,None,149,A,1,2021_Jun_04_1757,GazeFlow,2020.1.2,59.852117984902875,
4,Block509.xls,A,9,3,74,14,21,incongruent,Right,Left,Right,80,83,3,blue,2,6,/home/docky/apps/exp/images/80B.jpeg,/home/docky/apps/exp/images/83Bi.jpeg,0,3,3,3,0,2,2,2,467.06536769000013,None,467.06536769000013,None,1,5.4780597610006225,467.06536769000013,None,472.5769756760019,None,472.5769756760019,None,475.0807030270007,None,475.0807030270007,None,0.8834111379983369,476.8837753879998,None,476.8837753879998,None,6,1,0.7176923070001067,477.75342472400007,None,477.75342472400007,None,477.75342472400007,None,478.48755668800004,None,1,0.2840446410009463,478.48755668800004,None,30,478.7880504759996,None,149,A,1,2021_Jun_04_1757,GazeFlow,2020.1.2,59.852117984902875,
4,Block509.xls,A,9,4,19,19,11,congruent,Left,Left,Right,65,66,1,yellow,2,6,/home/docky/apps/exp/images/35Bi.jpeg,/home/docky/apps/exp/images/66Y.jpeg,0,3,3,3,0,3,3,3,479.79005501600113,None,479.79005501600113,None,1,4.459852105999744,479.79005501600113,None,484.2833390039996,None,484.2833390039996,None,486.786418058,None,486.786418058,None,1.1006851150013972,488.5895356149995,None,488.5895356149995,None,5,0,3.590562247001799,489.676608021,None,489.676608021,None,489.676608021,None,493.2836492259994,None,1,1.8039124229981098,493.2836492259994,None,28,495.1036186329984,None,149,A,1,2021_Jun_04_1757,GazeFlow,2020.1.2,59.852117984902875,
4,Block509.xls,A,9,5,60,60,12,congruent,Right,Right,Left,80,79,1,yellow,2,5,/home/docky/apps/exp/images/80Yi.jpeg,/home/docky/apps/exp/images/79Y.jpeg,0,3,3,3,0,4,4,4,496.10569710799973,None,496.10569710799973,None,1,7.047408758000529,496.10569710799973,None,503.18667284099865,None,503.18667284099865,None,505.69150949400137,None,505.69150949400137,None,0.7497268860024633,507.4935997069988,None,507.4935997069988,None,5,1,3.4896162939985516,508.22923080500186,None,508.22923080500186,None,508.22923080500186,None,511.7354843909998,None,1,0.5521727449995524,511.7354843909998,None,30,512.3037101129994,None,149,A,1,2021_Jun_04_1757,GazeFlow,2020.1.2,59.852117984902875,
4,Block509.xls,A,9,6,83,23,21,incongruent,Right,Left,Right,38,39,1,yellow,2,6,/home/docky/apps/exp/images/38Yi.jpeg,/home/docky/apps/exp/images/39Y.jpeg,0,3,3,3,0,5,5,5,513.3058863289989,None,513.3058863289989,None,1,5.159897198002,513.3058863289989,None,518.4997957999985,None,518.4997957999985,None,521.0043656470007,None,521.0043656470007,None,0.7666162540008372,522.8061111150018,None,522.8061111150018,None,6,1,0.7674528050010849,523.5592827459986,None,523.5592827459986,None,523.5592827459986,None,524.3433389620004,None,1,0.3507652179978322,524.3433389620004,None,32,524.7109950129998,None,149,A,1,2021_Jun_04_1757,GazeFlow,2020.1.2,59.852117984902875,
4,Block509.xls,A,9,7,4,4,11,congruent,Left,Left,Right,35,38,3,blue,2,6,/home/docky/apps/exp/images/35B.jpeg,/home/docky/apps/exp/images/38Bi.jpeg,0,3,3,3,0,6,6,6,525.7131540689988,None,525.7131540689988,None,1,5.494269519000227,525.7131540689988,None,531.2411149309992,None,531.2411149309992,None,533.7459209260014,None,533.7459209260014,None,0.6827474559977418,535.5495625930016,None,535.5495625930016,None,6,1,0.6839776849992631,536.2171137139994,None,536.2171137139994,None,536.2171137139994,None,536.9180703080019,None,1,0.31741902000067057,536.9180703080019,None,34,537.2516411079996,None,149,A,1,2021_Jun_04_1757,GazeFlow,2020.1.2,59.852117984902875,
4,Block509.xls,A,9,8,24,24,11,congruent,Left,Left,Right,38,39,1,yellow,2,6,/home/docky/apps/exp/images/38Y.jpeg,/home/docky/apps/exp/images/39Yi.jpeg,0,3,3,3,0,7,7,7,538.254039599,None,538.254039599,None,1,5.1128274769980635,538.254039599,None,543.4000311220007,None,543.4000311220007,None,545.9182752209999,None,545.9182752209999,None,0.7163740159994632,547.7043330609995,None,547.7043330609995,None,6,1,0.6674861519968545,548.4074245369993,None,548.4074245369993,None,548.4074245369993,None,549.0915900110012,None,1,0.23385349200179917,549.0915900110012,None,36,549.3421202739992,None,149,A,1,2021_Jun_04_1757,GazeFlow,2020.1.2,59.852117984902875,
4,Block509.xls,A,,,,,,,,,,,,,,,,,,0,3,3,3,,,,,,,,,,,,,,,,,,,,,,,,,,,,,,,,,,,,,,,,,,,,149,A,1,2021_Jun_04_1757,GazeFlow,2020.1.2,59.852117984902875,
5,Block504.xls,A,4,1,11,11,11,congruent,Left,Left,Right,73,76,3,blue,2,6,/home/docky/apps/exp/images/73Bi.jpeg,/home/docky/apps/exp/images/76B.jpeg,0,4,4,4,0,0,0,0,602.8981358220008,None,602.8981358220008,None,1,4.246424982997269,602.8981358220008,None,607.1729815409999,None,607.1729815409999,None,609.6919966919995,None,609.6919966919995,None,0.665487509999366,611.4970988749992,None,611.4970988749992,None,6,1,0.6340993459998572,612.1480789339985,None,612.1480789339985,None,612.1480789339985,None,612.7983898290004,None,1,0.5013115299989295,612.7983898290004,None,38,613.3164009719985,None,149,A,1,2021_Jun_04_1757,GazeFlow,2020.1.2,59.852117984902875,
5,Block504.xls,A,4,2,87,27,21,incongruent,Right,Left,Right,72,77,5,yellow,2,6,/home/docky/apps/exp/images/72Y.jpeg,/home/docky/apps/exp/images/77Yi.jpeg,0,4,4,4,0,1,1,1,614.3184548659992,None,614.3184548659992,None,1,4.34304847599924,614.3184548659992,None,618.6945643129984,None,618.6945643129984,None,621.1990971859996,None,621.1990971859996,None,0.6494392960012192,623.0029519640011,None,623.0029519640011,None,6,1,1.6700832050009922,623.6372166090005,None,623.6372166090005,None,623.6372166090005,None,625.3233458809991,None,1,0.40141710700117983,625.3233458809991,None,40,625.7409383939994,None,149,A,1,2021_Jun_04_1757,GazeFlow,2020.1.2,59.852117984902875,
5,Block504.xls,A,4,3,48,48,12,congruent,Right,Right,Left,39,38,1,yellow,2,5,/home/docky/apps/exp/images/39Yi.jpeg,/home/docky/apps/exp/images/38Y.jpeg,0,4,4,4,0,2,2,2,626.7424913959985,None,626.7424913959985,None,1,4.0924332620015775,626.7424913959985,None,630.8681757289996,None,630.8681757289996,None,633.3713019450006,None,633.3713019450006,None,0.7500110969995148,635.1688770459987,None,635.1688770459987,None,5,1,0.7178481590017327,635.910766093999,None,635.910766093999,None,635.910766093999,None,636.6448603800018,None,1,0.35131492700020317,636.6448603800018,None,42,637.0123222969996,None,149,A,1,2021_Jun_04_1757,GazeFlow,2020.1.2,59.852117984902875,
5,Block504.xls,A,4,4,38,38,12,congruent,Right,Right,Left,79,73,6,blue,2,5,/home/docky/apps/exp/images/79B.jpeg,/home/docky/apps/exp/images/73Bi.jpeg,0,4,4,4,0,3,3,3,638.0145522739986,None,638.0145522739986,None,1,4.2920030589993985,638.0145522739986,None,642.3404198870012,None,642.3404198870012,None,644.845847331002,None,644.845847331002,None,0.6830878340006166,646.6469792919997,None,646.6469792919997,None,5,1,2.4041966699987825,647.3161858320018,None,647.3161858320018,None,647.3161858320018,None,649.7372318080015,None,1,1.420636975999514,649.7372318080015,None,44,651.1736832019997,None,149,A,1,2021_Jun_04_1757,GazeFlow,2020.1.2,59.852117984902875,
5,Block504.xls,A,4,5,2,2,11,congruent,Left,Left,Right,16,19,3,blue,2,6,/home/docky/apps/exp/images/16B.jpeg,/home/docky/apps/exp/images/19Bi.jpeg,0,4,4,4,0,4,4,4,652.1756011799989,None,652.1756011799989,None,1,5.594405475003441,652.1756011799989,None,657.8039130530015,None,657.8039130530015,None,660.3088752069998,None,660.3088752069998,None,0.7165139669996279,662.1099516870017,None,662.1099516870017,None,6,1,0.6675814199988963,662.8128768610004,None,662.8128768610004,None,662.8128768610004,None,663.4971957919988,None,1,0.2506519570015371,663.4971957919988,None,46,663.7642723850004,None,149,A,1,2021_Jun_04_1757,GazeFlow,2020.1.2,59.852117984902875,
5,Block504.xls,A,4,6,73,13,21,incongruent,Right,Left,Right,80,83,3,blue,2,6,/home/docky/apps/exp/images/80Bi.jpeg,/home/docky/apps/exp/images/83B.jpeg,0,4,4,4,0,5,5,5,664.7664817930017,None,664.7664817930017,None,1,4.592712325000321,664.7664817930017,None,669.3931750670017,None,669.3931750670017,None,671.8961022809999,None,671.8961022809999,None,0.649517284000467,673.6992887029992,None,673.6992887029992,None,6,1,0.6172350529996038,674.3357241880003,None,674.3357241880003,None,674.3357241880003,None,674.9697068489986,None,1,0.2506518240006699,674.9697068489986,None,48,675.236776304002,None,149,A,1,2021_Jun_04_1757,GazeFlow,2020.1.2,59.852117984902875,
5,Block504.xls,A,4,7,63,3,21,incongruent,Right,Left,Right,35,38,3,blue,2,6,/home/docky/apps/exp/images/35B.jpeg,/home/docky/apps/exp/images/38Bi.jpeg,0,4,4,4,0,6,6,6,676.2390778910012,None,676.2390778910012,None,1,4.743300931000704,676.2390778910012,None,681.0155963379984,None,681.0155963379984,None,683.5190032399987,None,683.5190032399987,None,0.5826971879978373,685.3198269659988,None,685.3198269659988,None,6,1,0.6670592749978823,685.8914150780001,None,685.8914150780001,None,685.8914150780001,None,686.5756484049998,None,1,0.38363935300003504,686.5756484049998,None,50,686.975942437999,None,149,A,1,2021_Jun_04_1757,GazeFlow,2020.1.2,59.852117984902875,
5,Block504.xls,A,4,8,86,26,21,incongruent,Right,Left,Right,72,77,5,yellow,2,6,/home/docky/apps/exp/images/72Yi.jpeg,/home/docky/apps/exp/images/77Y.jpeg,0,4,4,4,0,7,7,7,687.9784555850019,None,687.9784555850019,None,1,3.958679430998018,687.9784555850019,None,691.9699698119985,None,691.9699698119985,None,694.4779483860002,None,694.4779483860002,None,0.7829967949983256,696.2712964790007,None,696.2712964790007,None,6,1,0.6006410619993403,697.0463114359991,None,697.0463114359991,None,697.0463114359991,None,697.6635056179985,None,1,0.23394477399779134,697.6635056179985,None,52,697.9140281420005,None,149,A,1,2021_Jun_04_1757,GazeFlow,2020.1.2,59.852117984902875,
5,Block504.xls,A,,,,,,,,,,,,,,,,,,0,4,4,4,,,,,,,,,,,,,,,,,,,,,,,,,,,,,,,,,,,,,,,,,,,,149,A,1,2021_Jun_04_1757,GazeFlow,2020.1.2,59.852117984902875,
6,Block511.xls,A,11,1,15,15,11,congruent,Left,Left,Right,80,83,3,blue,2,6,/home/docky/apps/exp/images/80Bi.jpeg,/home/docky/apps/exp/images/83B.jpeg,0,5,5,5,0,0,0,0,741.3505507160007,None,741.3505507160007,None,1,3.964944955001556,741.3505507160007,None,745.3472678229991,None,745.3472678229991,None,747.8619283260014,None,747.8619283260014,None,0.6157976519971271,749.6653281069994,None,749.6653281069994,None,6,1,0.6006420699995942,750.2664424370014,None,750.2664424370014,None,750.2664424370014,None,750.8836138590013,None,1,0.26762627200150746,750.8836138590013,None,54,751.1672978220013,None,149,A,1,2021_Jun_04_1757,GazeFlow,2020.1.2,59.852117984902875,
6,Block511.xls,A,11,2,105,45,22,incongruent,Left,Right,Left,39,38,1,blue,2,5,/home/docky/apps/exp/images/39Bi.jpeg,/home/docky/apps/exp/images/38B.jpeg,0,5,5,5,0,1,1,1,752.169822038999,None,752.169822038999,None,1,3.7413822160015116,752.169822038999,None,755.9448570290006,None,755.9448570290006,None,758.449870556,None,758.449870556,None,0.6164307950020884,760.2453400250015,None,760.2453400250015,None,5,1,0.5837231500008784,760.8534855729995,None,760.8534855729995,None,760.8534855729995,None,761.4540362539992,None,1,0.3676607689994853,761.4540362539992,None,56,761.8382513889992,None,149,A,1,2021_Jun_04_1757,GazeFlow,2020.1.2,59.852117984902875,
6,Block511.xls,A,11,3,68,8,21,incongruent,Right,Left,Right,38,39,1,blue,2,6,/home/docky/apps/exp/images/38B.jpeg,/home/docky/apps/exp/images/39Bi.jpeg,0,5,5,5,0,2,2,2,762.8406381610002,None,762.8406381610002,None,1,4.693201070000214,762.8406381610002,None,767.566749384001,None,767.566749384001,None,770.0696927909994,None,770.0696927909994,None,0.6996666779996303,771.8728528470019,None,771.8728528470019,None,6,1,0.6005030599990278,772.559703777999,None,772.559703777999,None,772.559703777999,None,773.1771667409994,None,1,0.16784672199719353,773.1771667409994,None,58,773.3607023149998,None,149,A,1,2021_Jun_04_1757,GazeFlow,2020.1.2,59.852117984902875,
6,Block511.xls,A,11,4,80,20,21,incongruent,Right,Left,Right,62,65,3,yellow,2,6,/home/docky/apps/exp/images/38Bi.jpeg,/home/docky/apps/exp/images/35B.jpeg,0,5,5,5,0,3,3,3,774.3630135509993,None,774.3630135509993,None,1,3.3734144599984575,774.3630135509993,None,777.7703889379991,None,777.7703889379991,None,780.2735177469986,None,780.2735177469986,None,0.6829721069989318,782.0786584320012,None,782.0786584320012,None,6,1,0.5505011089990148,782.7460581010018,None,782.7460581010018,None,782.7460581010018,None,783.3132570359994,None,1,0.16714187600155128,783.3132570359994,None,60,783.4970979300015,None,149,A,1,2021_Jun_04_1757,GazeFlow,2020.1.2,59.852117984902875,
6,Block511.xls,A,11,5,5,5,11,congruent,Left,Left,Right,65,66,1,blue,2,6,/home/docky/apps/exp/images/35Yi.jpeg,/home/docky/apps/exp/images/66B.jpeg,0,5,5,5,0,4,4,4,784.4992918569988,None,784.4992918569988,None,1,4.041921795000235,784.4992918569988,None,788.5743881790004,None,788.5743881790004,None,791.0791901720004,None,791.0791901720004,None,0.6155163229996106,792.8809227769998,None,792.8809227769998,None,5,0,0.5839834400030668,793.4834655939994,None,793.4834655939994,None,793.4834655939994,None,794.0843627210015,None,1,0.2840647060002084,794.0843627210015,None,58,794.384511799999,None,149,A,1,2021_Jun_04_1757,GazeFlow,2020.1.2,59.852117984902875,
6,Block511.xls,A,11,6,18,18,11,congruent,Left,Left,Right,65,66,1,yellow,2,6,/home/docky/apps/exp/images/35B.jpeg,/home/docky/apps/exp/images/66Yi.jpeg,0,5,5,5,0,5,5,5,795.3870914049985,None,795.3870914049985,None,1,4.492756175997783,795.3870914049985,None,799.9132922729987,None,799.9132922729987,None,802.416121762999,None,802.416121762999,None,1.7020232119975844,804.2138252990007,None,804.2138252990007,None,6,1,0.7850910890010709,805.9076373850003,None,805.9076373850003,None,805.9076373850003,None,806.7089626119996,None,1,0.2845686270011356,806.7089626119996,None,60,807.0097727020002,None,149,A,1,2021_Jun_04_1757,GazeFlow,2020.1.2,59.852117984902875,
6,Block511.xls,A,11,7,25,25,11,congruent,Left,Left,Right,69,75,6,yellow,2,6,/home/docky/apps/exp/images/69Yi.jpeg,/home/docky/apps/exp/images/76Y.jpeg,0,5,5,5,0,6,6,6,808.0112459590018,None,808.0112459590018,None,1,4.610077393997926,808.0112459590018,None,812.6547491460005,None,812.6547491460005,None,815.1576412399991,None,815.1576412399991,None,2.787392035999801,816.9612993859992,None,816.9612993859992,None,6,1,0.700126438998268,819.7518595250003,None,819.7518595250003,None,819.7518595250003,None,820.4686744110004,None,1,0.2507442429996445,820.4686744110004,None,62,820.7361289360015,None,149,A,1,2021_Jun_04_1757,GazeFlow,2020.1.2,59.852117984902875,
6,Block511.xls,A,11,8,3,3,11,congruent,Left,Left,Right,35,38,3,blue,2,6,/home/docky/apps/exp/images/35Bi.jpeg,/home/docky/apps/exp/images/38B.jpeg,0,5,5,5,0,7,7,7,821.737675143002,None,821.737675143002,None,1,5.110823936000088,821.737675143002,None,826.882442959999,None,826.882442959999,None,829.3855732709999,None,829.3855732709999,None,0.6993187010011752,831.1833701860014,None,831.1833701860014,None,6,1,0.6008185190003132,831.8746440549985,None,831.8746440549985,None,831.8746440549985,None,832.4920667580009,None,1,0.16722843800016562,832.4920667580009,None,64,832.6761152840008,None,149,A,1,2021_Jun_04_1757,GazeFlow,2020.1.2,59.852117984902875,
6,Block511.xls,A,,,,,,,,,,,,,,,,,,0,5,5,5,,,,,,,,,,,,,,,,,,,,,,,,,,,,,,,,,,,,,,,,,,,,149,A,1,2021_Jun_04_1757,GazeFlow,2020.1.2,59.852117984902875,
7,Block508.xls,A,8,1,13,13,11,congruent,Left,Left,Right,76,79,3,blue,2,6,/home/docky/apps/exp/images/76Bi.jpeg,/home/docky/apps/exp/images/79B.jpeg,0,6,6,6,0,0,0,0,852.0660295029993,None,852.0660295029993,None,1,4.149377574998653,852.0660295029993,None,856.2368565600009,None,856.2368565600009,None,858.7607754579985,None,858.7607754579985,None,0.6653444909970858,860.5645183019988,None,860.5645183019988,None,6,1,0.5341515840009379,861.2151792680015,None,861.2151792680015,None,861.2151792680015,None,861.7658295350011,None,1,0.2003956599983212,861.7658295350011,None,66,861.9827980840018,None,149,A,1,2021_Jun_04_1757,GazeFlow,2020.1.2,59.852117984902875,
7,Block508.xls,A,8,2,21,21,11,congruent,Left,Left,Right,62,65,3,yellow,2,6,/home/docky/apps/exp/images/38B.jpeg,/home/docky/apps/exp/images/35Bi.jpeg,0,6,6,6,0,1,1,1,862.9851238980009,None,862.9851238980009,None,1,3.340143449000607,862.9851238980009,None,866.3589880539985,None,866.3589880539985,None,868.8618901410009,None,868.8618901410009,None,0.5992649189975054,870.6653725610013,None,870.6653725610013,None,6,1,0.517260983997403,871.251451365999,None,871.251451365999,None,871.251451365999,None,871.7850611829999,None,1,0.23403718100234983,871.7850611829999,None,68,872.0358276320003,None,149,A,1,2021_Jun_04_1757,GazeFlow,2020.1.2,59.852117984902875,
7,Block508.xls,A,8,3,99,39,22,incongruent,Left,Right,Left,79,76,3,blue,2,5,/home/docky/apps/exp/images/79Bi.jpeg,/home/docky/apps/exp/images/76B.jpeg,0,6,6,6,0,2,2,2,873.038027548002,None,873.038027548002,None,1,3.8743828810002015,873.038027548002,None,876.9497616590015,None,876.9497616590015,None,879.4494556989994,None,879.4494556989994,None,0.6492885789994034,881.2468470210006,None,881.2468470210006,None,5,1,0.6172394320019521,881.8887451299997,None,881.8887451299997,None,881.8887451299997,None,882.522705845,None,1,0.15023775699955877,882.522705845,None,70,882.6895869979999,None,149,A,1,2021_Jun_04_1757,GazeFlow,2020.1.2,59.852117984902875,
7,Block508.xls,A,8,4,37,37,12,congruent,Right,Right,Left,66,65,1,blue,2,5,/home/docky/apps/exp/images/66Bi.jpeg,/home/docky/apps/exp/images/35Y.jpeg,0,6,6,6,0,3,3,3,883.6914856340009,None,883.6914856340009,None,1,4.743305906002206,883.6914856340009,None,888.4686902829999,None,888.4686902829999,None,890.9719690839993,None,890.9719690839993,None,0.866354911999224,892.7755151490019,None,892.7755151490019,None,5,1,0.7009359780022351,893.6281845279991,None,893.6281845279991,None,893.6281845279991,None,894.3456157069995,None,1,0.1336719399987487,894.3456157069995,None,72,894.4961105110015,None,149,A,1,2021_Jun_04_1757,GazeFlow,2020.1.2,59.852117984902875,
7,Block508.xls,A,8,5,82,22,21,incongruent,Right,Left,Right,38,39,1,yellow,2,6,/home/docky/apps/exp/images/38Y.jpeg,/home/docky/apps/exp/images/39Yi.jpeg,0,6,6,6,0,4,4,4,895.4983812409992,None,895.4983812409992,None,1,5.244230065996817,895.4983812409992,None,900.7773188460014,None,900.7773188460014,None,903.278709659,None,903.278709659,None,0.6664426909992471,905.081841493,None,905.081841493,None,5,0,0.5174937889969442,905.735043173001,None,905.735043173001,None,905.735043173001,None,906.2686974640019,None,1,0.2509272690003854,906.2686974640019,None,70,906.5362503370015,None,149,A,1,2021_Jun_04_1757,GazeFlow,2020.1.2,59.852117984902875,
7,Block508.xls,A,8,6,104,44,22,incongruent,Left,Right,Left,39,38,1,blue,2,5,/home/docky/apps/exp/images/39B.jpeg,/home/docky/apps/exp/images/38Bi.jpeg,0,6,6,6,0,5,5,5,907.5378958399997,None,907.5378958399997,None,1,5.4281038110020745,907.5378958399997,None,912.9995876620014,None,912.9995876620014,None,915.5041526530003,None,915.5041526530003,None,0.7998303650019807,917.3001736789993,None,917.3001736789993,None,6,0,0.5839571700016677,918.0923726129986,None,918.0923726129986,None,918.0923726129986,None,918.6929790899994,None,1,0.20050973999968846,918.6929790899994,None,68,918.9099061810011,None,149,A,1,2021_Jun_04_1757,GazeFlow,2020.1.2,59.852117984902875,
7,Block508.xls,A,8,7,39,39,12,congruent,Right,Right,Left,79,73,6,blue,2,5,/home/docky/apps/exp/images/79B.jpeg,/home/docky/apps/exp/images/73Bi.jpeg,0,6,6,6,0,6,6,6,919.9124703790003,None,919.9124703790003,None,1,5.410706934999325,919.9124703790003,None,925.3547571160016,None,925.3547571160016,None,927.8599761570003,None,927.8599761570003,None,0.6328460120021191,929.6630022620011,None,929.6630022620011,None,5,1,0.5669633380020969,930.2827516090001,None,930.2827516090001,None,930.2827516090001,None,930.8664052269996,None,1,0.36762524799996754,930.8664052269996,None,70,931.2507598429984,None,149,A,1,2021_Jun_04_1757,GazeFlow,2020.1.2,59.852117984902875,
7,Block508.xls,A,8,8,36,36,12,congruent,Right,Right,Left,66,65,1,blue,2,5,/home/docky/apps/exp/images/66B.jpeg,/home/docky/apps/exp/images/35Yi.jpeg,0,6,6,6,0,7,7,7,932.2525678179991,None,932.2525678179991,None,1,5.461415382997075,932.2525678179991,None,937.7477370199995,None,937.7477370199995,None,940.2524548420006,None,940.2524548420006,None,0.9664810419999412,942.0540634040008,None,942.0540634040008,None,6,0,0.5504948500019964,943.0075410630016,None,943.0075410630016,None,943.0075410630016,None,943.5747583869997,None,1,0.2170664190016396,943.5747583869997,None,68,943.8084964830014,None,149,A,1,2021_Jun_04_1757,GazeFlow,2020.1.2,59.852117984902875,
7,Block508.xls,A,,,,,,,,,,,,,,,,,,0,6,6,6,,,,,,,,,,,,,,,,,,,,,,,,,,,,,,,,,,,,,,,,,,,,149,A,1,2021_Jun_04_1757,GazeFlow,2020.1.2,59.852117984902875,
8,Block510.xls,A,10,1,102,42,22,incongruent,Left,Right,Left,83,80,3,blue,2,5,/home/docky/apps/exp/images/83B.jpeg,/home/docky/apps/exp/images/80Bi.jpeg,0,7,7,7,0,0,0,0,968.5068774680003,None,968.5068774680003,None,1,4.983517590997508,968.5068774680003,None,973.5148295690014,None,973.5148295690014,None,976.0385897269989,None,976.0385897269989,None,0.6309160460004932,977.8424623809988,None,977.8424623809988,None,5,1,0.5842072750019724,978.4596917790004,None,978.4596917790004,None,978.4596917790004,None,979.0600486859985,None,1,0.23396674600007827,979.0600486859985,None,70,979.3106404159989,None,149,A,1,2021_Jun_04_1757,GazeFlow,2020.1.2,59.852117984902875,
8,Block510.xls,A,10,2,114,54,22,incongruent,Left,Right,Left,76,69,7,yellow,2,5,/home/docky/apps/exp/images/76Yi.jpeg,/home/docky/apps/exp/images/69Y.jpeg,0,7,7,7,0,1,1,1,980.3133152359987,None,980.3133152359987,None,1,3.6237278650005464,980.3133152359987,None,983.9709557200003,None,983.9709557200003,None,986.4738124899995,None,986.4738124899995,None,0.6660823050006002,988.271856075,None,988.271856075,None,5,1,0.517130318999989,988.9299560440013,None,988.9299560440013,None,988.9299560440013,None,989.4637951100012,None,1,0.21706539699880523,989.4637951100012,None,72,989.6975701699994,None,149,A,1,2021_Jun_04_1757,GazeFlow,2020.1.2,59.852117984902875,
8,Block510.xls,A,10,3,72,12,21,incongruent,Right,Left,Right,76,79,3,blue,2,6,/home/docky/apps/exp/images/76Bi.jpeg,/home/docky/apps/exp/images/79B.jpeg,0,7,7,7,0,2,2,2,990.6999102279988,None,990.6999102279988,None,1,4.592992736001179,990.6999102279988,None,995.326058917999,None,995.326058917999,None,997.8295650170003,None,997.8295650170003,None,0.7496664770005737,999.6328524130004,None,999.6328524130004,None,6,1,0.5505570659988734,1000.3688760440018,None,1000.3688760440018,None,1000.3688760440018,None,1000.9360466819999,None,1,0.21716268399904948,1000.9360466819999,None,74,1001.1700419609988,None,149,A,1,2021_Jun_04_1757,GazeFlow,2020.1.2,59.852117984902875,
8,Block510.xls,A,10,4,112,52,22,incongruent,Left,Right,Left,75,69,6,yellow,2,5,/home/docky/apps/exp/images/76Y.jpeg,/home/docky/apps/exp/images/69Yi.jpeg,0,7,7,7,0,3,3,3,1002.1717835609998,None,1002.1717835609998,None,1,3.9254100269972696,1002.1717835609998,None,1006.1303981220008,None,1006.1303981220008,None,1008.6341624109991,None,1008.6341624109991,None,0.883424441999523,1010.4366636630002,None,1010.4366636630002,None,5,1,0.6507903979982075,1011.3069438780003,None,1011.3069438780003,None,1011.3069438780003,None,1011.974096771999,None,1,0.15037865699923714,1011.974096771999,None,76,1012.1412596949995,None,149,A,1,2021_Jun_04_1757,GazeFlow,2020.1.2,59.852117984902875,
8,Block510.xls,A,10,5,17,17,11,congruent,Left,Left,Right,33,35,2,yellow,2,6,/home/docky/apps/exp/images/33Y.jpeg,/home/docky/apps/exp/images/35Yi.jpeg,0,7,7,7,0,4,4,4,1013.1436260029986,None,1013.1436260029986,None,1,3.957856441000331,1013.1436260029986,None,1017.1349404460016,None,1017.1349404460016,None,1019.6402868000005,None,1019.6402868000005,None,0.699420334000024,1021.4410430919997,None,1021.4410430919997,None,6,1,0.5671753520000493,1022.1278923050013,None,1022.1278923050013,None,1022.1278923050013,None,1022.7116416429999,None,1,0.16744366299826652,1022.7116416429999,None,78,1022.8953617160005,None,149,A,1,2021_Jun_04_1757,GazeFlow,2020.1.2,59.852117984902875,
8,Block510.xls,A,10,6,31,31,12,congruent,Right,Right,Left,19,16,3,blue,2,5,/home/docky/apps/exp/images/19Bi.jpeg,/home/docky/apps/exp/images/16B.jpeg,0,7,7,7,0,5,5,5,1023.8975521220018,None,1023.8975521220018,None,1,4.859906445999513,1023.8975521220018,None,1028.7909125510014,None,1028.7909125510014,None,1031.295659301999,None,1031.295659301999,None,0.6159333110008447,1033.099947068,None,1033.099947068,None,5,1,0.5338289760002226,1033.700221676001,None,1033.700221676001,None,1033.700221676001,None,1034.2507981849994,None,1,0.2336321639995731,1034.2507981849994,None,80,1034.5010655930018,None,149,A,1,2021_Jun_04_1757,GazeFlow,2020.1.2,59.852117984902875,
8,Block510.xls,A,10,7,61,1,21,incongruent,Right,Left,Right,16,19,3,blue,2,6,/home/docky/apps/exp/images/16Bi.jpeg,/home/docky/apps/exp/images/19B.jpeg,0,7,7,7,0,6,6,6,1035.5036530479993,None,1035.5036530479993,None,1,7.314189830998657,1035.5036530479993,None,1042.8519290680015,None,1042.8519290680015,None,1045.3551078839992,None,1045.3551078839992,None,1.0669875940002385,1047.1537401470014,None,1047.1537401470014,None,6,1,2.588049312998919,1048.2117690209998,None,1048.2117690209998,None,1048.2117690209998,None,1050.8162820840007,None,1,0.36751182100124424,1050.8162820840007,None,82,1051.2003745059992,None,149,A,1,2021_Jun_04_1757,GazeFlow,2020.1.2,59.852117984902875,
8,Block510.xls,A,10,8,94,34,22,incongruent,Left,Right,Left,38,35,3,blue,2,5,/home/docky/apps/exp/images/38Bi.jpeg,/home/docky/apps/exp/images/35B.jpeg,0,7,7,7,0,7,7,7,1052.2025622379988,None,1052.2025622379988,None,1,5.260724509000283,1052.2025622379988,None,1057.4971275979988,None,1057.4971275979988,None,1060.0003950630016,None,1060.0003950630016,None,0.5996325289997912,1061.8036709059998,None,1061.8036709059998,None,5,1,0.5171361030006665,1062.3893392739992,None,1062.3893392739992,None,1062.3893392739992,None,1062.9229426359998,None,1,0.3175236280003446,1062.9229426359998,None,84,1063.2572099200006,None,149,A,1,2021_Jun_04_1757,GazeFlow,2020.1.2,59.852117984902875,
8,Block510.xls,A,,,,,,,,,,,,,,,,,,0,7,7,7,,,,,,,,,,,,,,,,,,,,,,,,,,,,,,,,,,,,,,,,,,,,149,A,1,2021_Jun_04_1757,GazeFlow,2020.1.2,59.852117984902875,
9,Block507.xls,A,7,1,110,50,22,incongruent,Left,Right,Left,66,65,1,yellow,2,5,/home/docky/apps/exp/images/66Y.jpeg,/home/docky/apps/exp/images/35Bi.jpeg,0,8,8,8,0,0,0,0,1089.9566735570006,None,1089.9566735570006,None,1,4.885969828002999,1089.9566735570006,None,1094.8714780510018,None,1094.8714780510018,None,1097.391310482999,None,1097.391310482999,None,0.6821197380013473,1099.1877250910002,None,1099.1877250910002,None,5,1,0.6839791720012727,1099.8622366810014,None,1099.8622366810014,None,1099.8622366810014,None,1100.5631296130014,None,1,0.21698911800194765,1100.5631296130014,None,86,1100.7966322190005,None,149,A,1,2021_Jun_04_1757,GazeFlow,2020.1.2,59.852117984902875,
9,Block507.xls,A,7,2,90,30,22,incongruent,Right,Left,Right,16,19,3,blue,2,6,/home/docky/apps/exp/images/16Bi.jpeg,/home/docky/apps/exp/images/19B.jpeg,0,8,8,8,0,1,1,1,1101.7991102470005,None,1101.7991102470005,None,1,4.676458771002217,1101.7991102470005,None,1106.5090467720001,None,1106.5090467720001,None,1109.0122843220015,None,1109.0122843220015,None,0.5992582830003812,1110.8153013800002,None,1110.8153013800002,None,6,1,0.5504039089973958,1111.4012671659984,None,1111.4012671659984,None,1111.4012671659984,None,1111.9684682160005,None,1,0.20047710699873278,1111.9684682160005,None,88,1112.1854432049986,None,149,A,1,2021_Jun_04_1757,GazeFlow,2020.1.2,59.852117984902875,
9,Block507.xls,A,7,3,16,16,11,congruent,Left,Left,Right,33,35,2,yellow,2,6,/home/docky/apps/exp/images/33Yi.jpeg,/home/docky/apps/exp/images/35Y.jpeg,0,8,8,8,0,2,2,2,1113.187471453999,None,1113.187471453999,None,1,4.1421132139985275,1113.187471453999,None,1117.3634789690004,None,1117.3634789690004,None,1119.8668567400018,None,1119.8668567400018,None,0.5327479749976192,1121.670103984001,None,1121.670103984001,None,6,1,0.600762690002739,1122.188681603002,None,1122.188681603002,None,1122.188681603002,None,1122.8060495319987,None,1,0.217210647999309,1122.8060495319987,None,90,1123.039933979002,None,149,A,1,2021_Jun_04_1757,GazeFlow,2020.1.2,59.852117984902875,
9,Block507.xls,A,7,4,117,57,22,incongruent,Left,Right,Left,77,72,5,yellow,2,5,/home/docky/apps/exp/images/77Y.jpeg,/home/docky/apps/exp/images/72Yi.jpeg,0,8,8,8,0,3,3,3,1124.042252662999,None,1124.042252662999,None,1,4.625968576998275,1124.042252662999,None,1128.7020190340008,None,1128.7020190340008,None,1131.204910733999,None,1131.204910733999,None,1.0001959269975487,1133.0084465239997,None,1133.0084465239997,None,5,1,0.6005036019996624,1133.995135166002,None,1133.995135166002,None,1133.995135166002,None,1134.6124893119995,None,1,0.2674377729999833,1134.6124893119995,None,92,1134.8961546600003,None,149,A,1,2021_Jun_04_1757,GazeFlow,2020.1.2,59.852117984902875,
9,Block507.xls,A,7,5,53,53,12,congruent,Right,Right,Left,75,69,6,yellow,2,5,/home/docky/apps/exp/images/76Yi.jpeg,/home/docky/apps/exp/images/69Y.jpeg,0,8,8,8,0,4,4,4,1135.8985462630008,None,1135.8985462630008,None,1,5.561177094998129,1135.8985462630008,None,1141.4937586669985,None,1141.4937586669985,None,1143.9982347149999,None,1143.9982347149999,None,0.5158742849998816,1145.8019074760014,None,1145.8019074760014,None,5,1,0.5670749609998893,1146.3024146610005,None,1146.3024146610005,None,1146.3024146610005,None,1146.8862028639996,None,1,0.2505748699986725,1146.8862028639996,None,94,1147.1535225670013,None,149,A,1,2021_Jun_04_1757,GazeFlow,2020.1.2,59.852117984902875,
9,Block507.xls,A,7,6,96,36,22,incongruent,Left,Right,Left,66,65,1,blue,2,5,/home/docky/apps/exp/images/66Bi.jpeg,/home/docky/apps/exp/images/35Y.jpeg,0,8,8,8,0,5,5,5,1148.1558056009999,None,1148.1558056009999,None,1,3.9250180840026587,1148.1558056009999,None,1152.114051949,None,1152.114051949,None,1154.6174094060007,None,1154.6174094060007,None,0.5988610950007569,1156.4213332860018,None,1156.4213332860018,None,5,1,0.5841129139989789,1157.0065123509994,None,1157.0065123509994,None,1157.0065123509994,None,1157.6069457750018,None,1,0.30088837999937823,1157.6069457750018,None,96,1157.924465248001,None,149,A,1,2021_Jun_04_1757,GazeFlow,2020.1.2,59.852117984902875,
9,Block507.xls,A,7,7,58,58,12,congruent,Right,Right,Left,77,72,5,yellow,2,5,/home/docky/apps/exp/images/77Yi.jpeg,/home/docky/apps/exp/images/72Y.jpeg,0,8,8,8,0,6,6,6,1158.9267095860014,None,1158.9267095860014,None,1,3.8917142809987126,1158.9267095860014,None,1162.8499726369992,None,1162.8499726369992,None,1165.354513413,None,1165.354513413,None,0.5826707329979399,1167.1529452329996,None,1167.1529452329996,None,5,1,0.5840777970006457,1167.7273155779985,None,1167.7273155779985,None,1167.7273155779985,None,1168.3277590879989,None,1,0.25048668299859855,1168.3277590879989,None,98,1168.595111904,None,149,A,1,2021_Jun_04_1757,GazeFlow,2020.1.2,59.852117984902875,
9,Block507.xls,A,7,8,41,41,12,congruent,Right,Right,Left,79,76,3,blue,2,5,/home/docky/apps/exp/images/79Bi.jpeg,/home/docky/apps/exp/images/76B.jpeg,0,8,8,8,0,7,7,7,1169.5974754160015,None,1169.5974754160015,None,1,4.308608205999917,1169.5974754160015,None,1173.9395346380006,None,1173.9395346380006,None,1176.442563255001,None,1176.442563255001,None,0.7498419500007003,1178.2405019830003,None,1178.2405019830003,None,5,1,0.5674553390017536,1178.9825223389998,None,1178.9825223389998,None,1178.9825223389998,None,1179.566496858999,None,1,0.21700106099888217,1179.566496858999,None,100,1179.8002816379994,None,149,A,1,2021_Jun_04_1757,GazeFlow,2020.1.2,59.852117984902875,
9,Block507.xls,A,,,,,,,,,,,,,,,,,,0,8,8,8,,,,,,,,,,,,,,,,,,,,,,,,,,,,,,,,,,,,,,,,,,,,149,A,1,2021_Jun_04_1757,GazeFlow,2020.1.2,59.852117984902875,
10,Block515.xls,A,15,1,107,47,22,incongruent,Left,Right,Left,35,33,2,yellow,2,5,/home/docky/apps/exp/images/35Yi.jpeg,/home/docky/apps/exp/images/33Y.jpeg,0,9,9,9,0,0,0,0,1206.1396178249997,None,1206.1396178249997,None,1,3.859208370999113,1206.1396178249997,None,1210.0289834389987,None,1210.0289834389987,None,1212.5481194329986,None,1212.5481194329986,None,0.5487828299992543,1214.350208603999,None,1214.350208603999,None,5,1,0.5669502540004032,1214.8857288840009,None,1214.8857288840009,None,1214.8857288840009,None,1215.469648197999,None,1,0.20057031599935726,1215.469648197999,None,102,1215.6865074050002,None,149,A,1,2021_Jun_04_1757,GazeFlow,2020.1.2,59.852117984902875,
10,Block515.xls,A,15,2,55,55,12,congruent,Right,Right,Left,76,69,7,yellow,2,5,/home/docky/apps/exp/images/76Yi.jpeg,/home/docky/apps/exp/images/69Y.jpeg,0,9,9,9,0,1,1,1,1216.6887635880012,None,1216.6887635880012,None,1,3.8418150870020327,1216.6887635880012,None,1220.566738411002,None,1220.566738411002,None,1223.0734787330002,None,1223.0734787330002,None,0.6492911120003555,1224.8702179579996,None,1224.8702179579996,None,5,1,0.5337105250000604,1225.5062606079991,None,1225.5062606079991,None,1225.5062606079991,None,1226.056935474,None,1,0.2675665780006966,1226.056935474,None,104,1226.3404885109994,None,149,A,1,2021_Jun_04_1757,GazeFlow,2020.1.2,59.852117984902875,
10,Block515.xls,A,15,3,75,15,21,incongruent,Right,Left,Right,33,35,2,yellow,2,6,/home/docky/apps/exp/images/33Yi.jpeg,/home/docky/apps/exp/images/35Y.jpeg,0,9,9,9,0,2,2,2,1227.3425248579988,None,1227.3425248579988,None,1,3.674994962002529,1227.3425248579988,None,1231.0508732220005,None,1231.0508732220005,None,1233.553982540001,None,1233.553982540001,None,0.5825189389979641,1235.3572896289988,None,1235.3572896289988,None,6,1,0.6006619640029385,1235.9264836690018,None,1235.9264836690018,None,1235.9264836690018,None,1236.5436637409985,None,1,0.2171160109974153,1236.5436637409985,None,106,1236.777251503001,None,149,A,1,2021_Jun_04_1757,GazeFlow,2020.1.2,59.852117984902875,
10,Block515.xls,A,15,4,62,2,21,incongruent,Right,Left,Right,35,38,3,blue,2,6,/home/docky/apps/exp/images/35Bi.jpeg,/home/docky/apps/exp/images/38B.jpeg,0,9,9,9,0,3,3,3,1237.7798915669991,None,1237.7798915669991,None,1,3.8076184980018297,1237.7798915669991,None,1241.6214556060004,None,1241.6214556060004,None,1244.1262872900006,None,1244.1262872900006,None,0.5823572020017309,1245.9281373170015,None,1245.9281373170015,None,6,1,0.6506789769991883,1246.4969699409994,None,1246.4969699409994,None,1246.4969699409994,None,1247.1643039180017,None,1,0.13367135700173094,1247.1643039180017,None,108,1247.3148694510019,None,149,A,1,2021_Jun_04_1757,GazeFlow,2020.1.2,59.852117984902875,
10,Block515.xls,A,15,5,100,40,22,incongruent,Left,Right,Left,79,76,3,blue,2,5,/home/docky/apps/exp/images/79Bi.jpeg,/home/docky/apps/exp/images/76B.jpeg,0,9,9,9,0,4,4,4,1248.3170978070011,None,1248.3170978070011,None,1,4.058057975998963,1248.3170978070011,None,1252.4090407889998,None,1252.4090407889998,None,1254.9118814329995,None,1254.9118814329995,None,0.6663394909992348,1256.7145317959985,None,1256.7145317959985,None,5,1,0.5673185310006374,1257.3682122659993,None,1257.3682122659993,None,1257.3682122659993,None,1257.9519631270014,None,1,0.25075144200309296,1257.9519631270014,None,110,1258.2191110940003,None,149,A,1,2021_Jun_04_1757,GazeFlow,2020.1.2,59.852117984902875,
10,Block515.xls,A,15,6,108,48,22,incongruent,Left,Right,Left,39,38,1,yellow,2,5,/home/docky/apps/exp/images/39Y.jpeg,/home/docky/apps/exp/images/38Yi.jpeg,0,9,9,9,0,5,5,5,1259.2213841230005,None,1259.2213841230005,None,1,4.593042495998816,1259.2213841230005,None,1263.8479671640016,None,1263.8479671640016,None,1266.350617207001,None,1266.350617207001,None,0.6493673240001954,1268.1485282540016,None,1268.1485282540016,None,5,1,0.6342658439971274,1268.7903774590013,None,1268.7903774590013,None,1268.7903774590013,None,1269.4408623199997,None,1,0.25050761699822033,1269.4408623199997,None,112,1269.7082221929995,None,149,A,1,2021_Jun_04_1757,GazeFlow,2020.1.2,59.852117984902875,
10,Block515.xls,A,15,7,59,59,12,congruent,Right,Right,Left,80,79,1,yellow,2,5,/home/docky/apps/exp/images/80Y.jpeg,/home/docky/apps/exp/images/79Yi.jpeg,0,9,9,9,0,6,6,6,1270.7106619879996,None,1270.7106619879996,None,1,4.97697989900189,1270.7106619879996,None,1275.7215981260015,None,1275.7215981260015,None,1278.2258435910007,None,1278.2258435910007,None,0.5993484620012168,1280.0272936399997,None,1280.0272936399997,None,5,1,0.567134465003619,1280.6135190140012,None,1280.6135190140012,None,1280.6135190140012,None,1281.197105739,None,1,0.26726132999829133,1281.197105739,None,114,1281.4809217889997,None,149,A,1,2021_Jun_04_1757,GazeFlow,2020.1.2,59.852117984902875,
10,Block515.xls,A,15,8,8,8,11,congruent,Left,Left,Right,38,39,1,blue,2,6,/home/docky/apps/exp/images/38B.jpeg,/home/docky/apps/exp/images/39Bi.jpeg,0,9,9,9,0,7,7,7,1282.4833786070012,None,1282.4833786070012,None,1,4.692791415996908,1282.4833786070012,None,1287.2095543110008,None,1287.2095543110008,None,1289.7127047569993,None,1289.7127047569993,None,0.9665866770010325,1291.516713506,None,1291.516713506,None,6,1,0.7012086530012311,1292.4696065040007,None,1292.4696065040007,None,1292.4696065040007,None,1293.1870002520009,None,1,0.11721861899786745,1293.1870002520009,None,116,1293.3208177439992,None,149,A,1,2021_Jun_04_1757,GazeFlow,2020.1.2,59.852117984902875,
10,Block515.xls,A,,,,,,,,,,,,,,,,,,0,9,9,9,,,,,,,,,,,,,,,,,,,,,,,,,,,,,,,,,,,,,,,,,,,,149,A,1,2021_Jun_04_1757,GazeFlow,2020.1.2,59.852117984902875,
11,Block512.xls,A,12,1,30,30,11,congruent,Left,Left,Right,79,82,3,yellow,2,6,/home/docky/apps/exp/images/79Yi.jpeg,/home/docky/apps/exp/images/80Y.jpeg,0,10,10,10,0,0,0,0,1317.937001074999,None,1317.937001074999,None,1,4.549216456998693,1317.937001074999,None,1322.5193425370016,None,1322.5193425370016,None,1325.0332787939988,None,1325.0332787939988,None,0.6992181960013113,1326.836989632,None,1326.836989632,None,5,0,0.617024103001313,1327.5210975209993,None,1327.5210975209993,None,1327.5210975209993,None,1328.1549417329989,None,1,0.2172316479991423,1328.1549417329989,None,114,1328.388536585,None,149,A,1,2021_Jun_04_1757,GazeFlow,2020.1.2,59.852117984902875,
11,Block512.xls,A,12,2,115,55,22,incongruent,Left,Right,Left,76,69,7,yellow,2,5,/home/docky/apps/exp/images/76Yi.jpeg,/home/docky/apps/exp/images/69Y.jpeg,0,10,10,10,0,1,1,1,1329.3907222589987,None,1329.3907222589987,None,1,4.476356572999066,1329.3907222589987,None,1333.8988898259995,None,1333.8988898259995,None,1336.4037089759986,None,1336.4037089759986,None,0.6159969420004927,1338.201177791001,None,1338.201177791001,None,6,0,0.5507984530013346,1338.8094070400002,None,1338.8094070400002,None,1338.8094070400002,None,1339.3766604839984,None,1,0.16701637100049993,1339.3766604839984,None,112,1339.5605149690018,None,149,A,1,2021_Jun_04_1757,GazeFlow,2020.1.2,59.852117984902875,
11,Block512.xls,A,12,3,66,6,21,incongruent,Right,Left,Right,38,39,1,blue,2,6,/home/docky/apps/exp/images/38B.jpeg,/home/docky/apps/exp/images/39Bi.jpeg,0,10,10,10,0,2,2,2,1340.5631296089996,None,1340.5631296089996,None,1,4.960155140997813,1340.5631296089996,None,1345.5566633919989,None,1345.5566633919989,None,1348.059243615,None,1348.059243615,None,0.632672215000639,1349.8627036469989,None,1349.8627036469989,None,6,1,0.650894664999214,1350.4825561079997,None,1350.4825561079997,None,1350.4825561079997,None,1351.1495683380017,None,1,0.21736582800076576,1351.1495683380017,None,114,1351.3836311550003,None,149,A,1,2021_Jun_04_1757,GazeFlow,2020.1.2,59.852117984902875,
11,Block512.xls,A,12,4,35,35,12,congruent,Right,Right,Left,66,65,1,blue,2,5,/home/docky/apps/exp/images/66B.jpeg,/home/docky/apps/exp/images/35Yi.jpeg,0,10,10,10,0,3,3,3,1352.3858760330004,None,1352.3858760330004,None,1,3.8915559660017607,1352.3858760330004,None,1356.3110340320018,None,1356.3110340320018,None,1358.813315577001,None,1358.813315577001,None,0.599205530998006,1360.6172589769994,None,1360.6172589769994,None,6,0,0.5511316390002321,1361.202971494,None,1361.202971494,None,1361.202971494,None,1361.770537403001,None,1,0.16717597199749434,1361.770537403001,None,112,1361.9542066300019,None,149,A,1,2021_Jun_04_1757,GazeFlow,2020.1.2,59.852117984902875,
11,Block512.xls,A,12,5,40,40,12,congruent,Right,Right,Left,79,76,3,blue,2,5,/home/docky/apps/exp/images/79Bi.jpeg,/home/docky/apps/exp/images/76B.jpeg,0,10,10,10,0,4,4,4,1362.956486389001,None,1362.956486389001,None,1,4.225510431002476,1362.956486389001,None,1367.2153867119996,None,1367.2153867119996,None,1369.7200942890013,None,1369.7200942890013,None,1.4679232140006206,1371.521737862,None,1371.521737862,None,5,1,0.6840851429988106,1372.9760362870002,None,1372.9760362870002,None,1372.9760362870002,None,1373.6770443230016,None,1,0.2508022020010685,1373.6770443230016,None,114,1373.9443821280001,None,149,A,1,2021_Jun_04_1757,GazeFlow,2020.1.2,59.852117984902875,
11,Block512.xls,A,12,6,64,4,21,incongruent,Right,Left,Right,65,66,1,blue,2,6,/home/docky/apps/exp/images/35Yi.jpeg,/home/docky/apps/exp/images/66B.jpeg,0,10,10,10,0,5,5,5,1374.9461285290017,None,1374.9461285290017,None,1,6.547077261002414,1374.9461285290017,None,1381.526515693,None,1381.526515693,None,1384.029177880002,None,1384.029177880002,None,0.6327411519996531,1385.8329904560014,None,1385.8329904560014,None,6,1,0.6006614529978833,1386.4523984529988,None,1386.4523984529988,None,1386.4523984529988,None,1387.069494372001,None,1,0.3174380180025764,1387.069494372001,None,116,1387.4034336570003,None,149,A,1,2021_Jun_04_1757,GazeFlow,2020.1.2,59.852117984902875,
11,Block512.xls,A,12,7,12,12,11,congruent,Left,Left,Right,76,79,3,blue,2,6,/home/docky/apps/exp/images/76B.jpeg,/home/docky/apps/exp/images/79Bi.jpeg,0,10,10,10,0,6,6,6,1388.405653632999,None,1388.405653632999,None,1,4.141708041999664,1388.405653632999,None,1392.5795586349996,None,1392.5795586349996,None,1395.0840802130006,None,1395.0840802130006,None,0.4497983289984404,1396.8880727130017,None,1396.8880727130017,None,6,1,0.615673306001554,1397.341593235,None,1397.341593235,None,1397.341593235,None,1397.9741297770015,None,1,0.23395648400037317,1397.9741297770015,None,118,1398.224349565,None,149,A,1,2021_Jun_04_1757,GazeFlow,2020.1.2,59.852117984902875,
11,Block512.xls,A,12,8,49,49,12,congruent,Right,Right,Left,39,38,1,yellow,2,5,/home/docky/apps/exp/images/39Y.jpeg,/home/docky/apps/exp/images/38Yi.jpeg,0,10,10,10,0,7,7,7,1399.2272570950008,None,1399.2272570950008,None,1,4.408476859000075,1399.2272570950008,None,1403.6676199639987,None,1403.6676199639987,None,1406.1719672610016,None,1406.1719672610016,None,0.7827965819997189,1407.9763503989998,None,1407.9763503989998,None,5,1,0.6506945209985133,1408.7454364270016,None,1408.7454364270016,None,1408.7454364270016,None,1409.412914831999,None,1,0.18386198699954548,1409.412914831999,None,120,1409.6132647660015,None,149,A,1,2021_Jun_04_1757,GazeFlow,2020.1.2,59.852117984902875,
11,Block512.xls,A,,,,,,,,,,,,,,,,,,0,10,10,10,,,,,,,,,,,,,,,,,,,,,,,,,,,,,,,,,,,,,,,,,,,,149,A,1,2021_Jun_04_1757,GazeFlow,2020.1.2,59.852117984902875,
12,Block503.xls,A,3,1,22,22,11,congruent,Left,Left,Right,62,65,3,yellow,2,6,/home/docky/apps/exp/images/38Bi.jpeg,/home/docky/apps/exp/images/35B.jpeg,0,11,11,11,0,0,0,0,1435.196701023,None,1435.196701023,None,1,6.003292243996839,1435.196701023,None,1441.2207430650014,None,1441.2207430650014,None,1443.747115872,None,1443.747115872,None,0.6654933409990917,1445.5486665880017,None,1445.5486665880017,None,6,1,0.5843730900014634,1446.2017028369992,None,1446.2017028369992,None,1446.2017028369992,None,1446.8020590019987,None,1,0.20082390799871064,1446.8020590019987,None,122,1447.0191957009993,None,149,A,1,2021_Jun_04_1757,GazeFlow,2020.1.2,59.852117984902875,
12,Block503.xls,A,3,2,65,5,21,incongruent,Right,Left,Right,65,66,1,blue,2,6,/home/docky/apps/exp/images/35Y.jpeg,/home/docky/apps/exp/images/66Bi.jpeg,0,11,11,11,0,1,1,1,1448.021624977002,None,1448.021624977002,None,1,3.2905637839976407,1448.021624977002,None,1451.3455457980017,None,1451.3455457980017,None,1453.8501838619995,None,1453.8501838619995,None,0.6157963059995382,1455.6516465470013,None,1455.6516465470013,None,6,1,0.550549849998788,1456.2542364340006,None,1456.2542364340006,None,1456.2542364340006,None,1456.8214717049996,None,1,0.1504266709998774,1456.8214717049996,None,124,1456.9886979959992,None,149,A,1,2021_Jun_04_1757,GazeFlow,2020.1.2,59.852117984902875,
12,Block503.xls,A,3,3,76,16,21,incongruent,Right,Left,Right,33,35,2,yellow,2,6,/home/docky/apps/exp/images/33Y.jpeg,/home/docky/apps/exp/images/35Yi.jpeg,0,11,11,11,0,2,2,2,1457.9908800109988,None,1457.9908800109988,None,1,3.7581405250020907,1457.9908800109988,None,1461.7825764949994,None,1461.7825764949994,None,1464.2858339630002,None,1464.2858339630002,None,0.5993285600015952,1466.088231132002,None,1466.088231132002,None,5,0,0.5508176689982065,1466.674839956002,None,1466.674839956002,None,1466.674839956002,None,1467.2417441090001,None,1,0.23396523400151636,1467.2417441090001,None,122,1467.492236260001,None,149,A,1,2021_Jun_04_1757,GazeFlow,2020.1.2,59.852117984902875,
12,Block503.xls,A,3,4,29,29,11,congruent,Left,Left,Right,79,82,3,yellow,2,6,/home/docky/apps/exp/images/79Y.jpeg,/home/docky/apps/exp/images/80Yi.jpeg,0,11,11,11,0,3,3,3,1468.494515704002,None,1468.494515704002,None,1,4.977656342998671,1468.494515704002,None,1473.506021756999,None,1473.506021756999,None,1476.0097994489988,None,1476.0097994489988,None,0.7327629249994061,1477.8116835110013,None,1477.8116835110013,None,6,1,0.5669236149988137,1478.5312621349985,None,1478.5312621349985,None,1478.5312621349985,None,1479.1149530049988,None,1,0.2337987319988315,1479.1149530049988,None,124,1479.3652829730017,None,149,A,1,2021_Jun_04_1757,GazeFlow,2020.1.2,59.852117984902875,
12,Block503.xls,A,3,5,103,43,22,incongruent,Left,Right,Left,39,38,1,blue,2,5,/home/docky/apps/exp/images/39Bi.jpeg,/home/docky/apps/exp/images/38B.jpeg,0,11,11,11,0,4,4,4,1480.367833209999,None,1480.367833209999,None,1,3.7741968580012326,1480.367833209999,None,1484.175884840999,None,1484.175884840999,None,1486.6804957290005,None,1486.6804957290005,None,0.6493829730025027,1488.4821288989988,None,1488.4821288989988,None,6,0,2.370939892000024,1489.1180428469997,None,1489.1180428469997,None,1489.1180428469997,None,1491.5055999249998,None,1,0.3841639700003725,1491.5055999249998,None,122,1491.9061870160003,None,149,A,1,2021_Jun_04_1757,GazeFlow,2020.1.2,59.852117984902875,
12,Block503.xls,A,3,6,47,47,12,congruent,Right,Right,Left,35,33,2,yellow,2,5,/home/docky/apps/exp/images/35Yi.jpeg,/home/docky/apps/exp/images/33Y.jpeg,0,11,11,11,0,5,5,5,1492.9086523779988,None,1492.9086523779988,None,1,5.361309947002155,1492.9086523779988,None,1498.303142323999,None,1498.303142323999,None,1500.806041914002,None,1500.806041914002,None,1.000118122999993,1502.609106371001,None,1502.609106371001,None,6,0,0.583789019001415,1503.5966221320014,None,1503.5966221320014,None,1503.5966221320014,None,1504.1970794000008,None,1,0.2170929759995488,1504.1970794000008,None,120,1504.430666332999,None,149,A,1,2021_Jun_04_1757,GazeFlow,2020.1.2,59.852117984902875,
12,Block503.xls,A,3,7,20,20,11,congruent,Left,Left,Right,65,66,1,yellow,2,6,/home/docky/apps/exp/images/35Bi.jpeg,/home/docky/apps/exp/images/66Y.jpeg,0,11,11,11,0,6,6,6,1505.4331942710014,None,1505.4331942710014,None,1,4.976542686999892,1505.4331942710014,None,1510.4432722240017,None,1510.4432722240017,None,1512.9466701439997,None,1512.9466701439997,None,0.6327195049998409,1514.7502882100016,None,1514.7502882100016,None,6,1,0.6339672799986147,1515.3693454509994,None,1515.3693454509994,None,1515.3693454509994,None,1516.0198977670007,None,1,0.21719673199913814,1516.0198977670007,None,122,1516.2538833959989,None,149,A,1,2021_Jun_04_1757,GazeFlow,2020.1.2,59.852117984902875,
12,Block503.xls,A,3,8,27,27,11,congruent,Left,Left,Right,72,77,5,yellow,2,6,/home/docky/apps/exp/images/72Yi.jpeg,/home/docky/apps/exp/images/77Y.jpeg,0,11,11,11,0,7,7,7,1517.2565128290007,None,1517.2565128290007,None,1,5.54441354699884,1517.2565128290007,None,1522.8360333679993,None,1522.8360333679993,None,1525.337503791001,None,1525.337503791001,None,0.48304809000183013,1527.1352275380013,None,1527.1352275380013,None,6,1,0.5729481489979662,1527.620977933002,None,1527.620977933002,None,1527.620977933002,None,1528.2100621950012,None,1,0.20095351999771083,1528.2100621950012,None,124,1528.4274300260004,None,149,A,1,2021_Jun_04_1757,GazeFlow,2020.1.2,59.852117984902875,
12,Block503.xls,A,,,,,,,,,,,,,,,,,,0,11,11,11,,,,,,,,,,,,,,,,,,,,,,,,,,,,,,,,,,,,,,,,,,,,149,A,1,2021_Jun_04_1757,GazeFlow,2020.1.2,59.852117984902875,
,,,,,,,,,,,,,,,,,,,,,,,,,,,,1548.4662622110009,None,1548.4662622110009,None,1,40.1540179529984,1548.4662622110009,None,1588.6331613319999,None,1588.6331613319999,None,1591.1330536060013,None,1591.1330536060013,None,29.757491256998037,1592.9366144330015,None,1592.9366144330015,None,,,,,,,,,,,,,,,,,,,,,,,,,,
